timestamp,ax,ay,az,gx,gy,gz,mx,my,mz,label
0.0,0.5871753405292935,-0.05752549037158128,9.138486504216482,0.3396003178558955,0.03709065035331921,-0.5415033709956952,744.2564537127016,368.9338418027245,608.0906377117001,downstairs
0.05008347245409015,0.41502272660139067,0.1802440341443487,8.56445355449372,-1.2599085677971897,0.3649094377063947,0.39359514160028597,676.8459872854974,382.24886444343207,616.8042305207642,downstairs
0.1001669449081803,0.5626622794063411,0.9351321208354557,8.260224039412883,-0.6214647221644037,0.6699914222346601,-1.6781674485646152,664.5527982251532,324.62597813927687,648.319286897522,downstairs
0.15025041736227046,1.1244448133329936,0.5028852101504102,8.49454240085958,-0.7567241971373009,0.2535987667327636,-0.03835579852047158,717.6050332419096,388.5154085428947,610.5182937720709,downstairs
0.2003338898163606,0.7460941203034616,0.4267519168643219,9.029059252661622,1.1470265430575488,0.653120205289113,0.6306715694231187,642.4328556017732,318.7342174584818,682.0437592026353,downstairs
0.25041736227045075,1.0711615488616144,0.1111527495730649,9.64577200864311,-0.37067252705251325,-0.04540028336601637,0.7110642071840392,614.3480279965213,360.5166574244889,604.3959862266979,downstairs
0.3005008347245409,0.6082263303437008,-0.4299453048893399,10.094077839130204,-0.3554816137954827,0.4456169969969297,-0.7068631405014241,640.003681700854,407.0461476854226,624.8184846399007,downstairs
0.35058430717863104,0.16042739373403408,-0.6608751127897587,10.866009235367821,-0.2831841537378085,1.005283496141118,-0.1060446894419551,658.5959217248629,392.40911631544475,524.9682585802705,downstairs
0.4006677796327212,-0.20389723244614422,-0.2787416381450429,11.68392667306427,0.8507614856284235,-0.27763926690144936,0.9142436515324158,624.4909630143209,405.11406562114746,610.3044850851243,downstairs
0.4507512520868114,-0.33680276232006723,-0.8156091621617383,11.315833662666467,0.25158812051385676,-1.0999216581709026,0.6572028486335555,657.4847907687251,431.34795166827246,628.4245720612238,downstairs
0.5008347245409015,-0.3101275011286966,-0.40833511397913264,10.817427240465628,-0.2758423064157532,-0.14806672765857742,-0.02827145430232097,684.1587545262142,375.11971202050245,651.6892462640739,downstairs
0.5509181969949917,-0.7519880025009692,-0.8936028207821964,10.696585162182691,0.8669030561078193,1.5174254419170492,0.4342611163273671,679.0669338264772,404.6187540505963,575.38576271072,downstairs
0.6010016694490818,-0.8792910865579923,-0.4342416366535056,10.10704760936331,-0.8915235182815563,0.8425414174668618,0.8662742507920919,629.8504187254723,362.6960624014832,651.1953626925863,downstairs
0.651085141903172,-0.3273487240582443,-0.0026373835964351444,9.782234882628103,-0.4831254121142334,-0.7640404408896213,-0.1141178298927542,584.450693408907,381.36396850575466,592.6620845243601,downstairs
0.7011686143572621,0.04120985889490025,0.19520875533016452,9.16547913569018,0.23979270149299248,-0.4946340751969994,-0.5220188250742991,747.1177638729481,413.23054350297065,652.6944757788141,downstairs
0.7512520868113522,0.40083777254552333,0.2928841895680123,8.917060575244765,0.8938442957805023,-1.0224658309007528,0.13084361482872336,675.8604529522536,368.63492941644614,679.0371025055979,downstairs
0.8013355592654424,0.8582092140382102,0.545920696699437,8.519684025071317,-1.2073218748016692,0.05806930103519935,0.38467043241820187,691.05682921979,395.1347896195787,616.000890174099,downstairs
0.8514190317195326,0.8653159191682874,0.6403792587373767,8.794983140419877,0.506643626216479,1.1538349378180206,0.5267785511063122,781.7807679987154,434.21412092400647,589.9380508706768,downstairs
0.9015025041736228,1.0054221432204358,0.2547288233137724,9.262889100568401,-0.6671829752510245,-1.1072481287239415,-0.4313021461338324,673.5366937356825,393.465313299593,598.467535185126,downstairs
0.9515859766277128,1.0352519808986853,0.19840841259641234,9.792285467567785,1.0613927497047775,-1.179076573043027,0.1839995933257397,708.1274175402825,391.76196313989215,648.4602922877243,downstairs
1.001669449081803,0.4050375065671245,0.08351479594858585,10.233250279281936,-0.5532747726198393,0.0783351147419954,0.660822537670732,673.8329664138087,357.39569620577817,585.3692484121691,downstairs
1.0517529215358932,0.3347393644358304,-0.12410437548195288,10.611386292910163,-0.47496649024453885,0.9425976685482111,-0.49641154765642975,614.3888189721553,358.1425070016951,661.4683632791568,downstairs
1.1018363939899833,0.048236818167327125,-0.40706687026819977,10.888404687246833,0.3824037769978326,0.3021558900803579,0.14258245145235127,635.4801341508781,433.113241164178,624.8459125346369,downstairs
1.1519198664440735,-0.6412276307141042,-0.37879210697102167,11.209380097208584,0.1868423615895649,0.6024233736174985,0.9430015912036218,661.1604618420537,375.33958908949546,612.2440727762238,downstairs
1.2020033388981637,-1.0456996468889697,-0.6287175870445265,11.074100452794545,0.08105338706027257,0.15115561400360047,0.08069062909992561,655.9686093705242,353.89950746771075,589.8432142066479,downstairs
1.2520868113522539,-0.41183709579914235,-0.6861400370700546,10.998031852778388,0.1474051106548304,0.6351491122324427,0.16672591757465932,685.5297400005686,323.60403568218226,704.2674271987127,downstairs
1.302170283806344,-0.6146017182809388,-0.5122969555083716,10.464055211944245,0.34323894919332404,0.920023730288523,0.25506143701112993,693.2182758305763,348.7868225285457,654.5548096427977,downstairs
1.352253756260434,-0.6542003359100458,-0.5665919402782804,9.626583518221723,0.558311066712726,0.0054531121006453935,2.00275150404336,607.6690709288914,422.3331698947713,640.8380773556643,downstairs
1.4023372287145242,-0.06424855426300831,0.05321075759704963,9.206281394595932,-0.9646660353599701,-0.6381013185178839,-0.5969034046648133,700.0113169407388,349.78171086167316,634.0743162313267,downstairs
1.4524207011686143,-0.23555497610569076,0.4119881950012964,8.81863640378244,-0.7768726835963864,0.36949171807183173,0.5694635785816334,700.6093220200123,406.3677820083396,604.5880494838534,downstairs
1.5025041736227045,0.49984425879129885,0.34438542117596704,8.529431265328272,-0.0987300982567109,-0.8366828034148498,0.29644168494811945,641.098989573037,422.78905937275545,539.4725347757153,downstairs
1.5525876460767947,0.6751361492226707,0.6611173626153783,8.384216532304213,-0.46286304856431393,0.1934146872559272,0.7234358227721118,709.4779756550807,373.1125349457249,536.6985014757917,downstairs
1.6026711185308848,0.7195524373212999,0.790744934120829,8.6853823385966,0.1783922949126501,-0.63213281332456,-0.745301136759783,710.6444286200983,379.15024975508,590.1072991606673,downstairs
1.652754590984975,0.7485693565702195,0.6214373641997579,9.411388518723546,0.10746529850453612,0.3011479327770236,0.024753343901944152,643.6422751738676,395.8392503500119,586.8658993260694,downstairs
1.7028380634390652,0.8603302560838495,0.18724602032593415,10.021644648439134,0.28417427962371,0.42613117836136494,-0.6443341532950915,688.6461408694393,387.83288462362066,614.4359034438119,downstairs
1.7529215358931554,-0.0029043877078848285,-0.3849554174574919,10.846521607785041,0.4044053529850692,0.1579428296745158,-0.02926885734477215,656.7454390313038,367.5939687305476,670.9642089086567,downstairs
1.8030050083472455,0.11772366409776645,-0.1738902659270433,10.83568680556354,-1.3670475372003061,-0.8117556127899077,1.774630752021732,680.6524708459046,377.2589428372461,622.6975990378697,downstairs
1.8530884808013357,-0.19105518014701245,-0.6050781440991497,10.906606077740186,0.664626559913181,0.7751280809478661,-0.325990839490996,733.9724309168718,436.39552148250414,629.4266146236956,downstairs
1.9031719532554257,-0.8717993111986986,-0.6415334835127604,11.176478317386108,0.1512596753437727,-0.11813009594187183,-0.4272911942541505,706.0111937115203,388.69326411716924,625.8284418257192,downstairs
1.9532554257095158,-0.7221685713935057,-0.5599595503720876,10.95472635830988,-0.9260793379724893,-0.46666282340931026,0.16013584635764921,629.8749522453099,358.6049596614407,655.6565513869017,downstairs
2.003338898163606,-0.5379614434735166,-0.0350650824433823,10.8100765827774,0.33142707895497825,-0.8316229494753752,0.23915531035024892,666.859718035947,388.4613661825931,631.244854368478,downstairs
2.0534223706176964,-0.6640258650945303,-0.19494641434232118,10.300200688211962,-0.21841156633483386,-0.6716513044280307,-0.1589838940079861,617.33431224582,422.85844673583875,677.1259500028825,downstairs
2.1035058430717863,-0.013549435597087836,0.0831929444631889,8.862258077049383,0.7551748923136924,-0.47918886824349594,0.547183205842295,620.7353162303104,360.81172100160194,639.0490855579683,downstairs
2.1535893155258763,0.016754754255988935,0.3871462279842614,9.093572449094022,-0.4920195782682641,1.0277159044226465,0.47070616667328474,729.1696552048278,387.4583857590227,688.2008683111367,downstairs
2.2036727879799667,0.161537927111781,0.24143233337526016,8.496006530051227,-1.6846179545042868,-0.49053343998016397,0.3253121152286571,612.7764933418877,399.3453130640598,610.2899474662148,downstairs
2.2537562604340566,0.5667253891621129,0.6487242714743204,8.47293429622784,-1.1972294467486646,-0.8046300044122461,-0.1652446662772093,718.8411266660601,368.91540380538737,620.6034870064535,downstairs
2.303839732888147,1.1615738324277682,0.6379914706960244,8.459806884128595,-0.6611193930568303,1.1027818494504864,0.8260048232387697,673.8335981149985,407.1661855845121,670.1735133114238,downstairs
2.353923205342237,1.132073535275551,0.18812448277788552,8.920904530614687,-0.30546449972130596,-0.28051372893495,-1.0674730953356935,667.797037782354,366.80606562791706,640.9394181089291,downstairs
2.4040066777963274,0.9302872501047051,-0.04438294696888623,9.44546463807887,0.4534910446314599,0.8830877765146445,0.3904034231984415,662.8500509943756,425.4196783344033,588.624794140358,downstairs
2.4540901502504173,0.42010722978774867,-0.14608061631940011,10.515819906704447,-1.3252844463518316,1.0429715689255723,0.8360739963512972,681.5696902467075,429.46457231106774,680.9615126893954,downstairs
2.5041736227045077,0.10554421801569575,-0.3062190534119895,10.71690817060935,0.3533815117300752,-0.6705790109024562,-0.32455015416037347,644.7163945085242,360.3485450613627,593.0278597612021,downstairs
2.5542570951585977,-0.5709694359571509,-0.24757679196543247,11.181030367999268,-0.8160036688283827,-0.2209547495916639,0.36677370841938406,656.0004400882125,417.458268833328,590.4705858648977,downstairs
2.604340567612688,-0.7314037417894127,-0.5113953957801167,11.246561276499467,1.3650951161553102,0.9155992826619559,-1.0241802117820349,657.7269055798362,392.14578378746387,696.665253771029,downstairs
2.654424040066778,-0.9701936470946709,-1.0282770256261804,11.000310194830389,0.7228896441140404,-0.6772743780564132,-0.3559966771910734,740.3321067945059,385.6042534380109,607.3221984126524,downstairs
2.704507512520868,-0.8028554101935926,-0.6343996230644975,10.541602947266687,-0.14677974863948215,-0.5072647519574427,-0.05291037695958982,658.182240721414,341.90607543524567,631.1532174580176,downstairs
2.7545909849749584,-0.4393311660023355,0.25104839369726667,10.052295570097131,0.21340245077086648,0.081729299848164,0.6083458704803,740.0405613584767,402.8249026110046,657.2318845477175,downstairs
2.8046744574290483,-0.5486088127493836,-0.12694548318407148,9.627766372940748,0.5259065514621103,0.5689255308470014,0.8548036771720374,603.1069811355881,329.161271201858,598.5125973029453,downstairs
2.8547579298831387,0.07802983310441114,0.06891270833665264,8.899263780286788,-0.4486130359019543,-0.47422065180947703,0.8337771752353602,666.8000400433185,326.6889146213255,570.4455552796519,downstairs
2.9048414023372287,0.41999776477964457,0.5357119518510418,8.85281680079024,-0.43459230989582764,-0.5739259609767516,0.294791885325436,673.0472217494669,394.9459195431279,588.501135916811,downstairs
2.954924874791319,0.6110524103847115,0.3656153737200796,8.77259897988948,-0.40025084937126676,0.41326027108677726,-0.1261805058125737,706.7734212738267,348.0438443282924,615.6491244739863,downstairs
3.005008347245409,1.212998098106125,0.946353679090342,9.003458265239985,-1.316269348214496,-0.4887290560228816,0.6050727013535797,618.5887170227403,351.37569117682466,724.6379443775904,downstairs
3.0550918196994994,1.3093008073210437,0.21103266519865915,9.272610197586262,-0.52154614182123,0.37531772099028204,0.45993416820101907,627.8765489404855,406.41424351937815,643.7259298813555,downstairs
3.1051752921535893,0.6497194491201556,0.5107445685442056,9.659855324548749,0.3403579901116371,-0.3390257757476867,-1.1460473056947675,658.597922746933,397.93657809407915,585.5776125885761,downstairs
3.1552587646076797,0.2567837599546272,-0.08116534202184528,10.233403430929453,-0.8204145939918015,1.475113681261501,0.2834028612644458,681.9076670676046,445.41983114749075,608.5124357883285,downstairs
3.2053422370617697,0.3237383677808762,-0.025526662766296004,10.513981979615913,0.3231882576481325,-1.2429889355962072,0.5931350779776527,674.6687138327673,458.4161976510875,663.80533721198,downstairs
3.2554257095158596,0.2529381899591427,-0.4927941200625253,11.248101246476203,0.760017978522031,-0.5765390715107799,-1.0707333696975647,747.6730589131765,410.42695882421975,535.5328827216817,downstairs
3.30550918196995,-0.6410297434871881,-0.6881964120907558,11.32146372061513,0.44426119426638583,-0.07583596389210678,1.5640924531061584,794.1918952069075,442.39660256837226,538.6950290251265,downstairs
3.35559265442404,-0.7579251216373528,-0.8833252476622078,11.015535916305065,0.22034560996741498,-1.8590756618055726,0.886122063266799,683.8695297738019,327.2104573562194,669.2444607584496,downstairs
3.4056761268781304,-0.8208142412553306,-0.6421762761968954,11.009379745952593,0.269237731851359,-1.1407744510573674,-0.5886530248279249,723.9462875498614,413.0713185882826,576.770240990401,downstairs
3.4557595993322203,-0.42543511595868516,0.03579284050380338,10.31889644279233,0.6213153405435798,1.3725760841727772,-1.0663227859068867,600.4025503796329,343.8527630824883,653.8906885351103,downstairs
3.5058430717863107,-0.732636836602138,-0.4547060955341988,9.8238136400709,0.021403710170356974,-0.0335939697301449,1.560518558222864,728.6607160155394,439.5990676003637,631.4282807530354,downstairs
3.5559265442404007,0.2543969055171813,0.12103237304343947,8.79741679352317,-0.11784767042213239,0.9130941201547098,-0.8079854600672682,729.5543485162802,426.26875666727125,670.2222660123442,downstairs
3.606010016694491,0.4791403940676053,0.29534201662407183,8.852706560634823,1.7907081175703272,-0.8952059990438733,0.02986197448235775,693.1618570374676,353.9032525727491,627.14956180152,downstairs
3.656093489148581,1.2144868320984947,0.579834950178072,8.490097385118581,-0.8494147967448415,0.20814042747138112,0.17022170160762584,568.968254782247,386.46818909051035,590.200484482843,downstairs
3.7061769616026714,0.7913365858778802,0.6611764533281177,8.706715830463054,-0.3431080105876084,0.5238556358143993,0.1340862191096713,693.4424092655988,385.6171890682712,609.6297468558537,downstairs
3.7562604340567614,1.0506450940848067,0.5108922644059828,8.671695930847685,-0.5974800890089362,-0.06504955845130811,0.808518507003249,716.8894883106991,390.95092617273133,564.6496927253703,downstairs
3.8063439065108513,0.9253633731622289,0.23455742226071408,9.146222497803947,-0.055600620552809385,-1.4335819483620205,0.7166769376384841,681.9393417770094,449.0977747478306,590.3970555364236,downstairs
3.8564273789649417,0.49325509468198564,0.11486772893905844,9.987718510343242,-0.30332985589921974,-0.11763387796882907,0.48611862153101093,688.1902331154827,425.5776480081845,552.5059143105177,downstairs
3.9065108514190316,0.2191113393327977,-0.058641955488017886,10.46406606338003,0.29464500658786835,-0.6815822256210375,-0.5251472553538392,725.5560190621867,411.02224056842795,640.5588929994663,downstairs
3.956594323873122,-0.09183552518627776,-0.29821660193684163,10.951666197893967,0.28965801061322105,0.30899794492537286,-0.37688188010707985,641.1267506745132,429.5296911255475,624.3915606020115,downstairs
4.006677796327212,-0.533755234164844,-0.3826540219296198,11.306361503479232,0.19874738744735274,-0.16465039332313908,0.9190946914356564,695.7658236784864,356.37607274107353,588.4984370600308,downstairs
4.056761268781302,-0.7920309907753573,-1.0724597825604771,10.984268588144039,-0.8947428123695768,-0.3791117458811175,0.15311599138842524,635.2872674033877,412.79622658129705,606.675809337903,downstairs
4.106844741235393,-0.7987785473742852,-0.8539893787019064,10.89964838424252,-0.07647611404522153,0.3599382778249711,0.029963046643191354,721.036937794481,404.54833164919734,602.8544300991439,downstairs
4.156928213689483,-0.6788100984262079,-0.25371468520191265,10.379023000018448,-0.4551221681822965,0.08642063062893383,-0.02037181850616304,740.2638385040966,292.5772026290514,587.4332310699335,downstairs
4.207011686143573,-0.3475676804598797,-0.43614493198071397,9.916767377640184,-0.04862797549118588,0.3405425029898204,-0.5802250034404239,683.6872167037467,388.1664088915947,602.4667206896626,downstairs
4.257095158597663,-0.27143967734754715,0.11067253925204057,9.42381973132942,-0.2316888277801135,-1.0591709029648657,0.28050567879292476,656.7249069178964,372.2792241526011,617.0977011726743,downstairs
4.307178631051753,0.3110984666546346,0.6500072396010914,8.825655684646465,-0.289031018817037,0.36330762531418453,-1.0820898401742778,750.90159709939,360.7698622968616,590.410115102825,downstairs
4.357262103505843,0.567696613500911,0.3560329303723559,8.626433038609859,0.9220357740716403,0.5189355595253335,0.5576668125714026,732.031479675191,366.3694256222096,608.4151314337169,downstairs
4.407345575959933,1.1232714994464335,0.6638246581472562,8.734241610995603,-0.7354125431272067,0.057471278072484436,0.3486261717470013,659.1836447849854,376.7039766327346,687.3385378996645,downstairs
4.457429048414023,0.9131159287342114,0.5920695630239596,8.82942136685481,0.2932859390900179,1.6402965374487797,1.6638482910526113,632.2224957198839,426.41435303492773,611.8456692728682,downstairs
4.507512520868113,0.9216470071928419,0.30918324210643505,9.063903376565408,0.32627480905481065,0.6254866312874321,0.5256706694654673,666.6609375344244,393.6034044955151,658.7741239657234,downstairs
4.557595993322204,0.5322814495606211,0.24298970792752145,10.098286337033715,-0.5227014784796692,2.0202692213707,-1.4797405467727462,713.3116638799737,422.23551549079616,596.0706966337107,downstairs
4.607679465776294,0.4603497065769035,-0.3697138628370204,10.577046910419186,0.2147157171149122,0.23431926467180242,0.20219133285771512,658.6252855112533,311.29762178538283,649.7253453016585,downstairs
4.657762938230384,0.17712109088359101,-0.36094161652151174,10.858081496252872,0.016694677250152952,0.007420094010599838,-0.169889693640219,659.993810494557,338.2853665470096,559.2260658085364,downstairs
4.707846410684474,-0.39983304777381995,-0.4267256794867786,10.904429168608809,-0.522490804717344,0.07965207138183522,0.07484553953851632,707.6512583213937,396.7120877723962,629.7396442415248,downstairs
4.757929883138565,-0.7474981621217037,-0.38862570124380125,11.74658822935403,-0.04470635810284796,0.5854435910899104,-0.7325490643252429,666.3687549544237,402.6248843784877,563.8176028582318,downstairs
4.808013355592655,-0.8285423468503498,-0.7300777500537752,11.50974313146207,0.5385768011122031,-0.5080819332062512,-0.04632529824487945,658.7504856691176,381.07019398322444,600.8532835422029,downstairs
4.858096828046745,-0.8699356410574022,-0.4199576831245912,10.66325625956576,0.25650856408476846,-0.2317477573740064,0.44046360594648454,765.7877652022534,403.2625538786457,637.7274995412573,downstairs
4.908180300500835,-0.27220199133490197,0.29645108208983095,9.593299419325897,-1.2412258933608076,0.39604689477990523,-0.0014151251579373502,626.5273945742088,362.35095053531904,536.5545036676544,downstairs
4.958263772954925,-0.08152900758369953,0.11628497793136289,9.335885623931947,-0.9794060371448838,-0.26331866025848777,-0.35943774809169626,737.1679146157352,378.3208486252919,602.4529579133601,downstairs
5.008347245409015,0.2979314428729054,0.14611093823646715,8.848085388405098,0.36821769172834984,-0.08976842186023061,1.1850448424551139,738.8207483853906,391.5881732171959,624.8437347752854,downstairs
5.058430717863105,0.8337179779580918,0.5358246931933002,8.869169548787378,-0.9754725549931295,0.44674598979709057,0.160391899024536,699.2210678481722,369.85532428168045,695.0300259148645,downstairs
5.108514190317195,0.8837157365902681,0.6354163435597462,8.514580007829187,0.03962035018079062,-0.29016430825517653,-0.024561483033386726,778.9116246199749,386.55873525679857,574.7790173743607,downstairs
5.158597662771285,0.9977373083807867,0.26720992062996235,8.470802456664348,-0.31807995347701024,0.7386983361418182,-1.0955430512130666,715.2476661501728,406.93158793515147,595.1367215428068,downstairs
5.208681135225376,0.9046737753708962,0.3005878670837008,9.03236788435992,-1.4589230309402015,0.054918796468385926,-0.8879761465147717,703.7913243435365,427.3365488668263,669.5716002590242,downstairs
5.258764607679466,0.5383740583002127,0.18773847943248037,9.801670385800948,-0.5709692297124258,0.13905790346255892,-1.7683102513776614,749.7465005201501,411.86748017966954,556.7626164166401,downstairs
5.308848080133556,0.4222791585655591,-0.3594514882164979,10.402047195956737,0.8275378810592902,-0.49169543190277615,0.009521098285974063,734.3186964481087,398.46071157626966,621.9584093663999,downstairs
5.358931552587646,0.10809383355075435,-0.22328122593332148,10.747134640398444,-0.10236197221230738,0.26047825241239214,1.2141019930557049,633.1680199459698,353.1109144975946,644.2900857946739,downstairs
5.409015025041736,-0.18450768522464572,-0.49298942821306063,11.338853235908708,0.2762627455652067,0.2743825114078777,1.448291780767886,659.4457362028762,404.02768188344686,656.380579829956,downstairs
5.459098497495827,-0.629094897137376,-0.5570198872487353,11.653985371663762,-0.05514327644904173,0.42507511873637316,0.49230438276599986,625.9976311144195,420.0729903668754,624.7515333518511,downstairs
5.509181969949917,-0.3771743493351647,-0.6800482704527355,11.416803193306249,0.008061299409932316,-0.5472881256936746,-0.6256550889884277,713.3580223046814,370.48864534641626,576.4896320882029,downstairs
5.559265442404007,-0.9624555902445789,-0.7708815706002918,10.971684205219997,1.1691760109418476,0.964469837519479,-0.7422635105495989,656.8746885764931,357.797766624505,591.7110787640636,downstairs
5.609348914858097,-0.750820160074464,-0.21183763999530503,10.041685458829791,0.6018923568650878,0.3690640393067403,0.38739310236632235,725.6962726582797,436.8205945758433,686.1966096461434,downstairs
5.6594323873121875,-0.7653659281221994,-0.3458607073297802,9.359136824031696,0.3787251729494228,0.019816044781524756,0.6650766937375963,638.6060954249119,343.7531162546963,568.952390608515,downstairs
5.709515859766277,-0.3068890529954297,0.1550746354644782,8.980725195519973,0.5433914467932558,0.5423629289086793,-0.08794581262057,564.5036409437804,459.54888972959384,569.0487742225569,downstairs
5.759599332220367,0.211572169255125,0.26756040718546503,8.343036617082186,-0.11672950725578383,-0.37865764160755744,0.01761510474991607,642.8716245055839,334.64130565589846,586.8490305518394,downstairs
5.809682804674457,0.6364607930063477,0.4810084075227293,8.428442695195464,-0.16369385770418843,-0.38947104571093244,-0.1357633156144428,741.9480031770795,373.9577731672029,661.8652487886906,downstairs
5.859766277128548,0.7361369806766113,0.24607232996464212,8.314804757494091,-0.6698217321847941,-0.34450598443894065,-0.17423624976310326,582.2607272426956,377.3799138118664,625.9804512132796,downstairs
5.909849749582638,0.7008541075448919,0.41272837534635987,8.988268611642638,0.3901901794712098,0.19709162763396676,-0.4826261744872243,676.7735075716861,374.9563819815367,655.4852160871511,downstairs
5.959933222036728,0.9850623627634293,0.2624228341835412,9.303199016918464,0.3805715113000319,0.2782301091532153,0.1339093522487613,621.7243559021172,338.6560984371882,629.1899535327597,downstairs
6.010016694490818,0.7699185227289508,-0.07351420527293563,9.579418103438554,0.11269990527536325,0.9373370338282515,0.19912935181314778,675.8116867971718,414.093619871606,639.9805037287415,downstairs
6.060100166944908,-0.027832082098277103,-0.28746535448006133,10.775735130822467,-0.3797636864530925,0.40726314058812385,0.5769366289549399,690.3194642281578,424.73520920960107,646.4812618251128,downstairs
6.110183639398999,-0.1910492200316271,-0.3778284233596652,11.365631027276425,0.7004530582794223,-0.05871217194220737,-0.2542425064490483,742.1675420307072,402.4699480408828,642.6981145694471,downstairs
6.160267111853089,-0.4533173894513008,-0.821917761188637,11.54739493597985,-0.8678422303895207,0.5823223214877782,-0.37647684649662344,760.2558933554576,366.9260201601557,644.4954008207932,downstairs
6.210350584307179,-0.5795735443154366,-0.694613512346963,11.247396588425147,-0.0062722734811533065,-1.2273438408925186,-0.7857282254820096,653.0818049545361,395.8177772641306,580.1945547647001,downstairs
6.260434056761269,-1.2083913772648436,-0.6971419745544889,10.937905697513342,0.1144684589195483,-1.0772595825235838,-0.39131379224385393,693.4891863460834,397.07635438169575,662.0094934073852,downstairs
6.3105175292153595,-0.8022372289432471,0.15907937013682183,10.55811075647455,-0.3315881905381717,0.5055757972570133,0.4222402107282991,656.2664663738522,406.2126885955914,646.9594736308599,downstairs
6.360601001669449,-0.5922515083527532,0.0024496710887434575,9.71721404505679,-0.45767490643813025,-1.0393590497858538,0.5671006740087042,644.8417713789844,359.5918351304308,642.2236855192529,downstairs
6.410684474123539,0.09403350785436722,0.3312593891611286,9.202836516412242,0.3250107550674473,-0.7870668588540622,0.04761551115508294,687.8487840919362,381.0272463483479,601.4858497893952,downstairs
6.460767946577629,0.2375235429978516,0.17139482375419293,8.69750473805173,-0.49973783748745226,-0.34273878147119136,-0.12164801319671502,593.4252651451446,371.9951954566988,669.8889079164123,downstairs
6.510851419031719,0.8571052306298714,0.6462863310899294,8.985065003258411,-0.5502596448473622,-1.2436078314194166,0.6568541306479837,742.2203811426139,388.30989403633475,538.7310326978188,downstairs
6.56093489148581,0.9053670593171863,0.5379593234774049,8.753217730481396,-0.9320808583230258,0.6602001849706662,0.8159678791526641,715.0284999715249,336.18950620300075,661.008971259082,downstairs
6.6110183639399,1.1973564094401945,0.3245336212747966,8.525911419661487,0.3137661731635757,-0.8606447753456977,0.44450041941881646,678.5800448561448,424.79161459348444,599.0393227836759,downstairs
6.66110183639399,0.9031730867921735,0.4716051544137743,8.949454093872589,1.2244171524857657,-0.36443166321480697,0.07840119767562762,681.8824793778168,391.529829808014,639.2443316511906,downstairs
6.71118530884808,0.7824345045528251,-0.14365581964816457,9.982378486910443,0.31020087595217766,-0.34286096902651847,-0.14552598537069591,690.4196219185229,417.1215496584347,639.1024617798994,downstairs
6.761268781302171,0.12754622556842132,-0.03277554532587634,10.74374540864836,-0.5024919184254792,0.29517062848903547,0.7007329749255993,666.8939936117896,348.5811295841309,604.3196359706318,downstairs
6.811352253756261,0.0640407044606905,-0.15366710578124554,11.278205714653467,-0.13084728482491895,0.0015168701853832713,-0.5782715674476424,616.029195110684,451.1107662006865,649.807992380734,downstairs
6.861435726210351,-0.468145878010188,-0.47614922942750254,10.91277007356686,-0.40805482461445486,-1.359001526464597,0.32951406111710974,653.7683509291679,340.3577914924312,622.1416516067675,downstairs
6.911519198664441,-0.578264017107006,-0.6530933839933226,11.307521320844067,0.28687150754630636,0.09063217214779691,-0.5130389116122527,570.1178162509553,436.429354455418,666.7224297719778,downstairs
6.961602671118531,-0.34604043622630015,-0.5716431006593303,11.001011320507478,-0.45870233002206007,0.41699540471069746,-0.6532249456715727,568.9179701792607,413.2705178188503,658.1796215988414,downstairs
7.011686143572621,-0.9638546863029024,-0.17727052850284142,10.214613556614115,0.6387991124500548,0.4393221133351231,0.08819239628107278,676.4350903150765,442.45635331653136,611.9760674011696,downstairs
7.061769616026711,-0.44956569855440803,-0.03626581967591269,9.69117992000851,-0.8732105255407295,-0.644573663629007,-0.8816235106125169,675.4582120092382,312.55991991540594,612.3576256851435,downstairs
7.111853088480801,0.03193231047037988,0.057817659230469165,9.60426975855483,-0.46572720289713465,-0.9095180597571605,0.5038067104390203,651.3144699528967,364.1275430018703,602.5540209247804,downstairs
7.161936560934891,0.7845757703302269,0.21923502762807595,8.613100926976026,0.318733674785841,-0.5409453886463219,-0.25099010464233545,684.4461028039101,376.42982870539436,640.4664685396125,downstairs
7.212020033388982,0.6352217577942545,0.6058703990145662,8.470340626410334,0.6346180024835634,0.8717394591485884,0.7302481646908098,727.3589169991169,436.0602377564543,631.2977110279887,downstairs
7.262103505843072,0.8096225509743769,0.7550277907089045,8.98077849330665,1.1900796869479593,-0.19385761161241244,-0.8297292076755485,579.9287722900378,287.5944419762937,648.9037423054041,downstairs
7.312186978297162,1.052579224065847,0.3295260614038115,8.749777385503656,-1.4029368255820478,-0.2550820971518286,0.6859272204482351,690.9161844799584,350.54224153300805,674.5663456146596,downstairs
7.362270450751252,0.9161300686918884,0.09855329253281109,9.2934634981767,-0.5283112827329451,-0.8755172868879489,-1.3243830434275177,658.4608609245199,364.51081410656633,624.9062255856645,downstairs
7.412353923205343,0.8416046547873364,-0.015915619922786173,9.889384024998305,-0.1982944127858863,-0.5875750541144152,-0.015047994239463187,673.7519669231192,428.3604639009449,592.1178526534218,downstairs
7.462437395659433,0.16566988266202148,-0.06453718874872091,10.395779204919782,-0.670822442706366,0.5122362830460164,-0.11315965731011011,721.8422825048162,405.87963527982424,686.9923183842951,downstairs
7.512520868113523,-0.02321580769528457,-0.37151411146781016,10.877651703046661,-0.8206576915852395,-0.2920231916212225,-0.7584654886540715,693.9253310486904,401.23374970010826,582.0844353306143,downstairs
7.562604340567613,-0.4462309908373496,-0.5142316487365606,11.41347077178237,0.16323451209826131,-0.09972191585461003,-0.4341497859021688,741.4894530380071,347.6443648453004,609.6302741857324,downstairs
7.612687813021703,-0.7180556411332124,-0.5171621488379929,11.190633916143176,-0.6875036805009809,-0.2153465213778001,0.3896394661917827,701.789254349789,352.3972220450187,584.0147568386108,downstairs
7.6627712854757934,-0.9754663452122855,-0.998599163404106,11.203386147345913,-1.0583259816144353,-1.5497938536819882,-0.0666007046915914,710.3267847970376,384.3215033377597,507.790724216836,downstairs
7.712854757929883,-1.1045773339858065,-0.717610189324212,10.450414285460889,-0.8256184411413844,-0.8588319705915569,-0.2927727245041248,824.316035773809,352.1500312429848,650.3620012016626,downstairs
7.762938230383973,-0.4658679155830375,-0.2255937343179552,10.186546754474266,-0.4168837538230302,-0.005616242917131232,-0.023588576640256605,704.8680011468757,376.0638977239014,670.0354565759147,downstairs
7.813021702838063,-0.24895973474880456,-0.36472880967084664,9.573756245980528,0.22646806806225261,-1.6210522687018813,-1.2324547558433017,746.5087202383336,330.844321167684,595.3664185944765,downstairs
7.863105175292154,0.14356023275203633,0.023607134719690392,8.878558634538003,-0.10780557498223224,0.9109368476746905,-0.9416127823667422,665.6676804492049,326.4679168168976,642.2271890186612,downstairs
7.913188647746244,0.10868482580886506,0.7455779215566427,8.565662008511808,0.34759213826916147,-0.1425137414814618,1.4371790637629374,652.2983072776866,417.0444392842833,684.641840964857,downstairs
7.963272120200334,0.799957480708406,0.5020172794770541,8.447319423994708,-0.10633399511236072,-0.1937149344533491,-0.5931145399868879,728.0499348123236,327.4876550143624,598.0554587938639,downstairs
8.013355592654424,0.9427193454535701,0.5921818782762762,8.752677607215153,1.6399033594493735,-0.8628758297114087,-0.3406728080775452,717.3869854934286,316.8891979707091,577.2444680518404,downstairs
8.063439065108515,0.8159046018352571,0.50104314019827,8.745086621644637,0.8246352695436274,-1.342676497931494,-0.8262297905296179,597.2275655544294,443.25428294201606,603.6198539987735,downstairs
8.113522537562604,1.1539286559262507,0.2303642072264387,9.635086125051837,-0.027465998091987055,-0.9301631852050202,-1.07221815790891,704.9270929359418,418.38765296697017,682.8011924222217,downstairs
8.163606010016695,0.6993424909356056,-0.33225621505381886,10.08316913995668,0.604734630851104,0.9840226115706646,-0.5158599104439783,622.3549437435938,382.59292277994797,621.1486544725213,downstairs
8.213689482470786,0.3031914783039343,-0.34990977598911405,10.856597316021853,-0.6394427354251029,0.5271805441069582,-0.09481787063245564,638.8074266903288,303.73128614979026,683.4657060457907,downstairs
8.263772954924875,-0.4172971207984744,-0.5880515582615815,11.053747655706033,1.104806938092426,-0.4217518161650235,-0.2895677361826524,716.084880847259,414.2394438236534,580.2665390010604,downstairs
8.313856427378965,-0.8214711849481157,-0.4086797682798698,11.484954310187977,-0.6109090061631822,-0.3087206222058685,2.318657585900507,668.6137649450255,383.4169110505827,594.5574423140599,downstairs
8.363939899833055,-0.6595088233210143,-0.60480023600467,11.222548307401334,-0.10160306483338002,-0.005712264118108853,0.1444232376230807,731.8365874355735,344.9468614603249,651.6868464217837,downstairs
8.414023372287145,-1.0543203052642165,-0.5295579005127793,10.856652218608097,0.11998011722101594,-0.7005687646982923,0.8011686484194305,590.9628487913772,370.1932771907563,659.3221817223974,downstairs
8.464106844741236,-0.6590215677657807,-0.3569092132572515,10.422592534355589,0.33708139258430003,1.1573401750493684,-1.3625401065217912,671.6011869189778,377.2363662619752,556.775830852866,downstairs
8.514190317195325,-0.5638921490068037,-0.2297022702062405,9.938907732442319,-0.012156675167196264,0.38912826980126697,0.59453891417829,651.0123639226404,389.8746926197419,625.003111675132,downstairs
8.564273789649416,0.20124135789252412,-0.14389622002038663,9.063981049447431,1.0091034623186916,-0.5992956458938912,-0.0014510394969099267,741.3770903305874,387.75790783172755,592.3862396052448,downstairs
8.614357262103505,0.556577465515122,0.35982392226709214,8.841644823979596,0.7458552943654405,0.7123399326446815,1.3027287924232216,696.2771646428282,394.4363064164721,580.6643757245847,downstairs
8.664440734557596,0.5835929986370578,0.6349316960450162,8.569446952564023,0.2577360825569681,-0.4105602295916277,-0.38353652612608036,708.95370009492,390.583638597701,639.3705734876671,downstairs
8.714524207011687,0.998223765963571,0.9117144124173018,8.800561266108359,0.07492522589682035,0.2750557326425384,-0.31053865671594205,676.6914621425493,409.5828132965501,648.1343191240915,downstairs
8.764607679465776,1.1705928049797605,0.7435636952676778,8.783395900896105,0.28926465969596893,-0.973347139088566,-0.11089622618784332,674.4398972979835,321.3571458577475,623.9206311797266,downstairs
8.814691151919867,1.0472442931069696,0.1427212077083768,9.418814816696083,-0.6468198568933651,0.08502883437094674,0.5448009244912358,659.4590310980082,351.8677037678682,696.7360069893589,downstairs
8.864774624373958,0.5213542145875105,0.07303818003081397,9.990550468247589,-0.1752934364412907,-0.5364299675326368,0.08830807991661702,663.1346775672588,363.92277973329874,783.1677708746383,downstairs
8.914858096828047,0.1860204808725064,-0.2496201112147324,10.945231688525388,-1.0141569568964466,-0.4083788902470795,-0.4710177192724487,618.5486030960085,458.56122235039766,629.3873041898474,downstairs
8.964941569282137,-0.33434602444213085,-0.7719286988264751,11.176260574494245,-0.994036455469112,-0.5244276102342145,0.6607214763644113,711.7969356272142,337.824804388568,637.6864892612696,downstairs
9.015025041736227,-0.5403523424051709,-0.2857463971086043,11.43455507049095,0.08419638803977608,-0.27651001119786206,-0.9414860494185954,672.1455534835,414.54837303257733,599.3610178593572,downstairs
9.065108514190317,-0.5618950954733059,-0.8198522149403891,11.11667572001282,0.22105368271844572,0.0691432132395008,-0.5293121755560672,688.561891568807,316.68311277238956,564.3438863600829,downstairs
9.115191986644408,-0.930646779976226,-0.9323343660129566,10.925054633152563,-1.5323449802586535,-0.7961832701237646,0.1374012239312576,606.5493742714267,370.9741174473383,646.6081277265666,downstairs
9.165275459098497,-0.5784235793720928,-0.8671064933230128,10.623747595326872,0.1293051731208533,1.065987197002869,0.2605155704740725,810.4473511024631,413.19895258638286,677.5171867584587,downstairs
9.215358931552588,-0.6176292798333152,-0.10590661976647969,9.497352120541334,-0.3465649515579723,0.4322631998118477,-1.2415513928338704,651.6591241663792,341.723431531908,631.5632370239802,downstairs
9.265442404006677,-0.2902653641350204,0.20015468469737124,8.990155212463716,0.37992858531609175,0.5566695472853532,-0.8655114823512988,632.5550869934427,402.13866502021415,712.4986873049751,downstairs
9.315525876460768,0.0158883024748568,0.14709541768175918,8.957092833957669,0.13500316689813846,-0.5033481765229888,-0.33252639231010844,730.1429481556279,404.2326607078838,699.7646319762198,downstairs
9.365609348914859,0.687678604307422,0.9077123807303513,8.887923819752109,-0.29068081847170896,-1.0133974264619379,-0.22814059036964884,642.3335022239031,377.3576891927274,616.8011243846313,downstairs
9.415692821368948,0.7540245296574349,0.5349177207110041,8.48322302663041,0.5874265709310101,-0.4377373109186435,0.1367387443704835,582.498692264977,391.05299191488376,584.5369603234548,downstairs
9.465776293823039,0.9387889884245384,0.3875451427946115,9.184527449077429,-0.2543453496523194,-0.478192239720704,0.6661334474967433,672.3553303763906,363.0014586962728,559.587400835753,downstairs
9.51585976627713,0.6126430679611817,0.46079094985287333,9.329622312470745,-0.26411505391205603,-1.319136552795074,0.2853206938704345,625.3681764288069,386.68526617477545,578.6123587831255,downstairs
9.565943238731219,0.4745455156519218,0.02867636471612353,10.230871969837429,-0.4075487067603543,-0.19086565360659014,0.1936493821195486,638.4439222338227,378.86269248906535,762.6481973735724,downstairs
9.61602671118531,0.04175583972271367,-0.5854827614679603,10.501300806608548,-0.8639833970398711,0.865704350484827,-0.27091102786813487,641.9043496976934,266.79749126076865,538.7018108907532,downstairs
9.666110183639399,-0.17022313030819597,-0.42528559906224606,10.761373866429995,-0.458284670202001,-0.41828431954068657,-3.816786932622901e-05,715.4432202619779,328.04996036778493,561.0344461784991,downstairs
9.71619365609349,-0.28452705618894597,-0.42345622695584606,11.031659530940328,-0.6299687501465616,-0.7149994531017656,-0.7435677604753694,653.4003845349825,388.95806609109235,621.7960604953365,downstairs
9.76627712854758,-0.6445928540332204,-0.4787370343591541,11.079429221685622,0.12082214266524668,0.7166270156107636,0.0709824914440442,664.6298923324907,374.143699190372,672.8343434277743,downstairs
9.81636060100167,-0.9314157634044827,-0.45177605570421214,11.200509020611385,0.7429138861455109,-0.45330878518716683,1.274579772749227,684.8710848836295,396.3925693405394,647.2068789362286,downstairs
9.86644407345576,-0.8519623225979281,-0.7277324384827204,10.487402090312033,-0.8563892069853124,0.37334956239779027,0.011169604065289771,628.7683949733666,385.58995214397345,622.3873641227505,downstairs
9.91652754590985,-0.4082060600681814,-0.10307511501831595,9.880676652025896,0.2668489710362996,-0.0881956560213269,0.5820715203254941,624.1062100529155,406.3074361886268,588.5269730964249,downstairs
9.96661101836394,0.17128802345593908,0.15239018398407694,9.263347776321115,0.40791991369643443,-0.4753210984907795,0.5743514582818322,629.400123608134,420.03306144379627,595.248563502859,downstairs
10.01669449081803,0.32538715236562005,0.26525647220108484,8.821323893686298,-0.3434449570177559,0.1214761397538672,1.018166367328966,620.0709172451803,365.8907560836666,651.2485759869963,downstairs
10.06677796327212,0.4265765732501453,-0.010986969402474456,8.835878565696326,-0.2075926282007025,0.3954732702156234,-0.3985526330978538,670.0068018150265,401.645818446113,640.370743438468,downstairs
10.11686143572621,0.5619359043286044,0.45321252668719697,8.510857925916781,-0.517345757231803,-0.512258245145394,-0.31736670578475773,589.4564703613607,364.8073511927693,644.8868366335505,downstairs
10.1669449081803,0.9793466003544545,0.6090196982985152,8.446396248641003,-0.4955412876946071,0.8926488625423478,-0.14393688316592843,622.1866730980352,411.0947654672249,555.9762381744379,downstairs
10.21702838063439,0.8155020261340523,0.3891780838800047,9.52190093709668,0.19758916290890519,-1.0210542666725575,0.039352056566215474,665.500347164326,409.283536126773,617.1364793493983,downstairs
10.267111853088482,0.6942305109180862,0.037277263038345054,10.070769194465631,-0.757695292506978,0.13954881374731612,1.3352219906914533,696.9169953912173,363.7767430120107,571.6130518861289,downstairs
10.31719532554257,0.6587893092717496,-0.21077556735230446,10.086806635182436,0.6945783758832689,-0.128671041046685,0.3188246658196293,702.037858005709,312.8757861530297,607.4085264679862,downstairs
10.367278797996661,-0.18334190749968432,-0.2376396216520389,10.701025260685224,-0.262221482509194,0.7424075268979976,-1.2007938391977646,689.6168709202431,455.84279509954195,654.449538969202,downstairs
10.417362270450752,-0.34633600664306513,-0.5100843365704237,10.868854174185367,-0.3306262816309292,-0.4291920397919292,-0.49389446932233644,756.0952903239872,438.9314076303302,670.3107947012542,downstairs
10.467445742904841,-0.9076459975235267,-0.6784739942408773,11.05805891008097,-0.9991582829734991,-0.8010634577909072,-1.056559392245086,590.9331458008155,412.70458008407485,608.6743744523766,downstairs
10.517529215358932,-0.9663629533016843,-0.7241687177188958,10.980731107306088,-1.4324078082706084,-0.25494431596552386,-0.400384270832164,670.3097494825926,379.9102346375944,595.3255302865362,downstairs
10.567612687813021,-0.7566116766031961,-0.4720505035023899,10.771691530095264,-0.022688374514766674,-0.1768731316717561,-0.3226651042880599,714.6214809112568,386.3551999585531,544.8694515458545,downstairs
10.617696160267112,-0.3911516786899209,-0.680239608278068,9.987862829228137,-0.1703510306534211,-0.3171840707510015,0.35373691123379813,672.1266859839986,284.2475179260941,647.9512914468776,downstairs
10.667779632721203,-0.09013431623892505,-0.050317249309373306,9.471941248386784,-0.26893304197415535,-0.7376202164366548,0.40826822812718533,677.6634913669674,401.28751386427297,572.7991496527796,downstairs
10.717863105175292,0.20861627477694822,-0.3919624634769461,8.789768130186125,0.3363774705765685,-0.19883355712180048,-1.0495480442670186,574.5590812263777,362.25764711055723,647.9830751640249,downstairs
10.767946577629383,0.46109554070026454,0.047904347092802946,8.667293985473657,-1.2294627620692633,-0.02792968165970595,1.7165326374769239,649.4993087304982,348.4839158216934,585.8623227607545,downstairs
10.818030050083472,0.48544097223227134,0.22839816144948416,8.576421365033365,-0.1861827401073598,0.3931374953564672,1.0032038987906904,710.5346102844293,305.5975546906477,618.7696878257503,downstairs
10.868113522537563,0.7435664706133956,0.5749821172555019,8.797370365178965,-0.581121813898476,0.6316181721081108,-0.31076596777538,717.9683642135041,347.8988139573581,592.1900665822751,downstairs
10.918196994991654,1.1020682137003932,0.31598732123346596,8.880202252434119,-1.3259405281050163,-0.6195368715322429,-0.4343863296246912,693.4059303004033,391.819717016062,584.8328121433378,downstairs
10.968280467445743,0.7236040591193179,0.27724126772469593,9.630897342984781,-1.465329011606369,-0.24282136572122676,1.3640584822968722,737.5817082693028,424.0782035612286,626.5106465423714,downstairs
11.018363939899833,0.7300881560212462,0.11259151477311122,10.260995508470682,-0.5129652508540309,-0.6336221647161931,0.5142024697972849,698.1964901163002,389.7732833291723,627.4092649719823,downstairs
11.068447412353924,0.2518873041708459,-0.1742338340000509,10.432765386619353,1.4114839947665443,1.2902814084740055,0.5004349675791568,596.4295905239703,392.76501739378364,611.3586803844611,downstairs
11.118530884808013,-0.19543638612615105,-0.26769461925590904,11.35295321779829,1.9243621308871013,1.2261688122462464,-1.0321052454607944,635.8496693403845,450.0494061769343,629.0101600655289,downstairs
11.168614357262104,-0.6111533694482344,-0.511955756224486,11.458528835939791,0.25693401756785705,0.8980539282691515,0.21380470521528838,665.5266139120281,412.8652708971292,631.0757104651417,downstairs
11.218697829716193,-0.5827293402525927,-0.8795721452238066,10.928052655238615,-0.06348148129396029,-0.7176116986938772,0.07369523410010018,656.6186465993222,412.85420238142797,575.8118685034347,downstairs
11.268781302170284,-0.7966416964978967,-0.5577794672605774,10.719689254976268,0.23519439552926014,0.5582447142251151,0.45481298196870634,719.4734383430058,417.6114148913993,624.1616297521052,downstairs
11.318864774624375,-0.7100246895238507,-0.6908701859989452,10.24093575347007,-0.5057013310338447,-0.15817645233006225,0.005731172434476437,653.7497957747722,363.95689682048425,551.9488156005708,downstairs
11.368948247078464,-0.6017799385419289,-0.21793789898632832,9.370363896058144,-0.07923527839644204,1.2818216031730085,0.9841471546340921,668.5868193610017,404.20963254384293,656.711051859266,downstairs
11.419031719532555,0.06769076566850807,0.16847587314718135,9.229825697124244,0.7850040132659152,0.7550700644863272,0.6108974280659671,687.3151008958566,404.0494442992777,632.7973785519932,downstairs
11.469115191986644,0.34288356590270747,0.3005476805639436,9.021722020226514,-0.07689110239769369,0.8589357054784036,0.1796512250436013,697.7146813404946,363.5164433972263,602.8476317493362,downstairs
11.519198664440735,0.5903587421965955,0.5777140100083678,8.556041341040377,-1.1680336599302952,0.6862156347668588,1.2142568873666768,705.6258239310596,376.7151856259746,620.6922489660122,downstairs
11.569282136894826,0.9341432595102739,0.631977283677714,8.490636884028936,-0.3226907617202651,0.14501835272999272,0.649005192780712,634.5440864667763,351.95099631313406,666.1739048166437,downstairs
11.619365609348915,0.908562142154261,0.7311659733739266,8.698052261272476,0.05309868518632816,0.7935357156175158,0.7371841053250583,710.3147002788479,362.87064002836337,646.6679697921879,downstairs
11.669449081803005,0.5953521779980652,0.2666192879304318,9.199718848883082,-0.03823085441403033,-0.07699321299481292,0.5009491179690174,718.1121936421201,429.699263159259,600.2299452296695,downstairs
11.719532554257096,0.5400462026764256,-0.24427759658087306,9.979717702557382,0.1193016248369797,-0.07190167589681581,-0.07726160575919636,608.244783066372,321.6673076192825,557.6125581260223,downstairs
11.769616026711185,0.09619728738155753,0.39230830634922037,10.799561784814458,0.3321226560004686,1.1021825829923027,0.32307274659654484,667.7696254071951,423.68979327014705,580.376867040256,downstairs
11.819699499165276,0.007632600444371321,-0.31888252049474725,11.249702755566428,0.13813382894829618,-0.4050227593347625,0.03547757691617612,641.8273903240744,368.88774984627327,665.4750334306299,downstairs
11.869782971619365,-0.40640659512087157,-0.7765333686279559,11.071668118460726,0.2163318136912336,-0.2931552015658809,-0.005793876152770985,720.5414910458486,380.96910920002495,665.5992891197967,downstairs
11.919866444073456,-1.1405249056243092,-0.9531143106845243,11.107494838913693,0.34501520652410006,-0.395241401702917,0.31457018371184564,652.4414246286473,412.8599844381692,620.7584571153124,downstairs
11.969949916527547,-0.8577070623713507,-0.5441658822010917,10.872305206681945,0.9350915537516743,0.38914865117073566,-0.0038542419321196545,678.672112590334,413.695064677655,603.73030604049,downstairs
12.020033388981636,-0.9428907113003174,-0.5936174621474941,10.3669493235605,-0.46273400407617354,0.09724016386440126,0.24909378796633322,713.8097286542506,368.97527798658757,628.2823033034053,downstairs
12.070116861435727,-0.4552560366014811,-0.34401994430800953,9.80352311764051,-0.06738544370884707,-0.5022378785599528,-1.0795875062365254,553.5935570795582,419.80850400461156,612.5215013742124,downstairs
12.120200333889816,-0.13315630818529056,0.002582498951588713,8.969404624751974,-0.7528763777334316,0.4467765407169901,-0.752515519021894,641.2998197762071,342.57505292120504,524.4167955100079,downstairs
12.170283806343907,0.09736699903329983,0.5051106852857761,8.54228260363866,0.6116355201991699,-0.32741298966805976,1.4560911795230285,543.0881033625783,371.9205564684342,688.597491823735,downstairs
12.220367278797998,0.5429248597906559,0.2674723897583902,8.620469595139621,0.5015658166465521,0.4859249034781151,-0.21048837621651903,667.4309996321025,411.131251914766,636.7874741344533,downstairs
12.270450751252087,0.8764746419916416,0.531788778525488,8.693546905933488,-1.009554148567657,0.3123241327216939,-0.44440461232748363,660.5621130736794,368.0988074578732,521.739280277652,downstairs
12.320534223706177,1.272246021450089,0.7906900923862454,8.715533429188898,-0.35960556624471185,-0.5292478480587307,-1.2068831277509262,609.1415496231546,364.77273109590357,645.1204932347254,downstairs
12.370617696160267,1.615443828693783,0.6250714679376057,9.402761069370051,0.6878194115937852,0.8315019827151792,-0.5448318486377727,665.8161328167705,367.23044162842393,701.3687834703459,downstairs
12.420701168614357,0.41482105163511035,0.41442456137319467,10.211565115965444,-0.20078099476594327,0.32956863228609595,0.08452777649776216,724.4226088850832,381.39520654555423,606.9419455279725,downstairs
12.470784641068448,0.8549063831618832,-0.6438511197281798,10.532294941936115,-1.0601484188891792,-1.4332038667053453,-0.8132544698584906,624.6294105087759,397.5840051605741,618.1087726638342,downstairs
12.520868113522537,-0.006221568218291826,-0.41648365742426907,11.149704366920426,-0.2601636762397933,-0.16683229003775812,-0.7041750021787228,718.5855899983012,422.0806408064853,622.3915627719672,downstairs
12.570951585976628,-0.7187273640079245,-0.7242366136492275,11.077953651425117,-0.3060986257013405,-0.9361891782497926,-0.15596990167281988,706.0312762077644,312.7918112894816,637.0018068733727,downstairs
12.621035058430719,-0.7525831502218966,-0.8466893511855134,10.970202728691584,-0.7595441329878391,-1.1610273105126845,0.08467499041895006,700.6821850365478,419.13270484477,590.2499850405925,downstairs
12.671118530884808,-0.7473375032611285,-0.8242513360984365,11.308922379895822,0.041332438268924944,0.33587927308803567,-0.0475527278065988,579.1264232384989,424.54628459576566,529.4384283081826,downstairs
12.721202003338899,-0.8511527285029427,-0.5690794350816231,10.723734157043513,1.9238989677463132,1.6874088692357199,-0.9568279128462774,695.4015649085244,340.2872784463505,649.9032470660219,downstairs
12.771285475792988,-0.5151887919409368,-0.8119141698681294,9.85891932800532,0.10873391986599824,-1.7095578536666547,-0.48941941670708605,654.7992283065079,401.5897563320558,649.0890196461686,downstairs
12.821368948247079,-0.03686630327751035,-0.024490000493675675,9.253584262160592,0.17841421863091267,-0.6789902761617262,0.05569165080425988,687.0843131715449,398.0239712797694,571.3253749034543,downstairs
12.87145242070117,0.27779221137877835,0.48865478309112637,9.1569318751481,0.16267638566517947,-0.408826464429035,-0.3401698364097823,678.0215420439919,366.93692587548526,569.567083990122,downstairs
12.921535893155259,0.7161233018280305,0.4074271884954444,8.497606213746135,-0.04836609579097453,1.052535907152854,-0.6131789106830212,648.3289026427209,365.3539139438894,679.704366380985,downstairs
12.97161936560935,1.019902398293333,0.7772380965418781,8.545935405848889,0.020775973496739,1.1220264563004099,-1.063375014535907,692.8159166588923,431.8582524184516,629.169418983584,downstairs
13.021702838063439,1.0657005760678353,0.15273052886342714,9.107719537660614,-0.32208837730089734,-0.31471745443232774,0.3733584881568739,629.153457115141,372.0317927823929,647.8500033174071,downstairs
13.07178631051753,1.0872938197689916,0.41445526872013944,9.014992504419144,1.2860412596467845,0.2071701106202557,0.6709778950859187,654.3832904338144,404.0813799564166,607.0805577992172,downstairs
13.12186978297162,0.557033439125856,0.3497100199883375,9.82091724244368,0.7163376788742906,0.37986259558136637,-0.3346244264699313,658.2803373460097,423.59290285640117,590.1522896344777,downstairs
13.17195325542571,0.08172079149361154,0.49918546249153467,10.262748867620761,0.6721967463655691,-0.1564952798234391,0.40052193924209534,756.9213330769732,416.4662300385055,546.3688009066624,downstairs
13.2220367278798,-0.012101392005194653,-0.5523911089056877,11.033075009356814,0.39056407328177006,0.1649275724549771,-0.608415224961616,663.5608520281137,412.0048816013709,568.3488080348961,downstairs
13.272120200333891,-0.31203226204488543,-0.28702326633912645,11.169107766835547,1.0682919551860004,0.4974607533843871,0.10153011951403916,570.2169632455926,369.3100847934503,626.1460537149013,downstairs
13.32220367278798,-0.7822445611368031,-0.8619441860598556,11.263733731964178,1.4657488368337117,0.13887112728660736,-0.0368502364210756,696.6129340800296,366.7573050446771,592.0235870834229,downstairs
13.37228714524207,-0.5413111576305614,-1.0615343402527515,10.817253566225386,-1.2241781660333346,0.34599906028867194,-0.5154878075761202,610.9948150866331,328.97637934115386,615.0220164270522,downstairs
13.42237061769616,-0.6693719245871421,-0.2564895873043051,10.995288016615994,-1.0343983066103934,0.1703589682621343,0.41694295624109057,656.639725198493,369.4552533980325,575.2480811817204,downstairs
13.47245409015025,-0.4908256495437438,-0.512350676311176,9.856602483068443,0.01616582843828825,0.9742553764143063,0.3870574373215804,699.9830213317817,358.375489792155,584.032017537701,downstairs
13.522537562604342,-0.14487219049137617,-0.009183653178067248,9.396942751998038,-1.2596693031956325,-0.369123417594717,-0.8575444381826143,675.5814285867539,315.13865155424713,665.2954304695,downstairs
13.57262103505843,-0.290855955188561,0.04829661576075525,8.980983845820294,-1.2075830490721546,-0.2346690302790649,0.2954068600445475,660.1887863145246,344.94109406845206,588.7877203128976,downstairs
13.622704507512521,0.5459351733923216,0.2875307568115526,8.549960398079651,-1.103083665866673,-0.3270813670186219,-0.02297751488707264,708.9260842695733,389.9085283788481,641.2878066639533,downstairs
13.67278797996661,0.41151125533134564,0.5342175441088408,8.605175968139765,0.05849703957514148,-0.3109176698919483,-0.9696385942157609,604.1082749070076,384.7921035850163,623.174356625564,downstairs
13.722871452420701,0.9923084311375325,0.5790417293871148,8.555592634826224,-1.3958422768974463,-0.14974287290658247,0.8774427897990467,759.206879153472,376.24965541570344,571.433374353775,downstairs
13.772954924874792,0.9019274551426831,0.4836904918275727,8.912620700039044,0.5147287829333242,0.5084844941677336,-0.01578958287134782,645.0974807903168,405.9619895318526,571.5671995214866,downstairs
13.823038397328881,1.1484192478758035,0.12579118194596212,9.559937727054676,-0.34005631379307394,0.2197703000068015,-0.2883288215846275,663.8016412159918,302.81552723707426,648.4872093343316,downstairs
13.873121869782972,0.38032932969617955,-0.18403814489344977,10.042810106537054,-0.2943182490574652,0.2751803047387231,0.3071419964036892,745.9126390991643,336.5349950218703,568.1011611670546,downstairs
13.923205342237061,0.572982317544523,-0.3599664611507048,10.863294334761765,0.5044227431811994,-0.2691180185317381,0.5779590371460334,669.9947813768856,436.1644554978359,581.1889121579775,downstairs
13.973288814691152,-0.253386818137568,-0.38860730466095483,11.221748117331465,-1.0976586350187982,0.017649730499774478,-0.44849810428366504,671.3022481296092,350.41282535393697,608.693304666646,downstairs
14.023372287145243,-0.6253618868706263,-0.5062095122231751,11.634150450573717,0.4645973290684072,-0.9494929940366019,1.5042938402352763,683.3838611472127,436.0390022733518,655.7856748111514,downstairs
14.073455759599332,-0.6247522630964027,-0.3272205875105976,11.162265403447543,0.8549819319778704,0.6832164278610543,0.429044190325768,730.186702130317,398.5959663509615,623.0574688477476,downstairs
14.123539232053423,-0.9707806966895977,-0.9832340439643064,10.839835119836586,0.27454867040523606,-0.18539131790598165,0.06849033489050604,677.2950223077753,464.49609302313286,654.8217906105202,downstairs
14.173622704507514,-0.4273811544586526,-0.6097883176010146,10.45178583794524,-0.31855198052226724,-0.8885287668008052,0.06370789460156465,626.9416049101671,407.890711634389,654.3919790039691,downstairs
14.223706176961603,-0.2633531042507942,-0.11546855948954292,9.420667538249106,-0.8685790184615823,-0.43271250634885766,1.8164875510749543,640.105375239853,343.93117793520753,513.3901804211096,downstairs
14.273789649415694,-0.13204879034381017,0.03611532283410156,8.729654054161402,0.4422630147277426,-0.26332673928215905,1.415367358258347,674.2550107083053,404.1646418510918,568.0245639700252,downstairs
14.323873121869783,0.5777312126597272,0.33645780811078096,8.82670869017208,0.2014324326554743,1.3915053735053993,0.6665737337175117,649.7216602234071,417.13917574388165,531.3678827475137,downstairs
14.373956594323873,0.5333154288011515,0.3644119332209295,8.268764371848361,0.17261323107757726,-1.1908954471680848,-0.600555417128516,714.9984270689287,370.3825808351145,592.6990587867183,downstairs
14.424040066777964,0.8917891785565952,0.511917338472317,8.521032243288237,-0.22970683851109114,0.8577795425980727,1.8418234380817586,649.2969467293775,421.9606113809882,661.4063574402171,downstairs
14.474123539232053,1.0917242502349345,0.2116914684156519,9.10063695211514,0.37805535355080694,0.17672817751091033,0.06807129174404526,696.6699560305831,353.2677497414981,621.8860104017964,downstairs
14.524207011686144,0.9564990572475791,0.3438229548670411,9.655935144657091,0.472524974183756,0.75646796903762,-0.6615630256873037,688.0030949358469,385.9825521864332,634.5832724577426,downstairs
14.574290484140233,0.4983241454198078,0.11689223622907208,10.201177839120687,-0.6423510763364932,-0.27688691831730505,-0.30430306528910517,657.6331302919776,379.0888792378535,678.0494553425186,downstairs
14.624373956594324,0.2701395877449872,-0.18460442178764597,10.76001860590637,1.1423412335753371,-0.7471982339440709,-0.9984845169419928,673.6574393619055,448.1521362907432,707.176170605307,downstairs
14.674457429048415,-0.32058420727038245,-0.48698322326809673,10.721677600845346,0.8452388171564102,0.34992492451908075,-0.2212670966539124,625.1100097822414,329.5088634571635,603.4210686034845,downstairs
14.724540901502504,-0.12505040046704385,-0.8259518395792658,11.605161645313633,0.5819272152501992,-0.4323918051883162,0.14159783724623407,662.7622949004616,395.3063794216873,586.2661672090067,downstairs
14.774624373956595,-0.5098984584578253,-0.5973420011589021,11.008694999761756,0.19705731146864944,0.8306847279429912,1.0050114664078142,656.9699523384913,375.55570824606536,556.2002120210357,downstairs
14.824707846410686,-1.3092463370502498,-0.5055727724512615,10.549590582293186,-0.5296518403444769,0.5382835417843528,-0.0722205489398798,726.7946306700659,382.75407429842346,557.5412286616286,downstairs
14.874791318864775,-0.8359889651575795,-0.2707546795054301,10.742573802114958,-0.17384166725318925,0.2978518140319867,0.1667236702480985,715.6451522335137,372.90340935102256,554.9610804243083,downstairs
14.924874791318866,-0.18148514972274032,0.2374792111971541,9.914664976514322,-0.21449515121878018,1.0123805657614087,0.29944280033198506,720.8868471037217,282.3655230799567,652.7484508044062,downstairs
14.974958263772955,-0.13670674566312296,-0.09404015169096445,9.082513946787307,-0.0763427264347658,-0.3324732430494817,1.2436042120118749,600.2671014911061,451.29085173334613,656.4638294980748,downstairs
15.025041736227045,0.33250320266568195,0.34780054660979,8.726535513097126,0.5996330899213256,0.11716498714812279,0.2710225931122352,736.570793585394,419.0535031732209,648.9093345322194,downstairs
15.075125208681136,0.7148609570711106,0.7023489291702889,8.365502069561575,0.49070671995543347,0.7667715021419861,-0.36465434260044793,716.5169591620283,406.30807824276144,638.6915693773301,downstairs
15.125208681135225,0.6149695588922849,0.28781522924513425,8.828937726000477,-0.449668030876589,-0.6225437579760407,0.7768104423102337,748.3194858272435,376.26126755852937,634.2575778941927,downstairs
15.175292153589316,1.2078843303113576,0.5396069783777904,9.228349866963594,-0.07319847981302445,-0.30658453953332937,-0.14699437976129148,730.072573095673,366.7421689563984,551.3188539997833,downstairs
15.225375626043405,0.8986609629239188,0.9675918908043841,9.415049718106783,-1.9438316339157422,0.4946284509489367,-0.17498338302082256,662.5923920352953,357.87231527728545,629.1703544450946,downstairs
15.275459098497496,0.6334476154417867,0.019642126125452353,9.904059930012124,1.198240439726525,-0.5576735747793538,-0.3307973084364322,737.1570486626077,404.5977793830109,586.4201999448621,downstairs
15.325542570951587,0.6477727334639117,-0.23957974522565206,10.78058626707009,1.2290430367555412,0.28661684360473416,0.6233712426332855,691.6591993855768,327.0113047853754,677.449285545285,downstairs
15.375626043405676,0.12058860623524516,-0.6065566212978808,10.818776040438227,-0.02179912264604779,0.2150291662946992,-0.2794734509562061,671.2286739317536,396.14890458960394,609.9508200719886,downstairs
15.425709515859767,-0.3109798434296773,-0.21200006392819393,11.007709538396309,-1.181512535289074,-0.993410108356426,-0.030893636739125128,670.8367417167444,375.44823733349216,594.968193064944,downstairs
15.475792988313858,-0.4450942019079966,-0.43151652161392623,11.417504955104501,-0.40775142159955935,-0.06685798651780853,-0.6590773923440253,723.824040590104,396.40367987374304,590.539969562556,downstairs
15.525876460767947,-0.5163409184358099,-0.5499957233088746,11.040515328892145,0.9995448987369261,1.0797438746396006,-0.22161675243951273,774.7685687423134,368.0517563749889,643.6054338336564,downstairs
15.575959933222038,-1.0993811774742894,-0.3583814244282428,10.60267562691422,-0.49733398464134965,-1.3345132021759851,-0.5603051421737048,657.847012139642,363.10356222579446,581.4044932515679,downstairs
15.626043405676127,-0.49611139403020527,-0.05133621068561672,10.074804831968606,-0.8846384998251241,0.11052836265088774,-0.9305963575723821,715.9670162846758,330.88245918677654,573.6419637100786,downstairs
15.676126878130217,-0.22972964098339427,0.1841121351860442,9.335598918181065,0.658294284078754,0.3158089207557009,0.09409871313368343,754.7253816751237,357.38241226497126,579.9479670063797,downstairs
15.726210350584308,-0.033117720073588056,0.1502800711944739,8.99353701095222,-0.013925937300545699,-0.7870840211808401,-0.28163180322450776,688.4081428781421,427.9999238107755,602.4257810547191,downstairs
15.776293823038397,0.49224731709813435,0.1963095928354906,8.939798368978737,-0.3480118197696503,-0.5883188921117016,0.06530073466430239,727.201617863114,385.8801078278385,613.3867677292475,downstairs
15.826377295492488,0.5325046971695652,0.6573724458244188,8.60569392745638,-0.9492363049771527,-0.19007765152580508,0.9305328082040825,680.9459325392816,385.07258914565057,598.5207386920347,downstairs
15.876460767946577,0.7876391889498685,0.3166040485125953,8.809202229616664,0.5471043701733328,-0.9834522793974769,0.6311143585090776,612.6433290761083,319.53919095267196,620.6630365629943,downstairs
15.926544240400668,1.1724563295436483,0.6149381932706439,9.467847885580303,0.5612453607083705,1.1791868955344567,0.789440179737835,684.3968159197175,350.37083933865864,654.6487833998879,downstairs
15.976627712854759,1.0256567731571902,0.589328499640376,9.562073934659395,-0.1970994158717894,-1.8602953603286285,0.8167564788050806,795.3162041453579,364.89104614165274,603.5912854939237,downstairs
16.026711185308848,0.48025612948167035,0.03397585746986985,10.358131989190538,1.096673978631012,0.12865291575653431,-0.38141848578639265,718.7937797907186,361.07224851716416,659.6929518887226,downstairs
16.07679465776294,0.3357882722306468,-0.49413442540547353,10.805858768636975,1.887812783489051,-0.016211283199907483,0.4526099448456333,637.2739005140794,343.9840734876562,640.5317730459747,downstairs
16.12687813021703,-0.4362538643856992,-0.33471339654882143,11.378247933510387,0.31617049680534676,0.15993260680920082,-0.7032249925261388,614.3434260379593,325.17805132595595,638.7616859305531,downstairs
16.17696160267112,-0.45758636944242,-0.6285569153411079,11.278773560752624,-0.3750275867952545,-0.2247102899753784,-1.2211338897521018,690.6085143860994,399.9141590571505,618.7280783523347,downstairs
16.227045075125208,-1.0651991572839716,-0.742121320004306,10.939049007734285,-0.7130706007598472,0.07862140551642442,0.2639502139684698,720.1526202381662,427.2086320400442,587.5895218617309,downstairs
16.2771285475793,-0.8129260685815572,-0.8274274565556132,10.839352635591839,0.5252263135417529,-1.186412377260552,1.4803719912754476,638.1664337584883,392.0111011496273,590.1916379744854,downstairs
16.32721202003339,-0.7965845660191678,-0.2902338945589579,10.300648319742093,-0.9673333601356593,0.7007986806745494,-0.0014103395429153236,622.2509190099144,406.6517913388232,677.1155650179606,downstairs
16.37729549248748,-0.3617759029583371,-0.3965448858717799,9.694232634158094,-0.5562935238389534,-0.18632407121342565,0.26445614395101685,652.8109707155495,397.07109868412283,611.5602797050965,downstairs
16.42737896494157,0.09181878918030649,-0.2192892364669208,9.053872929790042,-1.0760023506438672,-0.4726040537776725,1.6816589665059654,669.4841631311994,414.6719171328262,612.8507097587941,downstairs
16.47746243739566,0.7208550788424058,0.2444213720820539,8.489007976823933,-0.3884104814711694,-0.5416231780779781,-0.6324656275191871,721.9241230084494,347.6043004066056,596.1827619380715,downstairs
16.52754590984975,0.8260476653009052,0.5601162081979358,8.421759639743742,0.2404148049244834,-0.0693710931791504,-0.15416761892236516,665.6344744553135,379.95005147142484,644.2830202577048,downstairs
16.57762938230384,0.9853979766587456,0.3851323597643856,8.380274529061847,0.7720773623124654,0.7676379920190813,0.6058630550523428,654.600754998846,350.73826926131187,619.466658726929,downstairs
16.62771285475793,1.1545345758759256,0.5677167951209523,9.22561431242924,-0.5071047683091844,-0.4592103219266072,-0.3875320714902028,742.7288460536827,374.79344844041464,588.035724351317,downstairs
16.67779632721202,0.6620057907777254,0.15213411719610323,9.765175863928746,0.31434374003534327,-0.7551124665027305,0.9971378253710625,625.0366672534819,371.1047754960163,641.6851843980081,downstairs
16.72787979966611,0.14090469783110687,-0.08230943242521549,10.018089544103855,1.3921494715984268,-0.2602437756698324,-0.648106873436987,725.2212906162797,386.51089286500303,647.6746303932052,downstairs
16.7779632721202,0.0870686428254798,-0.43652539614975,11.104289513693496,-0.20605039653176793,-0.2895549832709834,-0.4070795829791222,703.3350863079754,378.84180630646415,686.8372653460865,downstairs
16.82804674457429,-0.2790575033128648,-0.7841260849998537,10.947438823110573,-1.5096530631020082,-0.11751933430641313,0.41569985279120364,696.8245885173679,333.19221634156605,658.6057877329154,downstairs
16.87813021702838,-0.8245686067111998,-0.9455867239480016,11.40451571690842,0.8608720309397503,0.5541294374538479,0.2814045658430846,723.5517114115509,353.11230324618776,546.6634875561772,downstairs
16.928213689482472,-0.9407218507668272,-0.5351655039238623,11.205526378843665,0.1812049112848526,0.17497357217107276,-0.16330959814539517,631.7415992570366,406.7697556333131,568.3688822390639,downstairs
16.97829716193656,-0.9392037596461983,-0.8266416673047943,11.379393638831102,0.6606865496073181,-0.11674284878152988,1.3177876786243623,582.1844752756299,375.39442095553136,632.6049357862911,downstairs
17.02838063439065,-0.6119781919667571,-0.6189829289071087,10.069929462928279,0.05603313371252394,-0.5114229156753898,0.33516728924468003,685.6308454494498,383.9445452274021,662.2693292790126,downstairs
17.07846410684474,-0.3241332620274274,-0.20155000760513164,9.675730829371684,-0.30732837229607424,1.1716350600476655,0.26935894524687004,695.6264755289828,367.1417808165143,600.341585607038,downstairs
17.128547579298832,0.07964230635287142,0.23002037609096498,9.497282462898893,-0.2022103679141341,1.0411945829314555,0.1113595580518093,622.126792346121,436.2753538039249,589.5017208125114,downstairs
17.178631051752923,0.41176367549698867,0.5444097503084631,8.469247941100543,-0.8596348663454231,0.1623636743845202,-0.6829142283583595,635.9435375469684,432.53672564164617,620.756102287063,downstairs
17.22871452420701,1.0093261543329932,0.8517301263486687,8.462986827846875,-0.36549685473560206,-1.3499144459610597,0.18705376570436907,661.8747072465386,386.1057420477826,593.5804675842336,downstairs
17.2787979966611,0.7621385581520116,0.405904458528018,8.80143945070283,0.23503037993189257,0.6803013534023334,-0.26638874416577973,682.8158982772056,374.97695247441993,703.1080243981891,downstairs
17.328881469115192,0.9409326503529587,0.4815456069091432,8.964928542338102,-0.33787652661334233,0.23216383679166736,-0.6913616094257194,702.3459340758941,374.4246565955666,604.682294970439,downstairs
17.378964941569283,0.7595743294762088,0.4761874820670337,9.607544383026296,0.3217167879350462,-0.1662473177207427,0.1037501575031555,643.0831057343205,449.141886452618,580.146638606821,downstairs
17.429048414023374,0.5335229393487733,-0.43134576918867235,9.843420028109277,-1.2139816729673143,-0.5420795869214522,-0.7481917073453908,712.3787332151986,361.57094756195323,660.0421766358508,downstairs
17.479131886477465,0.35101309767106115,-0.15889776932202537,10.37146201971194,0.2652446923379362,-0.21448211048193852,-0.4992113859802506,663.9703300530797,403.4436289397218,593.3960572962842,downstairs
17.529215358931552,-0.11513554285467877,-0.21970584223551115,11.195251183948555,0.4902020391779566,-0.23677689165268123,-0.2068858492622676,591.4854026197922,428.24508200498883,660.6513556332361,downstairs
17.579298831385643,-0.42975875091927435,-0.27673732334747075,11.26131659374419,-0.335075670603836,-1.0306504300868022,-0.33122620318087187,583.758512033565,367.8619983860837,707.3911496582616,downstairs
17.629382303839733,-0.9518724236376125,-0.4430484466070778,11.465167556459974,-0.4991603143528908,-0.031259027573730974,0.8966866655707868,664.6852310441953,322.5606755879228,645.8161623618217,downstairs
17.679465776293824,-0.8375117521556228,-0.7208411685748599,11.095240041680196,0.0006101239454316138,-1.1571317034490007,0.2929823123126421,627.1791423619873,336.611652283329,632.6090461499136,downstairs
17.729549248747915,-0.5551511272195541,-0.15513673492335145,10.383613321674295,-0.01759207525757714,-0.08377784327400885,-0.6949438608040747,656.6974051722141,384.54690125896656,605.3303913501444,downstairs
17.779632721202002,-0.7114731147801067,-0.4794258021858148,9.868344919867855,-0.5442661860202873,-0.2263784604247031,-0.6454995021344417,762.0417924760077,460.00012513707554,604.1750968890971,downstairs
17.829716193656093,-0.017528208559030783,0.04296204350768021,9.315126599742698,0.23771414323350779,0.5724507235963895,-0.24174264135253143,744.953398788265,351.06436296447737,573.7633714211572,downstairs
17.879799666110184,0.2532201578628792,0.15819580153550444,8.896782955741722,-0.3014534032745781,-0.11717093408652451,0.7226548193959019,686.887601871574,324.8684345546606,538.2009569234772,downstairs
17.929883138564275,0.9502796347821209,0.4528755417056019,8.677744338571776,-0.027118360847583924,-0.41001775718331956,-0.3546688250038567,713.5460626611313,432.7610946094434,658.2510466739764,downstairs
17.979966611018366,0.6683919153663079,0.6628837922201649,8.602392408341041,0.5186151607887604,-0.7064393558107349,-1.1976332386390156,787.3417796326175,377.88221568115137,585.7053311587692,downstairs
18.030050083472453,1.143134330794167,0.5653341056475008,8.765103824369088,-0.026983655025298252,-0.961548922545377,0.23289331332433105,698.4818796773758,437.5003159844956,613.7181302074995,downstairs
18.080133555926544,0.9325974084985177,0.29994658566560783,9.390525276869713,-0.19863972232934868,-0.37703649300172665,0.585243751839775,691.7027715524443,354.4542432810887,646.799018918325,downstairs
18.130217028380635,0.4211299952853371,0.03988082928167186,9.820577402293072,0.2532803027041659,1.1884665627785438,-0.20969638406628505,709.0322453604732,405.0664501775245,598.6924655086045,downstairs
18.180300500834726,0.42449805668720847,-0.046974020785555404,10.639832674575178,0.6364467997559109,0.20849369317174743,-0.4063100676655046,715.1697312504253,392.3931860430261,579.4447001562226,downstairs
18.230383973288816,-0.3599367674474233,-0.8379712527698211,11.204693505322572,-1.1246974776627774,0.9352825829439421,0.2624024490446334,726.8385663119316,356.30254600832444,618.5455878572549,downstairs
18.280467445742904,-0.33257042258401054,-0.30420873586628333,11.06366674564819,1.073351389836367,0.10615711464086942,-0.15157155643093345,661.6161815167582,442.895868726913,610.7355104257505,downstairs
18.330550918196995,-0.9764890314067837,-0.7410670529242827,11.182342356745421,0.44935811424009325,-0.3178269546248789,0.24523360962747173,674.7518404116745,366.27229308663726,670.4958746984104,downstairs
18.380634390651085,-0.7549043456712987,-0.7600080094306985,11.109394592789169,0.27366925081049914,0.0673157322548852,0.19404606902979063,672.8930692392238,374.0412680268047,609.8070325393087,downstairs
18.430717863105176,-0.6181969529282499,-0.5508204960305432,10.54602835104149,0.6933570826305473,0.0683627287119186,-0.11830223284055268,638.686439612877,366.3581709896363,638.5036672829219,downstairs
18.480801335559267,-0.6628723688755155,-0.34412857354254045,10.002972763069321,0.5449499681418293,0.07452046272674591,0.9412100499487203,717.6796144169692,389.094197001726,623.3536200199956,downstairs
18.530884808013354,-0.0230144541670277,-0.22520893750843435,9.360137252220696,-0.3167031209165781,-1.118770968623893,0.5899921709752513,662.0058486654528,408.61896735138083,629.8115664867366,downstairs
18.580968280467445,0.414068700229607,0.16056260890118998,8.912128769999606,0.09592637007592197,-0.48021270785213827,0.7511342347440686,679.128015611501,364.1932552114299,575.5562898012066,downstairs
18.631051752921536,0.3682805709166274,0.1048858150488145,8.572469697389426,-0.06789823231953132,-0.7944006759710174,-0.8698182131949395,716.0934542140226,375.8214537910202,655.8677364940465,downstairs
18.681135225375627,0.7947446106115325,0.6094548509815978,8.705404292556919,-0.17043494304628998,-0.8780778580720914,-0.1759564872999558,685.5409729196983,372.99863826619446,567.5983710756052,downstairs
18.731218697829718,0.8993580911167603,0.035009911915366954,8.49825313704744,0.9963054781392714,-1.296781831980834,1.0636749740863345,705.5847492711475,374.44374603940935,602.6632821954993,downstairs
18.781302170283805,0.970967682447046,0.8501085100925252,9.18899538759569,0.3546196156017964,0.08962304212137699,0.7138951591235527,664.1683050943695,399.76657338786214,608.9817998414943,downstairs
18.831385642737896,1.1589761615308225,-0.0006628473958261438,9.562115775657881,0.493506605113939,0.28753237090315037,0.45446490402418255,700.6230849858998,409.8298850441097,609.9471324830217,downstairs
18.881469115191987,0.28544017694238943,0.06682985080515114,10.286659098991842,1.00647859896249,-0.5415769935141221,-0.1766153128667637,746.2059089101654,422.909681987133,620.4084429267177,downstairs
18.931552587646078,0.07994659684061076,-0.1739120778617684,11.056997653860126,-0.1760611633646505,0.6682809845774857,0.7636040952982819,677.043424826865,424.37460461655667,604.7170703600674,downstairs
18.98163606010017,-0.47821520030500225,-0.49172077558041627,11.407817491128748,1.0848789930189735,0.576359640522699,0.5614675262670522,711.6562368271428,424.6736574765891,601.7842295807002,downstairs
19.03171953255426,-0.4402494986191339,-0.7141036870392901,11.239124232714085,0.10772659707793046,-1.7460097651491782,1.2365180212879745,621.1056778487484,394.5515884172924,683.8242291572161,downstairs
19.081803005008346,-0.6165586496490599,-0.5921567693645053,11.381469125872595,-0.2802641354586861,1.549385299121018,0.044170339248633006,598.8833732517138,404.3881336873234,596.5232597456747,downstairs
19.131886477462437,-0.7471272058805759,-0.42545442452723653,10.75035639608481,0.10657798673220406,-0.26972772572853426,0.3494974494174994,597.3231821660165,371.5745118827695,629.3619493279459,downstairs
19.181969949916528,-0.39621229420315435,-0.09467413246850764,10.128993700132938,0.7048062509088882,-2.2804109748165673,1.1874281308617671,669.1153241513497,423.20226490495287,619.5325245371747,downstairs
19.23205342237062,-0.12197121818731062,-0.16131954491232245,9.410019991561537,-1.0159616617632006,-0.7377628714731697,2.29583450739742,749.2773752841208,363.0764556051849,599.5498155528313,downstairs
19.28213689482471,0.04400351573447498,-0.1203687063079493,9.062180006192197,0.3832831351365448,0.2502535529845986,-1.0636483572174924,705.2006468036506,377.2287348567168,610.4302552002574,downstairs
19.332220367278797,0.5030785100878548,0.4472888914621425,8.92308692065369,-0.0813710521802675,-0.5071303175648297,-0.17488427759972958,695.3684340554911,289.3032743025289,629.9202836852667,downstairs
19.382303839732888,0.5161278419454621,0.49028094263300964,8.946512840478949,0.11801060412817689,0.5869627505652573,1.017673583014733,668.5318439315589,355.63628441785636,590.8460175583512,downstairs
19.43238731218698,0.5554072200943981,0.7574417953890344,8.667144825227618,-0.9760939354813888,-0.3717023861183492,-0.8734861680831028,752.303702332478,434.761944877013,576.8887546479016,downstairs
19.48247078464107,0.9578535404852216,0.4822871128668202,8.872264732004664,-0.07091577740977027,-0.29890315187824573,-0.34157755172006715,710.2803255443116,422.8491105510895,551.3978854733457,downstairs
19.53255425709516,0.516046697097548,0.20714613588062442,9.441668384942925,-0.7636553028519883,0.3331572692583659,0.3157962927524759,711.9344646371533,405.327120596324,596.275987721022,downstairs
19.582637729549248,0.5274498232176024,0.15290790719520198,10.280894506048046,-0.497302063556799,-0.349159286519181,-1.3830230289766783,733.5786771999011,402.6021550303799,606.8683514397605,downstairs
19.63272120200334,0.22026087132138,-0.09581899191010157,10.568954144146481,-0.2757364602525831,-0.35129366993886063,-0.058001945185920466,711.1320476933827,342.5551403544881,614.4808037493503,downstairs
19.68280467445743,-0.3796485268722123,-0.30201039396995644,11.087000591125527,-0.0886084527644056,-0.6161334129708502,0.018260811117293087,706.3533422238412,453.10810908924213,713.3267239640717,downstairs
19.73288814691152,-0.7775593946154037,-0.688361877597546,11.468114774645343,1.024251918395783,0.6188482380811244,0.5239255892908293,724.6921310223513,374.94782344817185,601.5760213514479,downstairs
19.78297161936561,-1.3726013266583275,-0.6776296912132995,11.477070111162224,0.19160223243440633,0.23025521816725789,0.15330958036952044,683.6764899785726,357.03578103525,588.9120826123697,downstairs
19.8330550918197,-0.6878107037126635,-0.4919085897918504,10.715387765977074,-0.13218837160605282,-0.9331345471877328,-0.16298525662126048,698.3514988311873,344.86219561657845,584.9846602721465,downstairs
19.88313856427379,-0.659490061272629,-0.5934558730357313,10.018145589315465,-0.5145694663981925,-0.2103484609800268,-0.4978717776581688,658.308704119945,386.4215492044593,563.5535348311068,downstairs
19.93322203672788,-0.2999314624121688,0.08450910127505987,9.851270438054634,-0.5707824809894411,0.10371755549885252,-0.6944152231441703,690.5480075433841,470.2740037103032,607.313650934453,downstairs
19.98330550918197,-0.010071587938354137,0.32401203203580314,9.049682744621377,-0.19092865580277923,0.9834814984456239,0.5546331863252989,707.5477950998161,393.8999507844935,532.8090311563753,downstairs
20.03338898163606,0.39724346159628143,0.5028659019239825,8.748800035046353,-0.5464489460392447,-0.3577566981373002,0.48302003603439797,683.0976838836862,336.3913478923888,640.1094902513693,downstairs
20.08347245409015,0.8488704134218529,0.4962049489462545,8.2154958032675,0.9877640943874593,-0.766119341484238,0.2553529010556653,604.0381793421257,399.13149120907997,588.2123919503838,downstairs
20.13355592654424,1.0100189622624893,0.4351549934987072,8.278328149495804,0.713794503823269,-0.419858076892772,0.6588856455540121,686.9562942657351,414.0014459495139,528.347653283316,downstairs
20.18363939899833,1.137572764383306,0.7630762523247658,9.17314801687235,1.1775487987206554,1.0171296739358975,1.2444636516656562,747.896418361471,384.784764076619,607.1559663301939,downstairs
20.23372287145242,0.8373265469275982,0.27019194338694325,9.802119553609693,-0.21526987615330215,0.22877463402750728,-0.39698875180543386,618.8766602497498,361.2493978732293,637.9360635974213,downstairs
20.283806343906512,0.6049261991143025,0.045164585836958634,10.267054146871864,-0.7885099517800871,-1.8852785163540278,-0.10262351311397072,679.4520026382022,425.1907317201949,626.9722427483638,downstairs
20.3338898163606,0.533237156735423,-0.12652754567686494,10.403350973951552,1.611175472106297,0.9268069292071223,-0.2704340149620582,717.2843057202639,402.0662141880975,628.6125058080103,downstairs
20.38397328881469,-0.29458814927473725,-0.2179022827256125,10.972353233904387,-0.9516616914825734,-0.6230659999536263,0.37975915694438456,613.6792005110935,389.545716931443,652.9244155861031,downstairs
20.43405676126878,-0.25266019197404077,-1.1313068294526725,11.525706632271177,-0.4414580600264139,-1.0084189194832502,-1.5578561831170201,674.433819528796,292.89077590819744,579.6650193939317,downstairs
20.484140233722872,-0.9013244096323444,-0.8308285114014655,11.202465588010424,-1.0305217552300414,1.1832318188297344,-1.0284213576748056,714.8952093262385,390.7817894364693,655.7405632725303,downstairs
20.534223706176963,-0.8884486969205639,-0.762963485982358,11.270316486006863,0.9409358534589525,-0.5900735600098732,-0.3605170189738551,694.7956437402761,389.9538096473067,587.9329120820137,downstairs
20.584307178631054,-0.8206426972111697,-0.7174479556108175,10.595336497277252,-1.3621013117769747,-0.26600457689408474,0.7934086734430824,664.2732312108614,332.77459451952285,641.9385161832506,downstairs
20.63439065108514,-0.5819009207195559,-0.32996042752177945,9.955760323654921,-0.8696600430015183,0.44306341568255536,-1.5678588177256183,699.5782553417336,384.75525835702626,601.9207120508177,downstairs
20.684474123539232,-0.10695802262184635,0.41370913502324164,9.386494886294317,0.08026602833725843,0.19938977076932007,-0.29239242802004994,787.2135978697235,370.20135934848435,620.1563071503405,downstairs
20.734557595993323,0.23566796269983697,0.08349736045993017,8.691887645897134,0.40901195137441443,0.7616299223948914,1.0605526001417833,628.2279257461423,386.37426887949306,639.5326219908491,downstairs
20.784641068447414,0.5063971142062922,0.7692832085243513,8.35272773049488,0.4740959862653036,-0.8794941625556287,0.2570320374011574,689.7512826676466,334.2445984118883,635.4516810190012,downstairs
20.834724540901504,0.8890312866409358,0.6777332547994146,8.676273743125492,0.4800013491113574,-0.35543545989114983,0.07934367903777474,548.0904556470931,339.2427045955712,604.4646692977167,downstairs
20.884808013355592,0.8583533948803289,0.6482540103061538,9.026196011216342,-2.4589079118131427,1.6857889967324013,-1.2554004983004146,653.0453337734406,352.69896434929444,569.6241244351218,downstairs
20.934891485809683,0.6962887754532402,0.14567385378924144,9.442503759753665,0.6655912733104349,0.7502342496810036,-0.1548803892561577,592.5110227174252,396.011501476175,647.6132510548165,downstairs
20.984974958263773,0.28008159009707057,0.23415619598447218,9.639395706085997,0.4218241647099543,0.9614305180273155,-0.2286534485196303,675.8363211202209,310.41269671152946,585.0848386764376,downstairs
21.035058430717864,0.21605006941029153,0.15748339854940357,10.880327087637015,0.059857268705804496,-0.14449425214436068,0.07045375684432606,664.7209275605443,371.10333415252506,638.9917811108674,downstairs
21.085141903171955,-0.23282493320203407,-0.7049606458025193,10.842948440103674,0.6153561002312654,0.7953925137163335,0.31533780889354124,658.3253053747566,368.6022887511001,568.310208207611,downstairs
21.135225375626042,-0.603511667674851,-0.5772512221505179,10.862294602351518,0.07263839713011339,-0.23527605358046022,0.7300327512131273,782.3869287184376,345.44930777322475,717.9043993901726,downstairs
21.185308848080133,-1.1194416963243965,-0.7263665506829264,11.496935951251372,0.3607630817477208,0.5429807606835763,0.03406791181283843,644.5045120008865,409.7231226304891,664.1986015326722,downstairs
21.235392320534224,-0.8580439095229176,-0.6270587465452779,11.01775181845023,-0.09145588303183337,-0.4039950127470744,0.2888325700310212,675.8723252757053,359.46217795734117,654.8559670204525,downstairs
21.285475792988315,-1.0910679442905498,-0.5565086870902942,10.874908299950595,-0.18753974806949378,-0.9221108896202767,-0.8217062573588393,708.2275600582179,395.5349030182057,610.4133889542128,downstairs
21.335559265442406,-0.40599729496058884,-0.32629782898299337,10.089236433566201,0.12888982320220926,-0.464922110522963,0.8318188639813103,705.0713620990368,375.23867178572505,647.504336619967,downstairs
21.385642737896493,-0.5752989622547184,-0.07883602250261074,9.876453786375583,-1.8932481230503584,0.11625849560857207,0.3135929315354811,645.2765079321829,379.6439791111361,583.3698886115595,downstairs
21.435726210350584,0.013156231552666028,0.4509539416224147,8.873534552682841,0.9588371010311584,-1.0631269435879254,-0.5584558233753656,627.6177075318735,391.3369498091096,630.2105799146458,downstairs
21.485809682804675,0.8072195883763086,0.4308875134122106,8.625389134709348,0.10132559389659973,-0.12180052912256596,0.2527121850268055,686.4784837960098,434.3632508906503,648.8945590744634,downstairs
21.535893155258766,0.7570386267405625,0.7473899925307854,8.339487687253252,-0.5544496056822413,-0.28889542625296305,0.8520311114395066,709.5136739934178,443.84787205139673,622.8678097390581,downstairs
21.585976627712856,0.744169826470659,0.5699806381446546,8.340772203715915,0.2405723100360015,0.8985502489021632,-0.35931210770373645,694.1888289739412,388.5948265089409,623.096363481473,downstairs
21.636060100166944,1.2232904259415887,0.6023226085611366,9.351491737487875,-0.14085456137581515,0.8928561672504365,-0.46064293928669253,687.7713918054422,365.4229952192105,640.0580929586441,downstairs
21.686143572621035,0.7582705032748921,-0.01727266633711702,9.827123169658234,1.6707882643438954,-0.018691193212689774,0.029118604938668562,662.7848560044303,431.8200177903534,659.8476442331132,downstairs
21.736227045075125,0.5319726734397008,0.12472046659310279,10.530665797100058,-0.6271442822067185,-0.01677658098261715,0.8414225943369523,689.203540892389,296.8923532613745,633.9787712097947,downstairs
21.786310517529216,0.37740898281793994,-0.13264042849599164,11.065793193140683,-0.5398083003446051,0.5109868393347939,-0.6504315203197656,714.1514860663276,340.9149538890944,669.368810468247,downstairs
21.836393989983307,-0.7518590395164063,-0.2808937754299073,11.34759887332621,0.06504506906969074,0.2262311534978556,-0.3347714905227233,721.4087823436275,386.8949545318285,581.6940102704554,downstairs
21.886477462437398,-0.60244185346345,-0.6069388227127146,11.316684712548284,-0.3823970721114467,-0.1942413781779833,-0.07123279668357181,678.9069491444121,409.7531024386417,568.5859730833351,downstairs
21.936560934891485,-0.7220723417854095,-0.49918427202410004,11.402600778673854,-0.1305979641417313,1.0381557053233776,-0.5026159935634603,691.8298881895641,406.3635217083346,644.370672445152,downstairs
21.986644407345576,-0.9709320432758329,-0.4006057987771522,11.10060427286753,0.13569825198921612,-0.31911720066436444,0.10459856377314723,676.7423804703077,386.49722057993904,618.0490297135332,downstairs
22.036727879799667,-0.5006293836346482,-0.6747084159612962,9.810803434519293,-2.341210422356784,1.920505866384301,-0.899618951056201,700.3376517246865,407.3699812778179,537.556806838983,downstairs
22.086811352253758,-0.5759339295546878,-0.2132777230684215,9.927008172458281,0.4881797905430479,0.017117077643256914,-0.7239472890736764,589.9994891613093,370.3022536283103,711.3414189921408,downstairs
22.13689482470785,0.5803921080413202,0.4293226376671672,8.83900351205679,0.1813482727170158,-0.16210813696838625,-0.31213639835043555,681.4775744020075,389.73142654454387,645.4673996251867,downstairs
22.186978297161936,0.7354184782573726,0.20741557788201365,8.749109750400693,0.15429944984863428,-0.3401270115304542,-0.37746174885359446,739.249158044306,416.79364630188434,563.5150684444385,downstairs
22.237061769616027,0.5581725423892314,0.6465519624480194,8.715699887713928,-0.49413558317418355,-1.00251750671944,0.08499097008190386,731.564859756229,304.12259276626656,640.4589089821752,downstairs
22.287145242070117,0.5752054192701086,0.5370341117935944,9.058307194080943,-0.17466666316354604,-0.01157507479188107,0.9290395947639767,689.642552896455,388.8370142653736,623.756576109459,downstairs
22.33722871452421,1.2791372467346833,0.4954405907394784,9.141995367237392,-0.7682078946700296,-0.9760319996141328,-0.5280502267539263,692.771228009582,341.9245410884133,607.5049489152918,downstairs
22.3873121869783,0.8123513543101074,0.16464977679439935,9.616396702174473,-0.0904120250165326,-0.11661406671761089,1.0098653092593253,682.800517644401,393.51283439510007,602.5966853970655,downstairs
22.437395659432386,0.5096834903554835,0.14608763457165702,10.159060306260292,-0.7236750469755848,-0.7728581177066529,0.11021404295714413,735.6596906887188,421.44740911334173,556.7563375276682,downstairs
22.487479131886477,0.445262874690819,0.06006535029126722,10.657581208544194,1.1422852057603747,0.3040328087836142,0.4440918714385234,658.9364262540541,371.5950923100554,734.7271108595082,downstairs
22.537562604340568,-0.32561492404519127,-0.3436310235736821,11.11688946023576,-0.6315029306118539,0.3429734857141972,0.672677519892314,699.4545058669611,383.3450310798,606.4698386084531,downstairs
22.58764607679466,-0.5691546179336695,-0.6568613734683166,11.370859875572947,-1.8044402191027142,-0.38862545221507533,-0.9942682168490208,698.311410393434,322.6921766077285,609.6499171480992,downstairs
22.63772954924875,-0.7245908605906684,-0.7813390985304083,11.084346597442355,0.6459284115532083,-0.3752458419152965,-0.42625790112842143,666.467311317023,318.02810485637883,570.4007628440198,downstairs
22.687813021702837,-1.1521235787818753,-1.0042344430794856,10.730075748975997,-0.7737517476918699,0.06506426395850065,0.30434768911332755,748.6358847109748,431.67330589272024,553.7172628956837,downstairs
22.737896494156928,-0.6256919226283568,-0.4762596487292193,10.180365262764003,-0.06213589608686235,0.00753404047748334,-0.07153450409066558,676.1213563011097,377.2691514566419,581.2481612806954,downstairs
22.78797996661102,-0.34057641900995955,-0.29136766508099987,9.780098813992957,-0.3605484343711884,-0.5371936750807275,-0.08072785560102613,685.7097217055391,332.9687809719727,615.9847959076126,downstairs
22.83806343906511,0.05378357869526108,0.11044413967245398,9.21419891125909,0.5188871537471046,-0.10011011820798375,-0.7914218362508573,699.7385928606803,410.17687639501275,642.164702492732,downstairs
22.8881469115192,0.25032610195884264,0.4018952203669247,8.666326945523966,-0.3500425974531921,0.714665133063971,1.3487521092377939,753.8517972930576,375.0550340469487,617.5009441209841,downstairs
22.938230383973288,0.8286307798914474,0.671771007391218,8.646037210266789,0.7575757214646035,-0.9588132838602306,-0.14584634467123794,579.4619273642481,381.19275522329013,576.3109223824122,downstairs
22.98831385642738,0.9953802567448418,0.540284925871992,8.456231621621605,-0.046548229707060455,0.12449284292612199,-0.5868241688299242,709.6631159058338,381.5851474694087,574.175814891086,downstairs
23.03839732888147,0.9746908804700828,0.7051455931678454,8.901502850431333,0.4885199729154568,1.1620406062558226,0.15086441814669815,625.8194265917721,361.846764471598,688.7318993075982,downstairs
23.08848080133556,1.183504501143053,0.48069940483708146,9.431105513657712,0.665690729072671,0.18558228462693752,0.040068257033536406,643.6649061061241,389.0363256365724,595.1514853760787,downstairs
23.13856427378965,0.852009540931744,-0.12088715517254137,9.986069116546302,0.0580470123823346,-1.1900992900362124,-1.2576606991805483,594.2060721535568,380.4517736584216,580.827010858237,downstairs
23.18864774624374,0.09705328718575311,-0.15755214242050333,10.878514897227433,2.0792729193655184,-0.4102545692457242,-0.3362027693556765,654.4862208592612,410.81754501047305,581.9657041200735,downstairs
23.23873121869783,-0.45282103106979993,-0.02990810448493353,10.974783642168338,-1.0985341914982554,2.1937513390789944,-0.22871072376546522,693.6140960838436,364.4131489250513,564.1309352923481,downstairs
23.28881469115192,-0.5002961210908493,-0.7024755627201968,11.180268084526121,0.9897344502849577,0.5120691424947623,0.5049285001278728,684.6135830694147,390.09592363074984,629.1712004081456,downstairs
23.33889816360601,-0.6150956773559592,-1.0083089527611244,10.908555365768532,0.40309568706082743,0.4388996921386674,1.0112561646673934,700.8845257853615,402.1652926025534,597.1498710799306,downstairs
23.3889816360601,-0.03892411642726064,-0.6481356452305707,11.029423031242109,-0.0056224688940769455,1.144391913714615,-0.32033436338991506,761.2613407392585,384.8521295216441,668.4148723456576,downstairs
23.439065108514193,-0.9997662563218065,-0.7071489713971155,10.592409184169878,-0.4017346683299709,-0.2682757675818275,0.559286620941983,654.8532011407405,373.3368796927733,609.0262874062885,downstairs
23.48914858096828,-0.09676442214962118,-0.5030184744533674,10.309085281500025,0.21192762956417444,-0.12491057942982091,-0.8581803297904791,643.3915733400695,429.53371946145126,581.177035229791,downstairs
23.53923205342237,-0.44457686361167364,0.4181323593837816,9.612966865426857,0.6813357337169859,-0.5095718633178768,-1.6801371762484283,688.4290964255682,383.76926957971347,626.4192401610563,downstairs
23.58931552587646,0.2302588534521895,0.19655595390872344,8.990874597493857,-0.6928328659194186,0.6309888971439581,-0.4583222465944524,670.2491136606031,322.5801473397893,657.0458768684715,downstairs
23.639398998330552,0.653648645365626,0.26306810795783503,8.504953053134855,-0.29526983230934906,0.34301530067049435,-0.4397375184822614,692.2815134642564,313.31508383363774,635.6612821532545,downstairs
23.689482470784643,0.8312995034941302,0.8352478117302271,8.818593232074907,-0.14708393541256282,0.2760514831192233,-0.4053375758786692,600.0699133448707,418.668433618679,666.6377100072227,downstairs
23.73956594323873,0.9064240739418364,0.48078986672539764,9.039084064437338,0.36757369971772974,0.6058707235792542,-0.27253789118776317,684.8913679097659,443.09760926659635,575.3374254263963,downstairs
23.78964941569282,0.764511420038483,0.41268953882446824,9.292038072315943,-0.32984551416422764,0.9823171354399759,-0.25544660386289747,668.9269990025363,345.45968374147395,730.1022094063923,downstairs
23.839732888146912,1.0422913447396538,0.17190511268957243,9.718470290660438,-0.5634850776679995,1.151914826709022,-0.03095948596503296,704.0165826636415,393.87128345680287,503.1250089353999,downstairs
23.889816360601003,-0.10822504036321136,0.09959891799105042,10.423837857834046,-0.122039354628805,-1.0319127335553786,-0.7919023661418273,632.8027883486934,404.7129859411906,648.530577694444,downstairs
23.939899833055094,-0.12694574214759918,-0.3880850456912818,11.09092904652597,0.8826318392693515,0.9038330245282364,-0.10159860403843383,680.8866664160959,354.9242892504663,614.1377427846863,downstairs
23.98998330550918,-0.30709648969724773,-0.2048400470399218,11.058833701877035,-0.10810778270872705,-0.00798573437244706,-1.1832896493740148,676.0370973052645,400.17433904321615,650.5396171338986,downstairs
24.040066777963272,-0.4363135170524089,-0.41206941193980584,11.591025468508922,0.8406560049795158,-0.28856067304894595,0.04193352349871663,741.3512417837024,395.37088633691866,540.6083992094996,downstairs
24.090150250417363,-0.8273586185645616,-0.5105801383728481,11.052550379033864,-0.6606825890888439,0.05831481734665622,0.16259320637096222,633.8332736485096,382.7916178557392,578.1144391040662,downstairs
24.140233722871454,-0.7221243622469319,-0.29621228778495945,10.68980061515394,-1.3926197222885273,0.6318192346026378,-0.45820047249732687,688.0209404444564,359.0789505103264,641.9864654249833,downstairs
24.190317195325544,-0.7510460505277636,-0.2971924197174594,10.09542933265042,0.582549762487593,0.9657062690510808,-0.5350845954571352,652.836767334916,283.8249434872433,620.7326018719953,downstairs
24.24040066777963,0.2955373010096025,-0.16370161254240212,9.604334216573985,0.6002500501635468,0.46345856061304025,0.055553906356728695,700.4619680133297,382.8095820869995,645.0999710678605,downstairs
24.290484140233723,-0.06983606443574937,-0.01862025975975798,9.07852928735989,-1.0249861602321704,0.62760885679532,0.5135130501601675,675.0335569495528,420.2362128820675,603.7647335840707,downstairs
24.340567612687813,0.10626711469356025,0.3245684336713467,8.542294863560253,-0.35315673374456025,-0.1966088593760097,-0.9319662701737012,620.9397184685083,322.3923686305474,604.9789082164193,downstairs
24.390651085141904,0.9316316320425262,0.458753214929782,8.633958387188759,0.10614208982347656,0.6462566728788887,-0.20368906192596115,699.7914468732437,426.2688212062049,610.6399043937761,downstairs
24.440734557595995,0.6050494526598863,0.4640499642761127,8.382425898558509,-0.6929732206818146,0.9613069646758435,-0.601699406118799,668.2850675352743,421.37096517088924,679.2414426151657,downstairs
24.490818030050082,0.9719248262342057,0.42042053982503674,9.014068196338354,0.7827296589539237,0.15166762447395785,0.30146819754415655,621.5583236403626,422.205652695587,534.9758545293049,downstairs
24.540901502504173,0.9062060227947426,0.42256928626537626,9.889595651454153,0.41451614296367784,-0.1317547904005553,0.9819282880629336,699.4655190843525,388.18149231697754,611.002726761014,downstairs
24.590984974958264,0.5912168291421352,0.13241628065854047,10.532658481390076,-0.5973250903299967,-1.4966084349965154,-0.5490887717113293,716.1408695773737,344.2793224840012,634.3767036805503,downstairs
24.641068447412355,-0.18158643337296432,-0.3237898397670857,10.81998891850576,-1.2527968829618352,-0.06170760472414591,0.6630945855825422,632.1941293103856,405.5728344777182,578.0187511525335,downstairs
24.691151919866446,-0.165980470579074,-0.44449470692243076,11.48446486286406,0.28900618523232763,0.7479684357875136,1.0971747483664196,669.0593930466622,339.057013959818,650.2824106266901,downstairs
24.741235392320533,-0.3628826448226246,-0.42815141964877673,11.24671486521373,-0.1381357334374228,-0.3888234073322845,-0.3901030463612741,640.4331653149596,435.31983362030167,598.4583686053182,downstairs
24.791318864774624,-0.6605905215984623,-0.9899813203738643,11.247781912436063,0.8450544491018268,-0.13961363164953502,1.4073992515259144,728.5971229219665,437.90093326908584,598.2198131642261,downstairs
24.841402337228715,-1.0976815749754565,-0.58353081281228,10.767523155551624,1.1276552997438705,0.5451899555857974,-0.41724196615993103,674.5671671444375,362.5766557039721,602.4944973536209,downstairs
24.891485809682806,-0.5504250736299,-0.4947574823391165,10.358730301868357,0.3218722931277294,-1.0377744823865906,0.34538416978392517,703.9594838666554,367.6018673544711,613.0804942677054,downstairs
24.941569282136896,-0.23988328331514253,-0.048143039523146025,9.514436393727237,1.3844750865917497,-1.3998714142483486,-0.041047077278593296,679.8087575937108,359.43051408519756,631.2213490969506,downstairs
24.991652754590987,-0.16613857858196662,0.291472488600349,8.936965305806126,0.07855148068873133,0.7001306524725408,0.3108607225688474,670.3326451216485,355.40594568205233,638.9652890212745,downstairs
25.041736227045075,0.6486420693147746,0.11099070528323515,8.329194183074973,-0.5570634129428185,-1.2960862548862369,-1.2180583094397621,730.0631326302944,426.2764370393289,584.0228456373941,downstairs
25.091819699499165,0.48624641802874863,0.6538083235696317,8.386923608210484,-0.9827116762535303,-0.06448602829573026,0.482758045738356,665.3437642238149,424.9161684450943,599.3556966879696,downstairs
25.141903171953256,0.8121096544360277,0.5790112877472582,8.623373915636934,-0.9324462968791857,0.6642347522159906,0.11158584609308556,614.0885889473274,379.2165612173815,561.4367748837931,downstairs
25.191986644407347,1.2116260027529688,0.3440803595704777,9.096567617482343,0.41843413291110976,0.40554308640748565,0.04278008961181429,647.023786757355,377.9767274028473,689.476751614388,downstairs
25.242070116861438,1.153621749987825,0.4034659285040828,9.578453656256142,0.7639496529693153,0.5034555220642699,-0.7716527025151256,635.241317896339,352.916491443488,569.3718471053651,downstairs
25.292153589315525,0.6511367062851283,0.02993316937142418,10.225034351476593,-0.40137193805905363,-0.6481984947199838,0.7382555381194801,662.80928098935,389.77172777607626,637.3242680726842,downstairs
25.342237061769616,-0.05492145342062259,-0.41667135172015707,10.590385803150703,0.19343347980547898,0.045629962251828575,-0.8653212586378427,644.4369697855744,417.1018558085497,662.270538290608,downstairs
25.392320534223707,-0.2640210278766301,-0.5755017567160283,11.196598400924298,-0.4652123448515804,-0.31161337198369077,0.6713169227305067,681.3540523363007,400.1869773113747,699.3103094588703,downstairs
25.442404006677798,-0.4262390161388014,-0.6219658304816291,11.280627544446798,1.1834955381386971,0.5212680385660712,0.3963594264917055,653.5139463796023,356.32938056145133,560.5491731314239,downstairs
25.49248747913189,-0.7586270312295657,-0.758521705163421,11.370709099840488,-0.6993620576084333,0.08769865646855356,0.4900291335258281,678.6788193796158,333.89587226452653,654.9067725144388,downstairs
25.542570951585976,-0.6234788723655081,-0.6522132297067857,11.08949432834031,1.2959627425435123,0.25185690234494956,0.5324731265655274,712.4499913766666,352.64174369925973,604.0121288267576,downstairs
25.592654424040067,-0.6190605394439761,-0.5467631095630494,10.560169245973412,0.006203104728127916,-0.23589343812061286,-0.3301456341702871,630.9745672675174,360.87010187193584,595.3447770296447,downstairs
25.642737896494157,-0.4179459883807069,-0.15094935388201108,10.002345969341162,-0.7351321781124417,0.10016085015814662,-0.8802614047577374,690.0973457286548,337.1709071995591,604.4798339282886,downstairs
25.69282136894825,-0.4901409498529841,0.1795096090259579,9.355450140127118,-0.5095241675470764,0.2193541508882261,0.14565920472613145,656.5967168332318,440.44133661210435,706.6548110336201,downstairs
25.74290484140234,0.3394856861813299,0.2829561875559178,8.733530752140805,-0.8633600241283441,-0.7716162335566464,-0.519003747476798,689.3831840577222,402.16822008572615,690.7091465525369,downstairs
25.792988313856426,0.5203173749849178,0.6015379230737692,8.718604660791993,-0.49068051518907085,0.44965216029015526,0.45396057911617815,671.859254810411,409.05907330740433,615.8368217690946,downstairs
25.843071786310517,0.7373171254586918,0.47220588231084065,8.491733888720189,1.2839840437115106,-0.4918697518697722,0.18677558456168183,653.3952494639373,389.0086955434332,617.5252463518696,downstairs
25.893155258764608,0.7163043710668987,0.6423173098451567,8.81099730527723,-0.425005841581876,0.28230623997121806,-0.2173048585711895,751.8382780961895,351.64636975713603,612.4983328370221,downstairs
25.9432387312187,0.9280249315476552,0.2045306421231487,9.438586377509607,-0.46355148605166807,0.6547918560065001,-0.04543489044003502,651.0052511252364,364.90664037286587,618.265877436671,downstairs
25.99332220367279,0.4331996470565282,0.12345081516250764,10.074333427472373,-0.6656706368232354,-1.1068986861223333,0.7148552830870841,682.4012297026679,399.90307617099745,619.3584531345882,downstairs
26.043405676126877,0.3316875793750376,-0.5142331222393859,10.28229837699913,0.32570143175261995,-0.338442432071931,0.2779198844868251,651.1986765392003,383.27752370029987,689.2811202344473,downstairs
26.093489148580968,0.14141660615509832,-0.5668749981067203,10.569394804475353,0.7854927036441359,-2.22379100203756,0.33089057043127595,659.9813049005706,410.6775186846532,646.7987849248611,downstairs
26.14357262103506,-0.05991403587848772,-0.20401803043411826,11.091139997583808,0.3427447224596698,-0.6177986643702067,-0.3332829416393733,730.8661826080692,411.537266938351,636.2189524642005,downstairs
26.19365609348915,-0.7108995024932669,-0.8438845655776879,11.182301403863447,-0.8769806778954182,-0.6547588315398616,0.005950020081277813,685.94722288876,406.2928274154896,616.9829736215039,downstairs
26.24373956594324,-0.7630480868418433,-0.575045746860884,11.39092487197208,1.1744323165374715,-0.206197946484466,0.4988032755680017,721.7709472334717,340.3266916619077,611.1877367295118,downstairs
26.293823038397328,-0.8447563125355977,-0.32376486992647063,10.636303891333874,-0.046732133538791285,-0.25764228260656324,0.09181546926816339,592.7207887396614,353.02183223144345,584.178524058348,downstairs
26.34390651085142,-0.5428500018062721,-0.1460581544582459,10.1460981196309,1.015556945043946,2.143726311400575,-0.25942869072766717,716.1475225355393,365.4730891699154,630.9640414385746,downstairs
26.39398998330551,-0.005864928536864614,0.15083183504977696,9.599651493666775,0.8488880067633373,-0.6190178729411286,-0.6557284983493856,727.3019818234628,452.79518552877676,564.3090751643865,downstairs
26.4440734557596,0.2331390183030947,0.41036717098668224,8.779317582592098,0.10380753039112948,0.3344438638129366,-0.5422533820588388,676.0687874676822,462.32668046995616,643.2802040814765,downstairs
26.49415692821369,0.44068744931615517,0.11692200442016393,8.95420092215348,0.1267585339097079,-0.9067166708371412,1.8154899811935208,634.5558181841986,329.5219148214472,645.1345281192492,downstairs
26.544240400667782,0.8514779619310398,0.491612031833128,8.307886030214672,-1.1225421504056803,0.1641769567603984,-0.5975397572431342,680.2432864995058,350.4328396011248,620.1569933176277,downstairs
26.59432387312187,1.0189088001460735,0.27886117123055065,8.635393544963389,0.8373064170325982,0.35076798773625195,-0.11159618267221005,678.9716931774639,406.36738916229433,700.6874712453749,downstairs
26.64440734557596,0.8648008935893734,0.18895212400422695,9.367015631790851,-0.3237460077298898,0.5418967489791577,0.2974895028850519,657.2104747043879,345.52172922666745,514.2995654837688,downstairs
26.69449081803005,0.7951397404039496,-0.19034701916953467,9.641643018290402,-0.6476931536231233,-0.7784978566770294,-0.17255005804761617,704.4787310497126,357.07477968023034,621.6580998231112,downstairs
26.74457429048414,0.233007322821553,-0.037568504061261956,10.484314163675663,-0.588833284701488,0.10778141125470396,0.6601258543938276,619.81285027321,422.6349418578534,602.1001655081698,downstairs
26.794657762938233,-0.15644512997321475,-0.3287218388555635,11.026226805057803,0.6989056373124085,1.2809915724167606,0.5664522053312054,662.6654062792051,331.0068496957532,655.1067271374181,downstairs
26.84474123539232,-0.15129128587439805,-0.2645880076609077,11.175579722706432,-0.1361345021682049,-0.6957128331520117,0.45099828237081535,659.735515955627,418.23653748660917,658.5807685144656,downstairs
26.89482470784641,-0.679931362995185,-0.8621993244961985,11.234432874898545,0.37655100969474403,-0.483731279335723,-0.07805775951058552,674.6978395617473,386.8401193402448,564.9520443290355,downstairs
26.9449081803005,-0.7183998706434971,-0.7570310956247903,11.520055693505027,-0.07926722274950866,0.38543666949593147,0.34831239114412443,699.1685185967763,390.0754373506421,608.8135457400681,downstairs
26.994991652754592,-1.1352705273475854,-0.5089526293230697,10.463035802877386,-0.6635361101596018,-0.22859997122680692,0.29352169989445864,628.0149162337898,407.5648091459882,689.2871483332702,downstairs
27.045075125208683,-0.6301058725361176,-0.32542679637144095,10.12871608262906,-0.8313956232276948,2.1939976733812134,1.3972736984996605,608.4033878915177,456.4168370200531,629.9341005429175,downstairs
27.09515859766277,-0.581623599010908,-0.05381776586021737,9.371827895840307,1.9164521903300653,1.393942394078883,-0.5324618022761961,757.9578990538951,380.6630726981983,672.0120986123322,downstairs
27.14524207011686,0.050473434641263554,0.30986853149199195,8.831333871719469,0.22988955463392258,1.704679040556651,0.6520896044511996,696.3773209643949,374.5846367901318,605.2528409533246,downstairs
27.195325542570952,0.4875170103647782,0.40580138959889583,8.832940484233493,-0.4292838577830089,0.767803857854409,1.7468490946770612,643.4686308492222,393.17189243598995,589.9556346736717,downstairs
27.245409015025043,0.8059092018660466,0.5178102455970364,8.584408307426038,0.3246780806161425,-0.2451748133983044,0.7738892989584369,631.9599376550062,345.55280874286984,540.1692288777384,downstairs
27.295492487479134,0.5350796048738449,0.29430863536280844,8.86550869197268,-0.32968591978427325,1.3459715487392043,-0.26024053253843693,725.6870096507059,416.35315599373615,695.393463224784,downstairs
27.34557595993322,1.1849982344374428,0.5228502445546841,9.156142082476507,1.052581706044363,-0.12377133424343476,0.6240323923119203,637.6288138442912,422.45350851471096,590.0656036350142,downstairs
27.395659432387312,0.948155383323041,0.20072441220134007,9.687394112780561,-0.13073661276519105,0.01923092175622193,0.05939644320802228,711.3029106383559,362.96596348704225,553.3083491588194,downstairs
27.445742904841403,0.4549073257787635,-0.13270605627177345,10.302344502981285,-0.0986739716546656,-0.647706475885744,-0.296703384762213,715.8651740461299,323.95676240804033,576.2867697485038,downstairs
27.495826377295494,0.240533255706669,-0.5222539020189423,10.794359820885951,0.4809761344207069,1.6517412859284326,0.16418932826227214,657.9046067693682,381.53099672258764,668.0632657613654,downstairs
27.545909849749584,-0.35264366041968703,-0.5193763265497214,11.374946999498052,-0.5862923295991703,1.512443481485379,0.4315909581308321,783.5029255025835,366.1864195298976,672.8726636208775,downstairs
27.59599332220367,-0.7008671403064501,-0.7298790625394918,11.295679769452525,-0.2217656918844148,0.09427134666764947,-0.9504671365777566,746.6694916997589,364.3534076081544,634.1645153033052,downstairs
27.646076794657763,-1.046996763196265,-0.8801799257116409,11.255158115867152,1.2300467678017886,1.4274529049828062,-0.04953161173910831,646.7777179754399,389.87084726892806,624.4649460279708,downstairs
27.696160267111853,-1.1110027537298564,-0.7008895604864633,10.646225364725426,0.6125554767292414,0.9281876511620634,-0.05828016778107631,689.5462700536326,445.266805372387,750.2098381963522,downstairs
27.746243739565944,-0.7480508114727353,-0.4372746582352436,10.609417266563343,-0.3383005921348931,0.11054053073383623,-0.13398095158234308,666.0371357821925,361.6402481012682,684.2265908680303,downstairs
27.796327212020035,-0.24203815234107978,-0.36790054054254123,9.671752179258132,-0.6250149827398231,-0.5431323343897748,0.5178707031872348,660.718429528379,360.5283582448063,618.2093665603679,downstairs
27.846410684474122,0.3039584322974953,0.46804067921454623,9.187544143007669,1.0826446954401345,0.03723020063173569,-0.08069879909457345,716.5230842175317,431.41526056054465,599.058147430321,downstairs
27.896494156928213,0.8005138353739519,0.3095351601130231,8.871585826138837,-0.658734058091706,0.34444436983042737,0.9930961119903533,723.3622936130669,435.44290332638957,672.7234364836376,downstairs
27.946577629382304,0.7261445703071585,0.5252193090999739,8.575728815223703,-0.05374325976087986,-0.22342016339768822,-1.118106568845813,714.37879206209,414.6402938231429,731.3842394126779,downstairs
27.996661101836395,0.8639427560202467,0.6331926303532327,8.518501039690099,0.24357285857453523,0.2614672314902868,-1.052837963837688,737.557270437558,415.57333576721203,551.0203268298396,downstairs
28.046744574290486,0.8855912091517755,0.6091011793725478,8.72850143875036,-1.0239970147267334,-0.07407590436137068,-0.7399354359216102,687.476717641384,334.92232314035306,594.1647754929957,downstairs
28.096828046744577,1.4241418813978073,0.2779829905673768,9.39278005542728,0.7034755691477831,-0.6088322122885609,0.5010216169183577,664.2567582971385,344.21526744613107,586.0338244328489,downstairs
28.146911519198664,0.44282135450558163,0.12332254221171171,9.765777249473503,0.23154364329697222,-0.41866788578630953,-1.2135289008666132,661.717388903825,400.0459139400161,556.7843022789393,downstairs
28.196994991652755,0.17445340801138381,-0.5185118085536413,11.091706885804415,-0.0900034207724966,0.11930419810997696,-0.11859519950251199,737.6754271176018,393.5163441082832,572.838648608991,downstairs
28.247078464106846,-0.4294973796391443,-0.5923760831013012,10.761096956469068,0.04017724950538145,-0.027897176953082702,0.6186592647608466,602.7295822701957,437.8197855351833,545.677602432145,downstairs
28.297161936560936,-0.3149186008934992,-0.8428528663431722,11.50941884582878,-0.43062413643891095,-1.0783754211477572,-1.2996628871350098,667.0696233508893,359.0911958823235,647.4478459151155,downstairs
28.347245409015027,-1.0449664725012564,-0.9929617684545768,11.194530716154377,-0.09322964720896325,-0.4331041965885365,-0.25607162858063093,690.9192125372181,350.820752483905,602.5697190023675,downstairs
28.397328881469114,-1.0106237203632524,-0.5277181084967104,10.750493364676187,0.6473474804823354,0.7978198476342572,-0.06529352710758797,632.8031573963351,449.6185406993317,609.0957577020791,downstairs
28.447412353923205,-0.763482705008838,-0.4914830174132901,10.530791198687412,-0.4028340348400388,0.9516781657518627,0.17180441595425044,552.168448720992,437.8049922414052,620.1125653648265,downstairs
28.497495826377296,-0.20440994902363258,-0.0015851624283695354,9.942504310432092,0.9029315614092205,0.6029872370681916,-0.011408569780671916,635.0031784032004,370.6292237493684,611.5509152147886,downstairs
28.547579298831387,-0.23527718383953405,0.08560968567408,9.670035797313536,0.11281247149177026,-0.35352432669275624,0.6272571231787624,620.8699879581166,374.45544268381406,633.404739907021,downstairs
28.597662771285478,0.11877032520620175,0.34279263799754955,9.052164681787508,0.3131667349116663,-0.4907620571917549,0.2844188901225402,636.9490776024807,379.25442221171795,597.1365665269386,downstairs
28.647746243739565,0.7706216339740278,0.6147103582236628,8.721412822784988,0.17576810477079688,-0.12762175169984852,-1.3241546048535322,774.6675535085585,407.2006200411167,597.0378273971847,downstairs
28.697829716193656,0.7381049355780724,0.5858385076884463,8.759989251352543,-0.8447069456666014,0.19797712459020603,-0.056034612572020526,665.3794937754295,377.0737221547384,620.0318339822201,downstairs
28.747913188647747,0.6437291100271084,0.824212009895555,8.59099737025124,0.2974140581634647,0.20191187659774867,-0.4821537292597626,679.7174348465079,426.95603413126383,608.8697751063957,downstairs
28.797996661101838,0.8403150363102939,0.24937074877038706,9.131847402704924,-0.4089357375682247,-0.46658506558131724,0.15418526959264645,689.9850976840306,476.32907077329185,598.9738818349795,downstairs
28.84808013355593,1.3047306683480326,0.1288413926378416,9.65900948780824,-1.1434574707433258,-0.18940429922341748,-0.2805696603197338,636.2500462797284,401.9278749662372,650.4538074266643,downstairs
28.898163606010016,0.6281330159704759,-0.33186668740576114,10.390865704097402,-0.7636714345309252,-0.20661796450587985,0.03595922151951754,590.1313525664798,384.8879969911655,607.4454916370069,downstairs
28.948247078464107,-0.23702095120895084,-0.2562472999293808,10.642204211220042,0.15217818600391317,-0.7840918576816441,-0.5926528538915319,706.9366947545947,436.41564006210854,682.5585138032009,downstairs
28.998330550918197,-0.5299434722691637,-0.43300972553523176,11.19723111510352,-0.8644040232273147,-0.18354680914582044,-0.6119496125780135,722.3663275974611,357.0378120507089,671.5715221802988,downstairs
29.04841402337229,-0.4650452666720957,-0.8151728628887145,11.352772105091248,-0.7802572130376957,0.32981222735897864,-0.26205838124731595,684.596782039713,351.00981680107316,587.0232187852787,downstairs
29.09849749582638,-0.9368412394602091,-0.5354066443884551,10.804082717540508,0.39682497367449054,0.1223396265182713,0.4607507658292823,700.0136422778403,298.3315839301147,582.5721356431558,downstairs
29.148580968280466,-1.1373217894541199,-0.3947207470450705,10.52204321659555,-0.16098968667448996,-0.6094461100880775,0.48675946945047516,724.2265248504063,419.6214286521365,613.3224209210242,downstairs
29.198664440734557,-0.6017598945693773,0.09132544570648127,10.472051675664748,-0.1852208150374403,-0.22025645906997715,0.5492739723295763,641.8849058801832,396.16254663556373,646.6906012593663,downstairs
29.248747913188648,-0.35767786241333493,0.03597572848270271,9.222641082704497,-0.4794992884870948,1.3900989912184154,-0.06145727264216049,699.5922110097129,442.1726845090226,555.3563652123124,downstairs
29.29883138564274,0.16372840037279407,0.34144512431004487,8.928094461455633,0.14550655698233056,0.020121750475162393,-0.599013132921025,682.6346265036768,368.24782359725407,620.6417770240466,downstairs
29.34891485809683,0.7440861122208133,0.5142003959419927,8.792292773513346,0.06302536176548922,-0.4988069747477409,0.7081667278432178,621.0233829293062,384.757188773878,663.6508849815095,downstairs
29.398998330550917,0.9690359318336567,0.8076950225957946,8.824569946356831,-0.9023654602647347,-0.4679374025550129,0.7926636670832566,704.4123657923661,364.94994728345335,613.2732620363005,downstairs
29.449081803005008,1.1768921708257771,0.4337232203707587,8.859328070448075,0.6775251690251523,0.2864622935024129,-0.498811859475803,722.7673739764443,399.07994926824546,637.5191406259851,downstairs
29.4991652754591,1.0658634075396647,-0.008189816318451837,9.320395481605743,1.0295710433946512,-0.044045382726513545,0.5652905916585873,722.4183862030028,460.51508588396837,592.0880487985056,downstairs
29.54924874791319,0.6325912215331119,0.6767840548674173,9.621284202393449,-0.35485772243845315,0.6839429522254454,-0.394311346832437,703.5366258540732,399.045572661628,610.4727519296691,downstairs
29.59933222036728,0.38797663971438623,-0.22437351419188423,10.309844988230322,0.5697805213731554,-0.21223522234133016,-0.7895566629165598,692.4758574701262,385.0169485006801,621.3432947212066,downstairs
29.64941569282137,-0.293074096632998,-0.7542206287328745,10.753563369876352,0.3838340427793201,-0.41788916931254744,-0.33431200198653543,594.818400876386,415.2280373213588,600.6058328281856,downstairs
29.69949916527546,-0.3965252639353705,-0.579257469998171,11.467396488602965,1.3556106629560205,2.0720967416698346,-1.7563648426616256,690.829226493384,336.84075111646445,590.560477376288,downstairs
29.74958263772955,-0.5043334751542113,-0.8877529173345189,11.604774671326211,-0.5454018206966699,1.0557034514689552,-0.47586185727961233,722.2454564237134,404.017420632297,625.027477076218,downstairs
29.79966611018364,-1.000509076239523,-0.5038477295604736,11.318124582789942,-0.2979780909176146,0.5682428252110359,-1.1582936233930885,654.3506007055545,335.743722472216,569.1036009772259,downstairs
29.84974958263773,-1.0122312855302367,-0.544859363756153,10.86794488591843,2.5035423621184036,-0.13294309912393668,-0.12674230778336276,677.1516698698625,361.86986343276703,661.3395395432026,downstairs
