timestamp,ax,ay,az,gx,gy,gz,mx,my,mz,label
0.0,0.10996387792612575,-0.10044483855657727,9.988904046274564,-0.4735127920423076,-0.030331942409928113,0.0883769339056072,688.292175173111,377.54166825015506,515.2021328351193,stand
0.05008347245409015,0.0579914629930309,-0.054932345516547985,9.88741459871467,-0.007531375557628386,0.03526869913034037,-0.027418873721332428,704.6573924760662,439.62207197891485,708.7169441813659,stand
0.1001669449081803,0.026519589253980777,-0.030637973217017205,9.922864465893252,0.07471565593681505,0.17918127084462976,-0.16711234848338957,716.2545632455317,424.94131033627406,584.9507365524458,stand
0.15025041736227046,0.08509797706013787,-0.014892011057563506,9.914690628794345,0.20619718342076218,-0.07164762696278788,-0.3410711053204155,751.0317693007102,308.10912089744414,606.256091412661,stand
0.2003338898163606,0.04349815029367453,-0.057560203272200204,9.90070748913728,0.23549383792876236,-0.24726195005349383,-0.08785832663535416,567.405716521803,363.6019460170772,651.8477070972676,stand
0.25041736227045075,0.10063946048385151,-0.09428674364748961,9.891554141732676,-0.3171616568904238,-0.2957309437795711,-0.15791144028405985,678.4664560741397,410.56391374006563,625.2927800022213,stand
0.3005008347245409,0.07077138202426943,-0.03411345319739749,9.899472698620272,0.2693313830666599,0.1538193574276875,0.295060091195476,647.9599966764512,354.0541374619844,632.1952941838516,stand
0.35058430717863104,0.09585268528193326,-0.014264976390325639,9.936605674128284,0.27048899704374035,-0.18575819241654679,0.37277743077549846,704.8990557220076,387.45066633061185,683.6550586714105,stand
0.4006677796327212,0.12118842475141528,-0.06713035950979024,9.888925942377206,-0.0403560768216266,0.12997330553243436,-0.17774116419078878,607.7693199979944,393.3634769429931,606.2781461224129,stand
0.4507512520868114,0.042313079245971524,-0.06651591022321288,9.851687371509291,-0.046548060976208845,0.6221862313283238,0.16466912552072002,693.5247855683962,393.47314889936587,657.4714355277462,stand
0.5008347245409015,0.07370673650045105,-0.048380663090406624,9.907947757137395,0.2705611175719541,0.14678251500391631,0.19240142632655627,721.7638740303048,342.3418634273563,589.6135164757304,stand
0.5509181969949917,0.0632455908845602,-0.0754192340336144,9.953259963029863,0.4049324157525962,0.22710663196691208,-0.34061297203545776,633.0113240369562,413.9472319144911,609.3940043349343,stand
0.6010016694490818,0.055389832475476825,-0.07150531138099801,9.873722427271824,0.08635607248017826,0.17160240109512634,-0.07966299722203446,699.3467439968448,353.78806809046995,673.2247044912252,stand
0.651085141903172,0.07277536112272408,-0.061653544817897046,9.891543290968418,-0.143151634981184,-0.43965750807233245,-0.0833248174706054,724.3920944305596,398.18808943550636,679.0846263504578,stand
0.7011686143572621,0.022595649239531237,-0.03141777403182546,9.887043807079115,0.1943594828417521,0.2714619363874346,-0.03302345994043287,625.9650965113917,397.96649444957484,617.3666932952868,stand
0.7512520868113522,0.0685948027329781,-0.03148979514079833,9.90259779577729,-0.03969366379789672,0.2600755239755163,0.17888559950457167,580.0291648426843,412.1329729023848,671.274338387046,stand
0.8013355592654424,0.0841340026901571,-0.006437527107817538,9.918411681512133,-0.31181749726674846,0.25160460245141747,-0.17696149629430244,663.7200687860683,466.15052665937276,610.7153799972789,stand
0.8514190317195326,0.07496803150252675,-0.048687953825180715,9.910218450907495,-0.16784687752080912,-0.17723781785715298,-0.36864609501693524,665.51284675523,392.72811607456555,644.1878448966779,stand
0.9015025041736228,0.12735199209099035,0.010118321581992495,9.904828192906237,-0.04431375106786844,0.0514895701506588,0.3059107720648505,689.628086718253,367.9020846023231,637.5479012173719,stand
0.9515859766277128,0.09812262327666763,-0.08006732114803426,9.957142985715121,0.2076115158922996,0.20569406441764043,0.20792929016474918,599.6237832398517,311.4052731935323,627.2181760723374,stand
1.001669449081803,0.12131672989108586,-0.056070073639467935,9.938310788347891,-0.40502581711861285,-0.22602395269710757,0.10830405608321161,613.7331028533779,345.1716383410784,650.7930372400973,stand
1.0517529215358932,0.07569869794244562,-0.007769026679439052,9.943103933169663,0.24025828299728338,0.29932653302302564,0.20218449367703656,613.3890159391275,347.42388581332676,534.3642169557273,stand
1.1018363939899833,0.10241889123230258,-0.09141998209706009,9.95694201183213,-0.0924709717879365,-0.24765342020473263,-0.22554637537921016,662.0255153183004,418.40724054333515,593.2912586857153,stand
1.1519198664440735,0.040160685469807944,-0.03268794754875343,9.868948044217946,-0.16183833283172724,-0.17939274336592873,-0.14332610809738575,701.3331208043718,353.2895742460989,668.2454838468635,stand
1.2020033388981637,0.06687290929859735,-0.058881335537647565,9.898349731026183,0.16697025953820405,-0.3868272199596371,-0.11308524669454253,631.2986400825919,360.07728877493037,681.3106892723519,stand
1.2520868113522539,0.06306033370833242,-0.012164857680794332,9.890678138038632,-0.027347156684782943,-0.05052639817562528,0.013486180350969353,708.0067260964488,384.81531894773246,573.8088479318001,stand
1.302170283806344,0.10874107215836162,-0.058193526776764294,9.883850837480782,-0.22071993774037718,0.31825047782971605,-0.15435565226858697,626.3146811791814,377.7495452830532,586.218385169536,stand
1.352253756260434,0.017320047739662017,-0.07495468699545262,9.951964372660093,-0.28291506487962276,0.10064495168647514,0.18040272746102748,709.3742157651916,420.05480408303765,529.9815582053112,stand
1.4023372287145242,0.10640051408044295,-0.06608982904191237,9.982869308878028,0.0038286675831218746,0.2811850097308645,0.2479552683267728,653.1228493407081,446.4492823138755,616.4711672037461,stand
1.4524207011686143,0.062050938371164356,-0.04430060033141392,9.877125723484506,0.12952173817460033,0.2654189237438184,-0.21277166755216903,706.6896265504205,328.8819654769829,620.2117366598935,stand
1.5025041736227045,0.07264334234521026,-0.02081274759363138,9.894093561437519,0.026103007483143103,0.500575148193545,0.30012439718884115,661.1989883274537,318.9849772537592,590.1572340148194,stand
1.5525876460767947,0.08292217592154162,-0.0916484230774286,9.958860284359865,-0.26126173266757263,0.016047987146084998,0.13356017560273262,700.0376516272883,414.09780443426286,595.1864234938018,stand
1.6026711185308848,0.050885080194374835,-0.04283933790574641,9.952649402253401,-0.19760111328535626,0.0785728289299019,-0.46043867479600675,727.5056751714557,324.465380200056,629.4690427959472,stand
1.652754590984975,0.05506790073126075,-0.03469986250129574,9.896000442096948,-0.05879983107238473,0.3301512303673431,-0.21998161134184044,666.326972064538,356.09769889558044,626.3052349085832,stand
1.7028380634390652,0.05810750857562214,-0.06963238843547331,9.947829984479505,-0.1707768642141786,-0.11346836349257915,-0.03261469230976776,776.0677184771155,429.4888638384378,587.8188694554768,stand
1.7529215358931554,0.15103654179217596,-0.12216419127247582,9.939995682301625,0.2622822909042429,-0.31995194579625025,0.09901434996094985,642.6455032129207,396.097054340429,605.121874762331,stand
1.8030050083472455,0.07498659770145094,-0.11316989470869654,9.910385313281974,-0.1466053938543126,0.06032451339254559,-0.22592832431463075,678.0301818510391,413.5130222083826,621.9913049028265,stand
1.8530884808013357,0.08425045003623105,-0.06355662172221871,9.916659899966135,0.07383364753950367,0.040053674570105266,0.014126796184183745,705.9665929472054,383.2085402900182,636.1240762979083,stand
1.9031719532554257,0.14683345013283222,-0.09842240703641779,9.899709738562425,-0.1786326967865236,0.2987271094104845,0.35716406522626826,623.3339843108583,366.5300822364858,628.9811909857239,stand
1.9532554257095158,0.03037987247660219,-0.11110684311004831,9.886242354248784,0.0255148471736142,0.5433759850017055,0.010716460253536638,750.75584816658,345.3933127902723,658.5993897009126,stand
2.003338898163606,0.07513418825960319,-0.09765575618124649,9.911957726989325,0.07174730108445643,-0.29958017271896853,-0.42701334866183865,728.1069269220176,358.87638914515804,575.558242781771,stand
2.0534223706176964,0.14615571856868634,-0.01345952958051539,9.991843354894158,0.04367383081601906,-0.5522586360579905,0.010855211027785484,651.354869183833,318.8469215322357,543.434897958122,stand
2.1035058430717863,0.08993223243864186,-0.06340733720280105,9.954473768086999,0.1836228219588738,-0.21765878683219195,0.31720125774256697,689.6681264275132,339.5108242739559,542.4930127191062,stand
2.1535893155258763,0.1156686849280116,-0.03062908370400768,9.959724762503406,0.17963476310863613,0.07161610159308522,-0.220471655510019,628.428037177203,346.4083538977049,595.4031836376894,stand
2.2036727879799667,0.06885249156616083,-0.03105966825836181,9.894671399125924,0.23137168840332867,0.04857469898471557,-0.07319075778049607,707.3046607976274,339.32953586155696,545.341127107304,stand
2.2537562604340566,0.052178741398306396,-0.0508139154494731,9.924102329026105,-0.01248721360952579,0.08799018841979725,0.5530012337527108,699.184118786148,418.2088091345296,575.2752263036957,stand
2.303839732888147,0.0784132781292527,-0.07785207566315386,9.934533792364805,0.17249176817601067,-0.27639579284004917,0.12110672590050033,632.9694903051158,367.3512358475887,652.2537959649558,stand
2.353923205342237,0.08734700063257227,-0.05775324133320022,9.892460427057175,0.27050351096825115,-0.028199179707122143,-0.05742583380822166,664.7368899782541,329.75402605723394,559.4920058883065,stand
2.4040066777963274,0.05656407871138839,-0.00620103499892484,9.962943129394882,0.4519183203264916,0.013003971802570359,0.3623789134060353,603.256335048592,387.43258319565695,624.2513942492459,stand
2.4540901502504173,0.1095764895523756,-0.07784319008159865,9.885008445638022,0.2548266326322273,0.21562157137065485,-0.01404374556062809,715.7426565071655,469.19366158017954,611.4343484814516,stand
2.5041736227045077,0.09055253954594752,-0.04714124771958752,9.952233216278678,-0.17899339912807158,0.0848229465107971,0.05406134171657186,616.5720055453783,333.6659142083353,596.7413484860673,stand
2.5542570951585977,0.09394353713827536,-0.12189908649235781,9.934446214573173,-0.220569378668982,0.04860862573600407,0.10031953195905405,630.0599455815702,400.0549146382432,615.0108256917507,stand
2.604340567612688,0.0752546991430886,-0.09194040783725176,9.94971816129123,-0.3264896218391077,-0.142429550459016,-0.10157320561247418,676.6214382370368,422.0082545755085,593.3628040198888,stand
2.654424040066778,0.08708150819548502,0.012849421493017169,9.913568645349478,0.3023992747827354,0.03247615410662686,0.20853299912847867,663.4247728934417,354.0310118120691,606.8457030097387,stand
2.704507512520868,0.1114207258939364,-0.06800756519197002,9.902862056106914,-0.2670355349401213,0.051676595601451734,-0.09594787410540608,758.1817258386122,402.713279174589,655.4191624986074,stand
2.7545909849749584,0.12289027638469083,-0.06284025709037827,9.918595537534717,-0.5303910987274147,-0.194870366345455,0.14092935849774677,649.9337567764233,389.2975553627876,618.0156381393444,stand
2.8046744574290483,0.08037230123072531,-0.06330326472181917,9.86824182663865,-0.31022330938852316,0.10865849431755058,-0.025134355942970126,691.0879239446317,408.7620135046736,585.5391045288256,stand
2.8547579298831387,0.08923899384292877,-0.028803915249612694,9.902011000424757,-0.20394970810593266,-0.4421248303891529,-0.11815980988382695,690.0924335464042,329.9775408866586,608.8138144260095,stand
2.9048414023372287,0.0676248560009254,-0.06121538281069572,9.918033035524427,0.1912014174226545,-0.006989912789027847,-0.2413992859355374,671.3135773382005,402.20026083909875,659.7319261550285,stand
2.954924874791319,0.05993581657707154,-0.047666111479575377,9.916168995038115,0.29218009338553946,0.1700703080234191,0.38549619187830175,622.7058075005523,385.03103234096795,541.2828486127,stand
3.005008347245409,0.07318433025879989,-0.056561095414740865,9.901650498117077,0.21024349051116395,-0.2364226845079009,-0.19264237733313358,734.781265592864,438.2234468776703,608.8722545188634,stand
3.0550918196994994,0.07098942122447298,-0.08438128983932339,9.877251268063471,-0.3942654452771011,-0.11806243174164666,-0.24325392186730263,697.7151411512612,368.5584527840005,577.7679467985381,stand
3.1051752921535893,0.08111235113872653,-0.02506507344974044,9.938238637064513,0.23003981052791106,-0.5302049025216641,0.6500027991919729,708.4522329905393,379.15661061356946,630.3365444469615,stand
3.1552587646076797,0.03927809933093794,-0.11087009960105118,9.867149905722014,0.26610909386442083,0.38803319171314277,-0.13943455712860509,584.1726303446694,331.0719469552154,633.4061209530864,stand
3.2053422370617697,0.07164239122051115,-0.02624349225863455,9.93339344968076,-0.035188046392077316,0.04453809832671191,-0.015507865431501998,782.6572095854698,402.2100429787811,632.1486428529564,stand
3.2554257095158596,0.0696389913730097,-0.07351726348152599,9.922439173358164,0.34259548024866304,0.5895313750729423,0.5351804556959127,693.1178859955435,396.714452089058,625.6770519384609,stand
3.30550918196995,0.0708710835854748,-0.09687240067304483,9.897961341331074,0.10627504295714128,0.11271154224359567,0.26593595492262867,688.7604652122443,336.02822725429445,577.0386066155644,stand
3.35559265442404,0.05657818543187512,-0.04468870172362936,9.946693901365753,0.11367767431219185,0.06292557709086409,0.43829265095311126,711.9323419250021,389.5943101192531,607.2121060778427,stand
3.4056761268781304,0.11785368722541403,-0.07378519317072867,9.920422918316332,-0.18131512736947236,-0.21324007240604173,-0.21609396668382228,597.5677072280935,305.37770413163105,576.0895840197257,stand
3.4557595993322203,0.03406318575395774,-0.09621669337904042,9.884306725668656,-0.3966015028947889,-0.1410070750244578,0.009881867774174767,671.1165338743119,460.23276664288403,656.5884577545658,stand
3.5058430717863107,0.05857721115411099,-0.05096004685930128,9.929053979604705,-0.22823141070447364,0.11357174868971266,-0.017510992141115983,728.7189353569336,403.94216422241976,610.2901826463211,stand
3.5559265442404007,0.02884599190844179,-0.07917554187255166,9.885846204205066,-0.05245966334022287,0.0833173455306346,-0.1348569583267236,631.6196821420959,417.6389433603362,584.1821146383387,stand
3.606010016694491,0.03849042662006991,-0.11184693235809584,9.893358072690443,0.7999414570078222,0.09779718173170526,-0.550425489959584,710.7959115309567,377.49596953141656,605.5087249130643,stand
3.656093489148581,0.0906627402062581,-0.08146993746662026,9.927143327919065,-0.1689388544036143,0.037385247776641185,0.033961957685022054,677.0096268459207,379.5552770762377,618.2839531181895,stand
3.7061769616026714,0.06889502195435351,-0.128162842207365,9.92190454126165,0.08736149702617771,-0.11699337714236913,-0.06030275570798544,667.1350474917384,362.0960214470261,652.7868040359513,stand
3.7562604340567614,0.12700854862003771,-0.036023802706875246,9.91432415657274,-0.12289106450542553,0.36995935792490175,0.07456060641457307,733.4768041181314,376.3492494269455,604.9117802109968,stand
3.8063439065108513,0.11346040848921488,-0.03521918865822156,9.852750030818834,-0.14933536124425292,-0.19660432929532617,0.027315960846295964,665.853931497411,395.72294245471005,672.5253516592262,stand
3.8564273789649417,0.05854747485685436,-0.01965341601956465,9.934684530961828,0.42634302560707077,0.26090762230224,-0.050679935535751085,688.6621528410908,341.292139021905,649.9242913357027,stand
3.9065108514190316,0.0549810313437203,-0.031258315979375555,9.899036422646983,-0.43663707915384065,-0.2987965204995568,0.24489491051098844,616.7941140884029,346.3865041028333,611.1471535256057,stand
3.956594323873122,0.07674392020140694,0.009383604644307236,9.888771941595454,0.046277342392116005,0.08538137153518895,-0.47698052006061237,636.6958250816095,366.5401490401556,621.5923541300863,stand
4.006677796327212,0.055107718056379096,-0.059109819271742664,9.877453990940333,0.24660646366615577,0.09002298641209427,-0.1030576684344678,619.6655086082438,377.04778050643006,633.7389643234523,stand
4.056761268781302,0.10652566213360495,-0.030670538989868254,9.915185608607274,-0.3863768381854912,-0.023097511369551526,0.11927766283875653,621.7586279741217,348.445632329032,694.9126675139662,stand
4.106844741235393,0.03877157125217356,-0.06504703313011452,9.911818638727242,-0.10204631962005516,0.17079413524483666,0.5522639514198923,676.9140113831436,348.9212106254295,717.2183599022762,stand
4.156928213689483,0.06112820593348622,-0.10685085741746934,9.902345276304047,-0.5311813892390684,-0.25680497804634367,-0.3604639787940086,715.1407423598653,321.0164082422774,636.1297900464251,stand
4.207011686143573,0.10539018540103608,-0.10034761541183972,9.909454204426414,-0.03378233090040673,0.16986558123750142,-0.14217892062666018,653.3854661055816,403.8307958089411,685.8681103420021,stand
4.257095158597663,0.08850497790963908,-0.06158860788541665,9.948352588277386,-0.18416526856879908,0.26210879465170134,-0.1529545292583014,651.4750210050504,399.6215794905778,592.7496510004111,stand
4.307178631051753,0.08088408418310854,-0.1293006425557437,9.933628137779118,-0.2740756565797515,-0.46642187846294003,-0.027426072385036873,661.4706125525596,451.4731710233933,629.8995262672323,stand
4.357262103505843,0.0655197216862185,-0.04291235718003359,9.921883665580026,-0.1399945339014609,0.026328796931070167,0.06248890243169607,685.9225070398293,364.4169719219746,622.1949261164133,stand
4.407345575959933,0.07615880898538635,-0.09492843396791417,9.906717750253133,-0.0997328769546868,0.1514775004612003,-0.13687844874850402,673.7612973898404,406.33117063266894,607.9001728755542,stand
4.457429048414023,0.07183403579907131,-0.056849417729402205,9.93236894746022,-0.6223855947297894,-0.15562090850639224,0.28073243209243803,673.6802213073315,320.0532860052606,608.7827022279118,stand
4.507512520868113,0.035693244436020406,-0.06829329096515765,9.895195059202265,0.08418758251699976,0.25790981563981374,-0.4561473511286992,677.9350529873843,400.06056622839895,639.3719680312922,stand
4.557595993322204,0.06627461477909247,-0.06355125948093487,9.909044832220209,0.2855440618033242,-0.2362252552076895,-0.20443588314699188,614.710408843005,429.11023153278586,588.1272044853145,stand
4.607679465776294,0.07700865530384471,-0.11456435816966487,9.888684140897002,0.20002024784059141,-0.20957391274108145,0.16737098677763546,707.0809409141017,405.7264576091496,623.6685579917795,stand
4.657762938230384,0.10478843251702638,-0.06362005715388903,9.939864626462981,-0.134412611078797,-0.1325265512199681,0.13018537332501595,746.7451900375388,392.56462402294693,614.3487267385697,stand
4.707846410684474,0.1221116839638344,-0.025155378164568268,9.944058056997044,0.3912956151595284,0.3180611901456288,0.007077093697612014,734.8612809897842,362.1052404009967,591.2758931806836,stand
4.757929883138565,0.09238076635324598,-0.05940358785085894,9.929606336857253,-0.2331599838221171,-0.47574950882605355,0.3990039113906247,695.8172189811862,395.25553132995645,600.5216132441474,stand
4.808013355592655,0.08338891961899447,-0.05077750532203946,9.948992853015335,0.5263698322637445,0.18489735080437908,-0.006822850749786783,670.6905179078311,382.9553648126898,589.5862613969608,stand
4.858096828046745,0.06043742281023093,-0.08192693970465817,9.925034674487916,0.3103736902265814,-0.13719053027295305,-0.0140816070759106,650.7711773605248,355.67957580007163,678.424226193888,stand
4.908180300500835,0.0881768430795985,-0.09195369684399562,9.9246151127852,0.09819706626530078,0.37812353020400263,0.2784729229415339,674.4005610209791,401.01303849423397,599.8839614537787,stand
4.958263772954925,-0.03100060732812264,-0.09557256160348584,9.944143618312168,0.12040701429127056,0.0477473374678758,0.2490366585382444,705.6889646982561,399.969775035543,562.5917450897957,stand
5.008347245409015,0.07256317951506018,-0.07131393030693274,9.874446204587711,-0.1489439792125369,0.321026639026965,0.2613314010502261,709.992372425045,429.9810543644037,577.7034064417403,stand
5.058430717863105,0.11163504123898108,-0.08717062989049343,9.94118678209937,-0.019673854440749816,-0.012189950459368359,0.12013351945842062,657.669307897103,394.5298422063144,596.3768672766384,stand
5.108514190317195,0.06793128463797077,-0.04774952028211524,9.928747014635825,-0.2969276084934816,0.6184526788057547,0.0022973162093555327,630.7030941065478,427.47307451064654,630.2651386043383,stand
5.158597662771285,0.09413471010996294,-0.07095254859074139,9.905294249275181,0.23140309756347635,-0.15329036963919296,0.002439331431918845,767.1805366010834,340.57822512960894,626.5193591649419,stand
5.208681135225376,0.08385939830227643,-0.048841990093181534,9.903266985334346,-0.013864963805426386,-0.3105954479303734,0.22088814442859572,707.0876198889545,349.5492380888176,610.4048678975996,stand
5.258764607679466,0.09490234353089759,-0.09058737800277011,9.988735371211181,-0.02525561962543982,-0.07939342579738214,-0.19223919012734247,687.6943396458985,396.5474792341485,626.81660771697,stand
5.308848080133556,0.1099113166648171,-0.059544159812128385,9.888416946845824,-0.2561973481098885,0.14413973949664347,-0.3551318278449263,692.8949282293879,406.2936295349866,630.5398973177396,stand
5.358931552587646,0.09101385693146134,-0.052862359996312724,9.938645653122817,-0.01402988434122633,0.5033842717111064,0.19522491632038239,665.7584100031157,316.38741487787877,624.8412644614895,stand
5.409015025041736,0.05736236146399834,-0.0783581068269989,9.96626088135493,-0.17762887017287077,-0.06508369195066893,0.11829163006104103,640.9497625919223,369.7640532962216,565.762160071884,stand
5.459098497495827,0.06700247697736085,-0.06892792412140568,9.935545773496887,-0.16280734850639972,-0.20163083864300102,0.2254346542474289,644.4797585106124,346.7100712153662,565.7389911146464,stand
5.509181969949917,0.060557658283568405,-0.10322786452590554,9.920002808988736,0.5651534790882394,0.23182345935200757,0.01563482446853063,686.8935738049422,369.7973531640424,650.1033621281576,stand
5.559265442404007,0.12605917920280812,-0.08882028099271991,9.91933798305649,0.24418424715416537,0.04924676653017676,0.11663006746249242,630.6194580490388,379.38068108822586,588.1376482898509,stand
5.609348914858097,0.07265631495252163,-0.0721620939287016,9.921046048473452,0.5969629144403626,0.024958631342239943,-0.24676554824283253,680.2877417284477,389.84653238218357,659.3951537752088,stand
5.6594323873121875,0.07852612752655326,-0.05979960094342691,9.917442177457431,0.05156171294396718,-0.18103836855637684,0.13516634192637283,763.068329323572,372.50639895036534,585.0777664102935,stand
5.709515859766277,0.08982012908585833,-0.09170151129162257,9.888574030574617,0.2203900522909334,0.22496359857806142,0.16649195751714269,596.7677329002892,371.2938532017545,638.970424569567,stand
5.759599332220367,0.06604114996786116,-0.05553798629959091,9.926849538879042,-0.14099407074816547,-0.2240830777993086,0.1832398293728992,605.8468901851876,366.3667876266432,575.2602844659756,stand
5.809682804674457,0.06262371937902617,-0.04712221822967476,9.922465825566343,0.3507006186083751,-0.068961418434545,0.2901786875837682,712.128072528469,357.1661219464456,614.6798914574287,stand
5.859766277128548,0.09898982654698955,-0.06415767729422564,9.920832161998133,-0.007138703501546274,0.06023143343142507,-0.12465824288880585,678.0189061777995,420.6070315090022,605.2585935876017,stand
5.909849749582638,0.02621550534811789,-0.025553219537728197,9.92466451876875,-0.03141468537585258,0.0013380660323313793,0.11517771068150776,702.1542784555295,370.8605217695214,674.3661907785364,stand
5.959933222036728,0.08742691057579804,-0.09574922726514645,9.91536411695457,-0.06248361923330318,-0.259301978507085,0.0385863381313609,699.4982009954393,374.4464424177004,613.7959558014651,stand
6.010016694490818,0.15956170125555877,-0.046990796809890545,9.945914887688021,-0.05961272603695338,-0.4500359915702559,-0.13842731209249873,693.4158341681949,399.8950305061198,679.0195276847065,stand
6.060100166944908,0.11892843713279994,-0.07407765809041383,9.929059440484384,-0.1003760096234946,0.12392242756769795,-0.32007359147090764,682.5047621418157,393.35519919485466,649.1021160452467,stand
6.110183639398999,0.0837914133985491,0.036209994918121866,10.01072065484498,0.04617346471830911,0.4220590290971217,0.03944235070679695,757.7191059958492,358.3621471809715,638.6041846169011,stand
6.160267111853089,0.08463728288188882,-0.051332575662143526,9.849989898634508,-0.03759685300985218,0.08236238738714301,-0.08558693860357118,648.9204211068427,386.8385253308068,610.3845236205249,stand
6.210350584307179,0.1282899378389668,-0.05751760335425818,9.866794102484361,0.1181738309355733,0.36023726097539316,0.307912046424602,690.5424547013681,379.3463025585925,674.8291337626403,stand
6.260434056761269,0.06070108984764637,-0.07492328682099086,9.900600725749651,-0.170378165406639,-0.41910595386942967,0.21117503923173997,682.9728783884601,346.30191731104117,650.2862009166752,stand
6.3105175292153595,0.05333646991389622,-0.07520280362022486,9.876553146776867,0.1032069287238639,-0.0049065544624605556,0.2865857793318729,719.6132095984391,365.4288584975548,696.568114566424,stand
6.360601001669449,0.05093794673778443,-0.0038616237665709124,9.947087267237027,0.15587832381978184,0.40119042260002824,0.06063586329425692,589.59256827403,386.67321428631203,687.0688181759612,stand
6.410684474123539,0.06967898724449026,-0.06009601786130818,9.84532948846747,0.062200014898528805,0.06466565775968529,-0.057139321119625816,635.482743952101,433.2294534621593,577.8395005985523,stand
6.460767946577629,0.04246187005161988,-0.07819692576573212,9.882900467641269,-0.1459847842681513,-0.7133650777645529,-0.04411683939946413,685.6982647951862,363.8842948674355,680.0550544036195,stand
6.510851419031719,0.07302480691575834,-0.06788660794858434,9.952562781631519,0.33986497332568627,-0.24178229919514385,-0.6290444028747991,615.4969094141782,395.663890772844,644.8319940794527,stand
6.56093489148581,0.09536980190099321,-0.025814851630409544,9.917130008532052,-0.4595822771896781,-0.11964278111452871,-0.48376845846379807,702.8594968684788,375.35879758647275,580.0045788118862,stand
6.6110183639399,0.08767246947098371,-0.07086430763755343,9.922506944273218,0.06002518900617381,0.06072615978545556,-0.23225376292305047,661.6136047777679,369.1258916226579,553.7769453975072,stand
6.66110183639399,0.07295699481670079,-0.044432923127856426,9.91580163162142,-0.07472390125230385,0.07806339916488858,-0.033399596142483556,684.7036471681829,458.28373814951055,526.01421902277,stand
6.71118530884808,0.030186420642079798,-0.06393092102012186,9.927208619319494,-0.32018226664208077,-0.07220249745008936,-0.15408858986053367,688.0947621223356,373.6303847444499,649.7582335715284,stand
6.761268781302171,0.07482444530819006,-0.0689193470149129,9.87581244549891,0.18278995288675853,-0.11730030770396767,-0.12638100350506085,721.4184914023855,422.6204341682927,578.9468439772638,stand
6.811352253756261,0.07028538950077678,-0.07422305491371484,9.913088310882449,-0.16132435074550197,-0.13546807778480086,0.11757133075248911,744.3657452960713,358.19478267598475,563.3579218573727,stand
6.861435726210351,0.09195853762032705,-0.0310248629558671,9.88659852608679,0.009493984090254056,-0.1857951163480913,0.038045021564520366,641.7532542566046,326.4362755463247,582.445132974749,stand
6.911519198664441,0.11026241226831263,-0.0995685696978722,9.89785454889698,0.09156741008071032,-0.19396562165355632,0.11077195897628936,704.7955147947151,387.8665961726832,658.1213399496739,stand
6.961602671118531,0.13428036785170785,-0.030357578946371703,9.87287088484663,0.4683541331233531,0.09584204530149684,-0.19616940870911487,626.0510879653989,413.39848143377077,621.7980440129379,stand
7.011686143572621,0.12240757075092619,-0.07064936101510758,9.95649430632761,-0.14459627852147106,-0.5683541667268823,0.04670138457439654,649.8787996090956,417.65483977515214,628.7877639668634,stand
7.061769616026711,0.07313150944365286,-0.021261728544407818,9.925320287949715,-0.05116830436565216,-0.20752778109307513,-0.21099559024605724,616.3485725238459,403.6962290249657,647.5014568322491,stand
7.111853088480801,0.08212195207841194,-0.0315118520508441,9.94923570728445,0.04847369407045379,0.17426111153240867,-0.32654551679172455,664.8652912982536,387.7931742638018,528.4247920270144,stand
7.161936560934891,0.09360292612492573,-0.06941684423612732,9.909732881186745,0.030803008003716457,-0.30990379963267733,0.5898312338494173,659.0449315408171,368.3757614778034,627.927892329753,stand
7.212020033388982,0.07548767307534465,-0.014076490268980418,9.885221173617149,-0.640211152860194,0.0536410067328517,0.13140412058360232,653.5751402052684,370.6675134956832,613.6673541775654,stand
7.262103505843072,0.10154515908050556,-0.036049049417723765,9.894543975680634,0.017434116071744162,0.13626023571926077,-0.32987052596141675,647.3484274575303,301.88660193555825,584.9439163511779,stand
7.312186978297162,0.07175117183357071,-0.12144604073333497,9.925923695901531,-0.1686757786753499,-0.2995585895911239,-0.5462499920356618,677.3630393863234,370.14508194229796,623.6824628555564,stand
7.362270450751252,0.05578604315146182,-0.07119902996968007,9.949860611833264,0.07083883258975424,-0.20536762559440522,-0.22951010044370382,702.3597237958537,391.2881050201708,607.4459191754783,stand
7.412353923205343,0.0663863042943561,-0.03508571536696016,9.911935235147295,-0.16271432431617008,-0.19159975408201352,-0.012123383739178283,675.0797472471812,443.18987240039314,648.4552277587698,stand
7.462437395659433,0.08402346285605654,-0.04697811010394652,9.871949848725551,0.036090658983012246,0.3320979580942358,-0.2314347649209969,679.2063744012391,410.0301056043079,661.0311295895273,stand
7.512520868113523,0.04979969018943939,-0.0627972854928136,9.90811166545099,-0.45795959456522456,-0.19419330080783798,0.3589236913963118,728.091810330737,337.9366707915457,587.9167458283317,stand
7.562604340567613,0.07070009447699693,-0.04036675452116259,9.891927953716849,-0.2498417607663822,0.36736519030682047,-0.1580992634115318,681.9345609386695,424.0140314370462,618.8311111470999,stand
7.612687813021703,0.09680354245305399,-0.04892751962677602,9.913642665884398,-0.27224460373342374,-0.16049773890243377,0.3274684942988754,599.207222024944,381.1032823445156,555.5434192085515,stand
7.6627712854757934,0.0948865528658947,-0.06325333324717738,9.964985643550259,-0.05515080552320759,-0.2722005122768862,-0.19863515433263917,641.1693180652741,414.4213933515627,677.4594673298287,stand
7.712854757929883,0.03618892403734981,-0.08810691727049524,9.8651723000167,-0.049762080915359684,-0.64258038190067,-0.19887182122529193,699.4175525304462,394.13908621193434,593.9730035110895,stand
7.762938230383973,0.11483969706272695,-0.06798665044984534,9.925430001656169,0.17838840740513573,-0.041747746194331144,0.20813164260335892,707.57440938419,337.96693858449106,613.940146641536,stand
7.813021702838063,0.06179956529211981,-0.0890548047919554,9.936984115525634,0.5061263922868403,0.17575142057090923,0.3904996779620511,666.2149135926626,397.6575643720735,632.00507420735,stand
7.863105175292154,0.13834929060972873,-0.03665997738267708,9.893465960084814,0.19959419243852802,-0.4644447180279787,0.34401578866941146,741.4910220555579,438.00036548993774,637.9171479902567,stand
7.913188647746244,0.07495561374237747,-0.09698187525278901,9.925863364020083,0.6781725871412358,-0.007448017916217814,-0.10085327025485426,691.8170881103931,395.04978590121385,584.6966094373233,stand
7.963272120200334,0.07348472211301939,-0.03948131048061075,9.966978798059529,0.36589455573938773,0.35677403138653896,-0.44172232278591284,761.0391335778688,331.5658460719843,539.6589004191037,stand
8.013355592654424,0.0637763696947086,-0.051835105999988015,9.94067574702454,-0.7577026817143718,-0.12889321426809472,0.2457726458671714,696.6652918698883,346.9055015351413,624.8290790000103,stand
8.063439065108515,0.026066965053909597,0.012881983498418861,9.878315282807963,-0.4184811784323073,-0.1913177560300018,-0.26816010798180717,656.7348298246671,447.2383304629567,602.1340688574712,stand
8.113522537562604,0.07141447750276941,-0.06374722547837039,9.95284609976117,0.31714673456866793,-0.035531922786154524,-0.11216471317363799,698.1001692389318,359.6776049053396,546.2474443838581,stand
8.163606010016695,0.06071010927036628,-0.047431678899583336,9.91483214175233,0.0652355291265967,0.048022006390466054,-0.45826334740918057,724.8515994288141,405.5895826663334,675.1700244442998,stand
8.213689482470786,0.06622065113124882,-0.02916733805099524,9.900732109004144,0.25974539023017534,-0.09030891002758305,-0.20708313674550097,697.1170886842875,386.7458782458322,662.2782514045663,stand
8.263772954924875,0.1044868428885628,-0.12132337715454583,9.962676597994106,0.10496638334360453,0.11263531017316526,0.026679016097300147,683.0380651855104,375.4114530377545,656.7067693655193,stand
8.313856427378965,0.06507028085773592,-0.028660678877747668,9.868778535010412,0.09232126242761902,0.21826361677157619,0.08367802973960467,649.142734639026,331.0260832083598,642.7743684042446,stand
8.363939899833055,0.08965165534911722,-0.030479137571538927,9.948965212670947,0.5481421930812705,0.32062200449997286,-0.5540357574870183,675.7428204323855,343.2016110349834,567.9162238817598,stand
8.414023372287145,0.07490750981772461,-0.04363463627095068,9.905590098838038,0.21691266484785257,-0.2591607842052476,0.323442628008788,635.0612952717344,374.7391083978508,594.9138432783013,stand
8.464106844741236,0.11726032001170297,-0.07556408651943773,9.93824704404254,-0.023105158513723162,0.33950143823552276,-0.1766767581290262,598.244063494044,406.0375220297942,628.0135052542705,stand
8.514190317195325,0.0597529269835398,-0.041285381820058004,9.905008998994717,0.29516757058985854,0.15597484195284564,-0.265756060393384,675.5934188477975,430.4198394929997,629.071250663153,stand
8.564273789649416,0.1043227131242978,-0.08405299908424928,9.87640857558294,0.22964032984521163,0.45794034217205243,-0.013100196843693469,666.942382238671,333.42533176001075,507.1466084209885,stand
8.614357262103505,0.12640437570707308,-0.03571677191684196,9.962793517708354,0.02558731678502072,0.06991253084749817,0.05751930519491427,681.3355438585413,334.3218544892704,627.9415560886252,stand
8.664440734557596,0.09418424234858414,-0.04310152251289536,9.888790410048104,-0.29232576603642174,-0.22009442706012425,-0.16103533012970564,679.0352068054175,422.4175222313922,612.5207881082077,stand
8.714524207011687,0.041852995487917155,-0.05039390708308329,9.911593995234465,0.0779168323439352,0.21478404631755968,0.0486642650984704,767.6075140850091,398.7188130321773,679.5483067821427,stand
8.764607679465776,0.059890267621425915,-0.04649723708034477,9.955494824066156,0.27819713580078104,0.11632418078447163,0.34213848721478907,680.7232924216798,399.16628374256254,563.0444975386562,stand
8.814691151919867,0.0767745968533291,-0.03432300867151176,9.903279778187244,-0.1679445779503287,-0.16646733774630834,0.34744728462956614,628.3519322300706,389.4258727654432,581.2185158030486,stand
8.864774624373958,0.11130958400623031,-0.05487709080341816,9.92654045778709,0.193546823342283,0.4333475003919166,-0.2553056727159237,700.5549368216246,392.503171349356,596.8548237989467,stand
8.914858096828047,0.1059005757818376,-0.03999455007906179,9.940945083101404,0.2387822442927525,0.23833502618120667,-0.06736835605990923,751.4604776977114,422.49046140258963,638.0741735050498,stand
8.964941569282137,0.09790144654292267,-0.08007961142037387,9.91494152604522,0.047875664857518,-0.4477309856080139,-0.4296819405357285,703.8668526185127,455.4864501802623,466.2532494737926,stand
9.015025041736227,0.09822001958733151,-0.0881104438805206,9.913851986418582,-0.11685699097395605,0.1166764834171857,0.2787301628630147,682.8744026617272,383.12798410168017,687.0680394910506,stand
9.065108514190317,0.06273175594863149,-0.025221518867032028,9.891520396971334,-0.09583113505666362,0.13492217503703904,0.2536231427158407,629.0505564512584,454.0048579582749,688.4586594561227,stand
9.115191986644408,0.11847106280895332,-0.06744028237705907,9.918240202892429,0.17347270016598165,0.2586352488266647,0.18674543964262638,635.4022233773358,436.3938718251691,585.6104123605667,stand
9.165275459098497,0.10105930597318755,-0.05986904374414531,9.908842056995379,0.07236702857789742,0.018717347889037592,-0.15768007832918018,671.6985738629259,411.72913672258034,688.1768711137022,stand
9.215358931552588,0.06972902083445025,-0.09272694380561944,9.878939114192331,0.19253868694898307,-0.4103106385172864,-0.00016959776520724995,595.33617028189,288.9425064896655,553.2230943168287,stand
9.265442404006677,0.07374209190826297,-0.043301659139375115,9.912979247534814,0.07100379242733058,0.34397377998092815,0.34801828723340006,688.4566126356036,359.85428216933497,603.3536326402832,stand
9.315525876460768,0.02082430638355745,-0.07160418126294067,9.934793122693423,0.31369008690329053,0.20525551583552312,0.29786078522298315,639.2511222956366,433.48458271931895,630.3176530305739,stand
9.365609348914859,0.057187876826165975,-0.05662021485127187,9.954135329648226,-0.4361435389187323,0.029348750515379066,-0.10219564018035136,719.2975735021254,384.0030880787567,649.5047130935349,stand
9.415692821368948,0.06730669760497815,-0.0844823198904486,9.991358591994452,-0.046081575310855515,0.03873752515852732,0.04208099173774434,734.6182141520966,436.10666843471756,578.1370154618891,stand
9.465776293823039,0.07406589217693026,-0.05598187021725706,9.905079658411383,-0.09930997051568412,0.08765180896808346,-0.12575153876559989,676.6165293625944,349.6336109554944,648.7164042330747,stand
9.51585976627713,0.06134514689724248,-0.06313536418436587,9.936903022653336,0.18764507229995406,0.4026146505522796,-0.05871512401906375,680.4888284585775,368.2712142217858,613.4477431169438,stand
9.565943238731219,0.0780974024040655,-0.08628295641512831,9.978668757719177,-0.03137337598318278,0.04573179131051672,-0.11330664174204089,679.2849359043378,355.2142738423515,638.4611684155087,stand
9.61602671118531,0.08262459112217958,-0.0902072640917553,9.921026695143027,-0.18137103312498298,0.09328324074599234,0.3075587941432528,650.4438169834452,413.2023680962782,632.6643573130817,stand
9.666110183639399,0.08408250345932897,-0.015182287424597624,9.94202939759497,-0.0014002363776864522,0.029969242683190497,0.14283496406928844,673.9680584930383,392.430404305586,581.4307286472526,stand
9.71619365609349,0.08732939696414667,-0.07836642026515643,9.898967449467689,-0.09989744941442033,0.20789007577779678,0.06959904162102151,629.4426414304899,364.61710831267624,584.848601129464,stand
9.76627712854758,0.1254978127040996,-0.07817110002225972,9.910911779291643,0.16885451831802742,-0.12642825747311306,0.3141094801107851,704.1873739978855,339.7472557256,520.6897105999044,stand
9.81636060100167,0.08670277287430854,-0.06971395132464324,9.89932469813578,0.3011135408262309,0.4044354928422007,0.09914057767385231,749.6804977413005,339.4386809966809,579.284275923532,stand
9.86644407345576,0.10490435159988257,-0.058106317889368375,9.95661128655279,-0.027702794539948755,0.16270250552006463,0.13138880863051425,694.2066977275667,393.6251652947681,650.4160311496707,stand
9.91652754590985,0.09600943622407275,-0.07863271457613573,9.886566028718002,0.16165887520082675,0.29262313783751015,-0.5423956055159571,728.4548375112545,381.08758361570546,665.7308387527955,stand
9.96661101836394,0.06691719027993788,-0.08339422247620495,9.893553561687677,-0.036763308855127304,0.22262052180166525,0.405583429737415,749.3688802791274,391.59129668842616,637.0002057322462,stand
10.01669449081803,0.0951326502034638,-0.06745295263519836,9.881499489474422,0.40767332805319273,-0.2747739766494561,0.05135663137672924,636.7793676530889,369.3238256909077,618.973360722671,stand
10.06677796327212,0.15090576258210842,-0.05268423333781524,9.893691475956427,0.011290257868458647,0.3282689629282051,0.34912444753210775,608.8117972135663,352.07401431280806,597.9987998393035,stand
10.11686143572621,0.06104712135646366,-0.07553967563806516,9.866736012381772,-0.4757633445481715,0.029874952129687854,-0.3204184248948253,707.8207295702604,336.91908002801625,572.4009623737197,stand
10.1669449081803,0.07514402292742782,-0.07100894260337105,9.973062866604694,0.5797047573745758,0.1320749096412913,-0.03611059241859989,623.4019525771571,405.89314767218855,609.9109302106342,stand
10.21702838063439,0.04033772561058525,-0.0358551844161117,9.891291612261117,0.1651258902617868,-0.35096015190330293,0.2488540182976485,643.4523685650873,349.84589532233525,634.6604340387285,stand
10.267111853088482,0.11084633972515147,-0.04094930462188561,9.989313017872425,0.4155871337989858,0.1986777281510485,0.2285300078032667,680.204889906323,380.10083009321744,592.8098515113138,stand
10.31719532554257,0.07002389905397756,-0.08165005966635794,9.990583442309992,0.19591216461505614,-0.20303111513665714,-0.031997047400563576,765.2097137310951,423.1772581757854,623.7040052564018,stand
10.367278797996661,0.04397455605824186,-0.034997374397919515,9.94114690101786,-0.050667468733772106,-0.13029968722727456,-0.3181423085137254,722.7655674111365,339.6205602931982,624.668680138621,stand
10.417362270450752,0.0691031400749934,-0.08502142815901995,9.934651788650694,0.06637470094483007,-0.23090767607976764,-0.1045378489845892,701.2848981918709,318.1946581708406,658.4797144740411,stand
10.467445742904841,0.08220741656496836,-0.012319760638764256,9.918684199195502,-0.10611971592064241,0.2248904574872929,-0.49264558234181527,681.38074980847,369.6301312956255,582.2996140718542,stand
10.517529215358932,0.06973192716299176,-0.0807952534070969,9.931606454177862,-0.012798340266886487,0.23220576541274018,0.258105114765076,704.2955497341312,411.36825294060634,653.664006289461,stand
10.567612687813021,0.04064954162751274,-0.07714974852259268,9.92529277852189,-0.00682353085957351,-0.018006257752450988,0.028317900663109546,615.9168769242162,345.8908804228049,613.4760246077493,stand
10.617696160267112,0.06345129929664095,-0.09107254150354506,9.922308763741851,-0.2045242632778139,-0.012895728124273982,-0.0009765501887334521,744.921512060246,400.33937721513513,686.2382639268434,stand
10.667779632721203,0.05879584774922026,-0.07107978435978556,9.9655305577006,0.09223838365019058,0.30440720205334487,0.002448368675102987,665.3722602692957,495.2658631996145,622.1043353019224,stand
10.717863105175292,0.0980066993963217,-0.05685240819598119,9.958609873920325,-0.010976461732947092,-0.08158180775358845,-0.17902163852367545,670.7580824407385,395.64465519770636,644.2824055565867,stand
10.767946577629383,0.08463346087393978,-0.06072136662799249,9.90339555591162,0.2153878555848513,0.0021411219692455976,-0.15497182905273796,696.0550654560919,303.76028916877186,635.2794311980275,stand
10.818030050083472,0.07659026920161283,-0.0590971226944364,9.910119013730291,-0.5385318917060465,0.5879197826631679,-0.12479426400098403,726.8162152510754,392.60271390056386,662.2603530421652,stand
10.868113522537563,0.11054503316526171,-0.12824958525126873,9.923968577777933,-0.2549934391400646,-0.03485140052568117,-0.11055694939863958,714.0790476914236,440.8525130013272,565.1487870016585,stand
10.918196994991654,0.085146810519596,-0.021150153752133978,9.935486253936755,0.2267820020155431,-0.35559773056739136,0.20948755264981983,662.4582909296277,427.740898229528,660.3936662062554,stand
10.968280467445743,0.0825919157274977,-0.06739713460122529,9.899110214806573,-0.28022960710337774,0.2699330129426839,-0.2039889545498483,721.5050815630465,430.1147594170635,563.2232689193871,stand
11.018363939899833,0.07762574523486611,-0.07495918914456842,9.886714428436465,-0.019040814402996063,-0.1014097553765118,0.032046626496022114,689.8097554632246,354.98345376572667,584.9874973460628,stand
11.068447412353924,0.09703001202730781,-0.12873282779147302,9.955492907249987,-0.1444265150097814,0.23294048203168474,-0.09766481966139312,727.3555240259041,337.78350101997523,616.5834889024152,stand
11.118530884808013,0.06328653639811967,-0.10777708640003682,9.948257715809657,0.35969566224229593,0.10402826087991499,-0.4391037710847242,630.2913234433996,409.29139770104933,613.773113212271,stand
11.168614357262104,0.08337486818657468,-0.028532931230125326,9.884071893939383,-0.0017557639347525076,0.06810598871830326,-0.1815186633941307,605.914066694095,371.46126655370836,650.56191873502,stand
11.218697829716193,0.08483157133594836,-0.05184059062792913,9.927347739481844,-0.21351732852010324,0.004146408051787537,0.20573181912182403,682.6409117363132,397.0701414635781,678.1133212678279,stand
11.268781302170284,0.07197027402820698,-0.10025372327255858,9.900383272929659,-0.1690203686940996,0.2972661569139619,-0.08767661333716724,698.436964929613,421.9094036044412,616.1150768227353,stand
11.318864774624375,0.02009085463573923,-0.05486972037341104,9.929792067648,-0.43391732586338705,0.005226898411127402,-0.04340459356844655,674.1502784438393,361.0558300989956,600.1606440090654,stand
11.368948247078464,0.04956978179958624,-0.032083213569831986,9.949890375161528,0.2513469556591546,-0.00895754983714903,-0.5871072514946657,639.771833226748,352.7732868705911,634.0036174118218,stand
11.419031719532555,0.12699526659412663,-0.035298558999058816,9.927768774280253,-0.14364580906892793,0.041197132392738006,-0.02741935746254517,675.2722114265471,401.55772794312753,678.0669525143809,stand
11.469115191986644,0.10969602892517968,-0.001281358714869757,9.893756463535334,0.11466195231006593,0.014655827115200123,0.7925226968248287,656.028439536248,397.9559058885574,582.0821875491655,stand
11.519198664440735,0.026268914320763857,-0.04741059056614655,9.94086080885148,-0.5614349340406535,0.021718813372184013,0.42495543115735984,639.2127603391181,408.37590268125365,620.8304116182253,stand
11.569282136894826,0.05032842656435254,-0.044202617952298656,9.913371023528166,-0.25272389760924074,0.13539239739351785,-0.1290071568419563,748.6600129356757,371.4618608235371,659.1105064438055,stand
11.619365609348915,0.08244219431972272,-0.07273928148842665,9.879588538708676,0.10825989780449072,0.056729334136097376,-0.1311313125240125,667.0401709538585,451.3624227998465,634.5191115977234,stand
11.669449081803005,0.02880873556318038,-0.0939626363383922,9.898227260563809,-0.5319553739325834,0.04324385377053582,-0.429427895638759,718.060606672012,456.44233521467163,644.9518777150629,stand
11.719532554257096,0.04670897481660303,-0.07885400515937264,9.939666727181137,0.02533876570445408,0.5485461953054815,0.06743591049926281,690.333700116372,421.2113254253021,687.9035561609288,stand
11.769616026711185,0.05411895804765167,-0.029551723951907118,9.92421835862122,0.291036015155401,-0.23382015107713144,0.040098937834954905,731.1728427176396,445.37387521903963,521.5402097166791,stand
11.819699499165276,0.09933757747908666,0.00017709116195186586,9.908284365121373,0.15235191145481802,-0.1315788880371754,0.21880355814544133,689.9678777537264,381.9060682033502,660.9168626897473,stand
11.869782971619365,0.08476042725461887,-0.05432965747056169,9.982879263865858,0.021747525892097448,-0.28519458580592216,-0.1255441207419177,664.3456745534323,414.8464282758549,622.3736468483911,stand
11.919866444073456,0.08974112459651422,-0.07657236390294787,9.928098772816407,-0.0947126017291487,-0.2940152377461471,0.2437272302756451,610.2260908691383,367.53007290109656,622.2743696470927,stand
11.969949916527547,0.1145467219886109,-0.09872941562936656,9.902246037348414,0.06764261818686167,0.0040223985220171725,-0.30519353158432166,654.4892416179243,400.45158650977936,585.5936268092698,stand
12.020033388981636,0.0929921730164511,-0.07568015857655164,9.910761243055456,-0.07662686690734012,-0.14952013374352535,-0.16577115956003083,651.9554539472193,362.43854310344966,605.0471104058234,stand
12.070116861435727,0.060155435966364024,-0.04488227251519174,9.907582464340766,0.15079666088243499,0.2519423892077139,0.22337170243894403,725.9019052550701,431.00071301436543,614.1148688970543,stand
12.120200333889816,0.10136959990462346,-0.046519706210926624,9.939859697264152,0.08657935901573667,-0.4047541691534621,-0.03157351710395631,660.8256568411724,358.010591518381,641.5609473936872,stand
12.170283806343907,0.05595661624075733,-0.05447876915314915,9.896964039736865,-0.2185787118175847,-0.15487401435880835,0.14778406374821465,624.8829256499259,342.7829745552707,600.2633986358001,stand
12.220367278797998,0.01578273814787297,-0.0717081738561488,9.944562204703084,-0.270899135794297,-0.053750827637773,-0.3850299233217539,711.7245028339997,356.67591971741126,635.9677537138476,stand
12.270450751252087,0.10842457921010047,0.0013430489100963658,9.902046144248796,0.4871497140387616,-0.11514794245459903,0.4362232761292594,743.9904725243949,380.48413524704745,581.1088096882096,stand
12.320534223706177,0.05985316337652505,-0.09564275517831256,9.970568729012971,0.2044996015584678,-0.05733828819013546,0.21424846862994928,677.2223270729471,433.735647236613,675.4431106085914,stand
12.370617696160267,0.07843479146758967,-0.0037500711335231862,9.940445963748742,-0.10680561258235227,-0.2311996871341559,-0.15876378410020142,601.4656240475638,426.0446593793432,626.9727031474093,stand
12.420701168614357,0.06538721214468728,-0.09270466707227437,9.913029110603416,0.19482759173760658,0.26160137900029745,0.42202922938600096,625.6075533073408,352.9161057579475,573.7819309539989,stand
12.470784641068448,0.07665001094397501,-0.06781587477449759,9.937279239245308,0.28423692408702267,0.21776478619321846,-0.20350733208629193,582.1300176770433,318.5237834072355,569.086881717388,stand
12.520868113522537,0.042344669014140156,-0.12542298812986724,9.920314694758744,0.06534636775205951,0.2556276511637867,0.1326728082948881,639.24078221725,448.8593960550859,598.0781139697863,stand
12.570951585976628,0.10007255730395714,-0.04686956700354554,9.883331477165102,-0.296517233285031,-0.04571183391070441,-0.010988728874413234,721.1225774054371,417.3824349437936,551.99112586029,stand
12.621035058430719,0.07375289662537816,-0.0349219293869006,9.923772505930712,-0.24340636368350568,0.44723322166209034,0.00017626441707374347,626.9134367371767,385.24593373292566,619.5110478625193,stand
12.671118530884808,0.09180993327813772,-0.04163781641139533,9.882225946287367,-0.3187577761351519,0.13234763460780172,0.15744909690355155,664.9893371614744,405.82339679622885,640.5247134774785,stand
12.721202003338899,0.0693444556077576,-0.01812750624091803,9.89540488531882,0.14030405299379217,0.24719257638777617,-0.20233789035138075,697.8912137257054,368.81450597197284,628.8700854651341,stand
12.771285475792988,0.09892160592697237,-0.09140196802076411,9.922783971324016,0.31073150744321254,-0.18682611998595772,-0.4613250665094234,677.2366745430514,320.9453462236212,635.1611322143169,stand
12.821368948247079,0.07207743940345662,-0.0785811597409253,9.956709152496025,-0.20593364108761014,0.5340908497650034,-0.3447169886449971,671.724944316172,376.18686459522485,568.7085613455768,stand
12.87145242070117,0.07004408486237136,-0.017737282701717108,9.963693567279286,0.3580158959493787,-0.2548367628819355,-0.6213725582118788,742.3954902798763,455.871341889454,596.0659075043195,stand
12.921535893155259,0.05459261323158819,-0.09608221038574705,9.958394102446821,0.692805271223939,-0.15389115554572486,-0.13866945539887732,629.450460937175,395.8686510802934,642.7253471410592,stand
12.97161936560935,0.05480771851629063,-0.06285267740672461,9.89168080636682,-0.17424388242069608,-0.1801839685913212,-0.016282781805832446,632.6416777810655,386.3129491567056,661.4273777711068,stand
13.021702838063439,0.07503167825749181,-0.0625216846324284,9.911830705666988,0.26932817356902716,-0.38855017150721993,0.31828800815951935,667.1077200586219,424.9922249361361,630.3353815400171,stand
13.07178631051753,0.04973089886828723,-0.018794014094911368,9.95896952782516,-0.3355848107320949,0.07359128650053508,-0.06274405649253295,646.833556134016,362.4042434858132,674.3794577463492,stand
13.12186978297162,0.13532266403434226,-0.013049162107814642,9.941332678638402,-0.019393195796505985,0.35452799529302637,-0.3931202006345477,701.3692105253565,446.53370213996504,600.3278298735175,stand
13.17195325542571,0.10161595546352695,-0.012854871507274643,9.955491792177213,0.10787733954365238,-0.18742987068342976,-0.11539286450885623,684.7155447770883,424.44806022906386,612.6680971519189,stand
13.2220367278798,0.06591317691949378,-0.07543111550418749,9.872648644530413,-0.037968856948945744,-0.11197307386502656,-0.03519326562808277,630.5376544120576,334.8119256599378,623.2474704738223,stand
13.272120200333891,0.041108282051180646,-0.08168661808576969,9.945984542980213,0.10424967085969881,-0.2536905731352169,0.39896435379632,722.5929662564828,385.93211472875464,662.9476612932579,stand
13.32220367278798,0.06863021472497105,-0.09107958354483134,9.915151305606484,-0.37813101564602075,0.10981754932139039,0.009566662070623429,736.4690330770926,388.91789775953015,639.7115383632746,stand
13.37228714524207,0.027356488864725137,0.002588766218976482,9.88102878257003,-0.18250810982201834,0.0629792410860973,-0.1665431911593267,674.9689669849946,378.328047186829,687.4024607314714,stand
13.42237061769616,0.10837251625606362,-0.024864739023657982,9.950718939913491,0.24503241851875956,-0.20182256324558456,0.27294140180163906,742.6916845078065,392.1194592543858,619.7496670131025,stand
13.47245409015025,0.09825923986620429,-0.0212791549131989,9.9333878042075,-0.1326207235070995,-0.015870599853261076,-0.11489658100957896,712.1518222542754,373.7088342318662,538.5548472686521,stand
13.522537562604342,0.08075881616813413,-0.04491821249944972,9.985886575232367,0.24128689126045774,-0.48224680120027497,-0.12314810370068972,600.1932797600762,410.2694212974605,639.7699992699195,stand
13.57262103505843,0.0965533789563788,-0.07812459112254082,9.927912691892397,-0.1309894034173506,-0.06614436362220248,0.3171280703317954,693.8135690846206,411.38450014775196,607.3555543506977,stand
13.622704507512521,0.08086872991520971,-0.06867364615433645,9.929954286690132,0.11294352623149671,0.2585089280530674,-0.1838891942453194,717.1828742148762,423.3809479814237,636.0267577899186,stand
13.67278797996661,0.030225192343503307,-0.047964800339198865,9.981439812884515,-0.24729961767955466,0.18715399544885475,-0.09174749677763906,657.9725683180262,403.5145015542544,646.7274478454636,stand
13.722871452420701,0.07360881594066115,-0.09210717066228505,9.914674942734802,-0.16807341144640436,-0.11565910448063813,0.1667397043009337,669.5686076030618,329.4631258049778,643.5181170441626,stand
13.772954924874792,0.07238826981716862,-0.08999282915164696,9.899458542406737,0.1033266775943473,-0.4400221964272191,0.1710727528455787,702.3936317250832,405.65617910083444,552.5488657571257,stand
13.823038397328881,0.09516579974919062,-0.05414430844933427,9.883628563124221,0.02542663389477176,-0.3172041844095165,-0.26126423185778935,626.498239236679,302.0277021461664,577.8556416390155,stand
13.873121869782972,0.10433236206601998,-0.04401925494984892,9.882751360580107,-0.20804847779094657,-0.11481189044194244,-0.07847495497504244,724.2333909068667,404.7163988921925,509.4966038659448,stand
13.923205342237061,0.08233187464099273,-0.060848328240465224,9.924454287318275,-0.24898120610465801,-0.13792421268034746,-0.21386694475818763,690.737912670593,372.9650424935632,614.0055313052173,stand
13.973288814691152,0.09577372381689872,-0.036712679613778394,9.908748689791958,0.08717886224031851,0.060275841753181854,-0.0004659199982678564,738.0451428859323,431.40354844837253,696.8513998057657,stand
14.023372287145243,0.07398962384852192,-0.049352434494443764,9.924408665496518,0.41926797734839066,0.34004560282047996,-0.09879432484585032,657.7650394800145,384.03058166844454,540.7036223836283,stand
14.073455759599332,0.07671703269988353,-0.03855698533773404,9.929542774057609,0.3760817239809612,-0.29882614726079354,-0.04941330735510286,693.7374428019576,468.01482669452355,626.684376698646,stand
14.123539232053423,0.05144202604344044,-0.038558578673770445,9.93295204742423,-0.09540320431804995,-0.07170600198707253,0.0013444781398118302,707.9046857181869,424.8845225029487,617.5397821875522,stand
14.173622704507514,0.09523208984091713,-0.10690086701043082,9.819150531491497,0.140218012026775,-0.44078492673201375,0.13997364534994394,678.2591403404192,458.0115710539749,716.147792191318,stand
14.223706176961603,0.09447723713925302,-0.03144043475012706,9.940440081691543,0.13450853598459608,-0.04686346669410875,0.43772867690583084,687.5899192472808,410.6375562948069,687.4831617596169,stand
14.273789649415694,0.12106420883843236,-0.03731410800870353,9.893682258882981,0.08792363072243235,-0.15290030240267474,-0.009143774774269647,656.1642826529621,406.1906380488295,697.769864306231,stand
14.323873121869783,0.019932145240194724,-0.0803636261676684,9.864815709283192,-0.04582521389180257,-0.07526693142180393,0.26579190866421665,634.0786513157335,430.092051132389,626.8644855824067,stand
14.373956594323873,0.08836364100834766,-0.054913149252649396,9.899236126055932,0.024761466007179714,0.08063138719638535,0.10627386573115628,627.9625361878266,363.43632983232413,660.0049507629262,stand
14.424040066777964,0.07631682902058433,-0.07279020084510845,9.957845330345522,-0.07027698743136473,0.29235264599970995,-0.355300496699435,617.1611534294316,299.14131921404953,686.9487222190565,stand
14.474123539232053,0.11588474716189143,-0.05464919763538496,9.930005400353078,0.5450178110419874,-0.09228720027912245,-0.08731329814157485,693.4553902345881,461.88495013013494,625.8259529209788,stand
14.524207011686144,0.07483763822781503,-0.08149497223001848,9.917414318433412,0.7555159213977066,0.17800423086372003,-0.08558148287720577,681.158822265533,479.46805272805705,622.7430086269405,stand
14.574290484140233,0.10140710214621006,-0.09071408368401407,9.931150600668046,-0.01745352723494219,-0.13510110691609103,-0.3734834815901019,698.7586201857621,330.30126966853226,603.9409071359664,stand
14.624373956594324,0.058884099988103226,-0.05806380349969329,9.950370966534866,0.36010272120132425,-0.06002326671040151,-0.47674618377070427,608.0368723165349,407.9967583705585,600.7397087861302,stand
14.674457429048415,0.05273119533397465,-0.030849330602330628,9.923303589390844,-0.140879440136921,0.4903885731639175,-0.29846035851620717,633.7007185614473,405.3013250882575,624.1296598282648,stand
14.724540901502504,0.06236463889709566,-0.02800268277692835,9.916140682060243,0.16001818661889686,0.00034305662395123395,0.3421889682586917,727.6192124632287,389.4528220208306,593.2187197812286,stand
14.774624373956595,0.026274995884230885,-0.07062892764844683,9.897868075307992,-0.06451029697812796,-0.07712922518732052,0.16252159102119174,723.0525156779097,404.486040441727,581.0708225299788,stand
14.824707846410686,0.07493055837897844,-0.09271457207669892,9.936443912542586,0.1292461345907156,0.13743277843914398,0.07714428989731689,742.9299589579998,404.02659096626496,666.4608399395995,stand
14.874791318864775,0.11258883368041686,-0.07190404235853055,9.942325514029593,-0.23856449773054153,-0.06576847622297176,-0.24822674596422195,601.3999007661442,387.2109737818355,611.623655924829,stand
14.924874791318866,0.10739295588012521,-0.056278012411633244,9.918788063827114,0.03027207291263062,0.26272632895553294,0.16266350656479114,684.1100940780676,363.21703668721136,567.8784148932189,stand
14.974958263772955,0.10450312498901113,0.017875562501929843,9.946590671826604,-0.14035100668569586,-0.014527425768301358,0.08834426009423987,723.0495679265645,359.9888915111258,630.1035058891805,stand
15.025041736227045,0.0021141307374010765,-0.07035456896014611,9.897832823614484,-0.4110372811224701,0.21533018803479895,-0.48685791734272743,642.8325511735638,362.13495701952405,649.9207630084832,stand
15.075125208681136,0.039350398603373214,-0.11161719856338398,9.914735708603505,-0.017563090263102897,0.43272951365385504,0.09494236604831631,728.1864376083128,384.94630228798206,662.9621657166101,stand
15.125208681135225,0.04424751649478108,-0.05935783029982291,9.914983592368788,0.7281956714473133,-0.4523864791170456,-0.032999948597567025,761.3042616930733,423.7951895731545,658.1962800840159,stand
15.175292153589316,0.1461784253647062,-0.1358684871894583,9.905501913492254,-0.3754582440862984,0.010751375816141467,-0.01985203376470346,744.69937980015,429.66030827438885,593.7533287756772,stand
15.225375626043405,0.05180779232606554,-0.09047868753351307,9.897818675607274,-0.12766829371509544,0.37138645130750303,-0.18129328115984297,679.7605798983963,387.5029677134292,540.045179036175,stand
15.275459098497496,0.061469654981376354,-0.03848077722766151,9.925288242082694,-0.09176923313299315,-0.22047698445254257,0.269493414352196,621.2969777749806,343.51225318153723,642.2615178650406,stand
15.325542570951587,0.07574352954883404,-0.07509314167074924,9.941320343355628,-0.03855880778766918,0.2480529265577902,0.10449243415690529,692.4775349805694,453.0673168913896,594.5696306989248,stand
15.375626043405676,0.12417463340308516,-0.03843359471745621,9.961585597991261,0.07943842168837272,-0.23238975963544217,-0.10096589394836519,592.7552853182519,347.48956753967235,634.7994339381288,stand
15.425709515859767,0.046989316627671515,-0.03418511760151591,9.89718510990853,-0.3140303848244473,0.06481783115508148,-0.07385687761166723,605.8039212336856,359.7379301615411,673.577308584873,stand
15.475792988313858,0.12264771960686427,-0.08197768935660496,9.945208960437784,-0.23701537884930304,-0.1084017399063648,-0.3129882859102633,689.9988783242363,336.49164148140943,619.4401180866371,stand
15.525876460767947,0.10455265630407623,-0.05699631279847026,9.941001958753928,0.08150619575528431,0.5382558426463386,-0.023081038918261427,770.4299819516499,365.6616404876556,616.3511898623553,stand
15.575959933222038,0.09217944530029684,-0.09509312981969639,9.927567382757525,-0.12446958991832738,0.4824387553041449,-0.044494963628365435,681.9573138686682,324.41582255053845,643.8017240998032,stand
15.626043405676127,0.08477318234108955,-0.039672052601731345,9.921723625931746,-0.4905235794179665,-0.33662495987047975,-0.037025670130594504,704.5194040272958,396.25458273970133,609.9365984743057,stand
15.676126878130217,0.07694889485910658,-0.03302415409533378,9.91478736252707,-0.2538172847186166,-0.6333266362112988,0.27918573037536054,757.3353220652772,371.8128366449268,582.4270031177148,stand
15.726210350584308,0.00865838405876622,-0.10492602416753138,9.938121789312513,0.19301974519141585,-0.0358602464348258,0.01818431238219278,661.5887688223188,366.7439554068845,567.0298092577412,stand
15.776293823038397,0.08499404897093968,-0.0929735756409521,9.910679734508838,-0.25773398641053236,-0.0405135271534421,-0.06578014611117551,645.4842915016485,395.1119422482698,657.1252533005445,stand
15.826377295492488,0.09464749412142817,-0.04045850949832738,9.913735124578402,0.07767286661696862,-0.2261798277738941,0.3884762898447166,693.2979630485397,401.2856572953598,578.7547137533312,stand
15.876460767946577,0.09104883573482685,-0.07222119541572262,9.920922802619012,0.07265363006698872,0.09438999523226276,-0.09276530445717328,672.0493352515688,399.76869050199554,604.768646710184,stand
15.926544240400668,0.03694068367241525,-0.10895718924075645,9.918542010757578,-0.16230795552295518,-0.2195107086370068,-0.010946462553603972,681.8228584466965,344.3315877375306,593.4064980245494,stand
15.976627712854759,0.11185268538644119,-0.045329079873758074,9.89581985332862,-0.3835706407265478,0.24457094832493345,-0.5665319471938829,668.3159847166557,360.5845679040872,611.9803361141705,stand
16.026711185308848,0.023078989535780588,-0.02068109816003414,9.917252227737883,-0.05164668839402166,0.5216960069674299,-0.2874147661129788,712.5756036944986,374.03815101801996,571.2259799628316,stand
16.07679465776294,0.10780088372468905,-0.08068875046646741,9.925699206033087,0.18995018186213897,-0.43304290545710494,0.03981624547152874,674.2176886126296,380.2020226738596,605.72267792556,stand
16.12687813021703,0.1294266938496931,-0.08256287878704831,9.89154571278691,-0.19310936012065658,-0.3050264186983158,-0.12233859392120496,654.5827270203633,360.54438587541927,596.5562343136615,stand
16.17696160267112,0.1184371610459842,-0.08104208203557259,9.905298883293094,-0.3016061712935293,-0.3226651465158871,-0.054815090753929686,676.9431054322623,322.10678040844607,618.3343636562353,stand
16.227045075125208,0.018256469445956866,-0.09246259603389609,9.92223486925265,0.17043414114293026,0.010384337065046857,0.3199874227541257,697.8040593506944,431.03817674786296,584.6881625423405,stand
16.2771285475793,0.08434851841589067,-0.05471854046835104,9.888422578474284,-0.05997263384058431,-0.23282839351975312,0.12096561709561,724.9418316873047,439.19214402867397,626.8632767817077,stand
16.32721202003339,0.05915517060005568,-0.058253604000633744,9.87475947162314,-0.35720102333978754,0.08660723663904923,0.032776510651220774,740.8367514464815,410.39447293612,671.6511331802603,stand
16.37729549248748,0.13835597050939347,-0.08327751920466851,9.924764792569615,-0.01016972435928981,-0.2251924462657436,-0.11553015136305496,673.2050835207738,330.44771037646376,620.4249702632231,stand
16.42737896494157,0.07359174827701223,-0.04784265614727407,9.932061606923819,0.12248794322840648,0.5152376844366516,0.46630280054237805,740.4023014282218,407.93090165384234,654.601508843935,stand
16.47746243739566,0.12490978757244695,-0.05210752363750605,9.83855919418189,0.03977963004702627,0.27973087682344716,-0.0038442511214753367,563.1351500275823,391.00202757630785,591.7170100166429,stand
16.52754590984975,0.07043181562622915,-0.04650546758327604,9.898838548507943,0.023810656510371803,0.05940538227699415,0.35812861718614913,698.9555471500305,426.43509438119247,586.4652244525407,stand
16.57762938230384,0.09614069057793877,-0.008463125623448212,9.857158567051538,0.08613637154316708,-0.1815607835135972,0.058616260918814056,730.0064103274017,382.4523454042451,654.438950241137,stand
16.62771285475793,0.06806683148861191,-0.03803835062776932,9.893073706685847,0.031956159373189984,0.18624811869192565,-0.20423774830302857,638.3319968232537,357.23759603463407,570.4773929291503,stand
16.67779632721202,0.1290033078968843,-0.0525242118090752,9.921521080884173,-0.49243610840901325,0.3559955445574473,0.011800481968414224,707.9740699448618,349.0230608689009,613.1459968834452,stand
16.72787979966611,0.08391411973523567,-0.055764033394838264,9.980199567802531,-0.2118848918286523,-0.28137374073202914,-0.3249065572582793,599.639021615856,412.8484579346769,576.2357233458372,stand
16.7779632721202,0.09609089412728282,-0.11773014455989733,9.899594493904786,-0.22288295974432948,-0.02010209629299652,0.15190966082562674,637.990114356124,360.8753212822942,610.5376075958369,stand
16.82804674457429,0.13563707699428318,-0.04187430886216348,9.915995716616788,-0.731452790122331,-0.1622491018821531,-0.3469481529475915,731.260334178387,365.5009955176681,613.9463553330379,stand
16.87813021702838,0.06876818796331738,-0.043196388431383355,9.893431027945269,0.054936074036313634,-0.22513024068972531,-0.35351234735740256,744.9456966062908,440.9818943750764,614.6534166886704,stand
16.928213689482472,0.06345981173295881,-0.06989190756811871,9.946918265551574,-0.3475042133986658,-0.02587727277580766,-0.160722368466632,688.868181268682,401.28186463023746,661.7678592995459,stand
16.97829716193656,0.09080233681152781,-0.08912267859703644,9.930192254288324,0.04319004959807333,-0.024028438371743347,-0.024301627853806563,666.6893455693655,457.0175570962914,651.9553449097288,stand
17.02838063439065,0.08159057678138328,-0.04182130134325972,9.918282017673278,0.07402554387336971,-0.06464610604673686,0.2854568014259524,640.3013433111666,387.1041520889503,638.4935604620484,stand
17.07846410684474,0.041609300770943984,-0.07377151334104735,9.952276809075077,0.03702165387199325,-0.26485241813919863,-0.3690228289373759,683.8810891813615,316.50748537190566,629.9511252545017,stand
17.128547579298832,0.12044424329552136,-0.04430146289951692,9.955942379758818,-0.029085660984689676,0.15653386172040842,0.10236672351268085,583.8565721686049,392.07604862453763,625.8944770512231,stand
17.178631051752923,0.09426066180429185,-0.08489195933575516,9.918040866968592,0.026980786710936053,0.1637096755402101,0.17232800925305417,687.4819884169558,345.2100874194292,588.2516203813898,stand
17.22871452420701,0.11196218918077684,-0.044712142406620546,9.91701918889005,0.302258465901369,0.2527173227132288,0.3527924745142441,692.3850795916547,386.8858026989704,705.6882826473055,stand
17.2787979966611,0.08321109024434276,-0.008620518763306204,9.929857526431888,0.42963277802870325,0.0017339074912692907,-0.22767934072155468,754.2572762422769,351.67823613076365,630.0947880986573,stand
17.328881469115192,0.07061089673764594,-0.0926396403851655,9.94379319545115,-0.18151005405948312,0.04567416393349542,0.1468907245824066,669.7319670415167,337.3282623886175,666.6031785814392,stand
17.378964941569283,0.10775372359833688,-0.06985525355054133,9.859649078730506,0.34629659549366015,-0.16519044749146758,-0.015160045098323065,616.3780488135317,354.291165421024,629.2137461687535,stand
17.429048414023374,0.14240256071774304,-0.10233582658958439,9.894573286951646,-0.15488112641183815,-0.041364917131274694,0.1781615410811483,664.2624428400437,409.17565043452333,708.5277068682966,stand
17.479131886477465,0.10013354615721752,-0.04744895823593299,9.952953812286777,0.03162258533361974,0.2997507834391318,-0.20172408156221205,716.458793776663,422.46675358470145,633.5719183506542,stand
17.529215358931552,0.08143072078127124,-0.025720649332040012,9.916723174339062,-0.4909549939449749,0.11992015191189385,-0.07215350423164602,707.7503605426384,340.05157412166886,628.9285305160118,stand
17.579298831385643,0.08381953562838713,-0.048152568553894895,9.964113377457966,0.12961370027528746,0.03471379667942212,0.2929425666944104,761.6384421708885,360.57268805110164,613.5018121768868,stand
17.629382303839733,0.09769011579597321,-0.05987405030298176,9.898231399669951,-0.09681101532813502,0.18625130575021992,0.39391888833100946,700.0178541113042,404.3173634252582,667.839365350744,stand
17.679465776293824,0.06188715033788163,-0.08462124550398883,9.904743298624485,-0.19505366688894807,0.020786057644771788,0.1407288155744847,591.3383016965506,384.93621662169136,627.667727541378,stand
17.729549248747915,0.07057241238896142,-0.03248626558885256,9.874869267201287,0.25932814145827593,-0.20798208717903438,0.17810322642553603,682.9573052443906,382.9800411901933,538.0437555533697,stand
17.779632721202002,0.05606882018664747,-0.05011404651273813,9.943897467229593,0.0624474481549123,-0.31928300856560793,-0.37958141257045785,714.9864443001538,367.04350125353824,601.2174057327135,stand
17.829716193656093,0.0817885228962271,-0.06848291033552033,9.933521737009338,0.0015313840848758637,0.16527504945527607,0.23274003428472037,659.3535905268615,430.8438132315883,591.4677575104006,stand
17.879799666110184,0.04472344536437778,-0.08468099428470438,9.88405027783949,-0.23416972767180047,0.04679981251601649,0.0015594939428860094,716.187259460832,398.6971247802047,587.1346337889072,stand
17.929883138564275,0.08001571299526417,-0.0690524584913239,9.912948679232437,-0.2807708811528604,0.28350731104685567,-0.07098210399382489,705.8643326649631,411.76414737009185,605.0922980807849,stand
17.979966611018366,0.10169534048385101,-0.05336138391856709,9.935665247171363,-0.39042659051040624,-0.04923022164431766,-0.13106527380167782,675.4323878446663,300.57503749683474,602.0411004697073,stand
18.030050083472453,0.061396014913165056,-0.09241086349335775,9.894067849701408,-0.17139304799320595,0.3272782944114181,0.03340601564012334,638.9378804106013,407.02737829147077,601.2366110715716,stand
18.080133555926544,0.08143769322395031,-0.02120031281920913,9.919007880245989,0.3598518929584976,-0.3259846544685614,-0.20470375049738565,605.7234197115981,376.7207945219906,599.9505570008564,stand
18.130217028380635,0.0642827247138711,-0.08463311369365048,9.92219681340548,-0.33172233660773626,-0.12398654731906777,0.0538305811281822,687.080564529993,346.15101424022765,644.5483019868,stand
18.180300500834726,0.05759164730425681,-0.049142611871223235,9.927318277342566,0.24119103329950256,0.2847716937296709,0.007097361477263096,746.4505751957361,347.0538170589643,597.9472088096131,stand
18.230383973288816,0.072081073413889,-0.06156064152192802,9.915626820281359,-0.03749068672168908,-0.20202947669520716,0.20953150209471572,687.9042007711653,415.37704933647484,610.1216090944924,stand
18.280467445742904,0.03968133105674974,-0.016747983392606677,9.876672631635655,0.2536116031279748,0.06861545213377607,0.13902328470272665,639.6308501650789,403.8480707917901,624.4604089913964,stand
18.330550918196995,0.09454913382887285,-0.03106144205874645,9.880700590133864,-0.3506474103404613,0.32021583995435077,-0.10127916366607784,611.9481374098997,341.17725166412504,534.2493184571783,stand
18.380634390651085,0.09122554699117195,-0.08446655784424689,9.89059209711772,-0.15033265442860522,0.1259287700188799,-0.11982828188266798,577.1175019068987,382.0759179491541,645.2594944700381,stand
18.430717863105176,0.048400935208185156,-0.040864098059356535,9.931845908648,-0.31832031936296085,0.042064141165927264,0.06139790793751222,728.3424371234461,395.0571932278441,649.6560867266081,stand
18.480801335559267,0.04084521176871231,-0.0892178565912836,9.903432544126533,-0.21268398937489372,-0.1022929593806759,0.155999819760686,603.2104127671686,369.38565858547906,631.2605713884669,stand
18.530884808013354,0.050396492443265085,-0.058261672436086556,9.92935985530119,-0.1835426864321108,0.3916335698274112,-0.29033532405571333,714.6280431623317,411.1750290268167,620.6858601860436,stand
18.580968280467445,0.140502669906883,-0.06984222912375929,9.95440957293409,0.1730364297923969,0.3992114948437583,0.17762455960569104,764.63582523273,384.2663891409552,600.5932592284138,stand
18.631051752921536,0.0765809773648701,-0.009353155283411331,9.941524802947763,0.48330330529789856,-0.04420268768874614,0.22245972943381165,643.0617621766406,350.0208721744585,633.2809142354433,stand
18.681135225375627,0.025127586124138006,-0.055927861272106985,9.889206253586435,0.23239194256135112,-0.19769524092549304,-0.09018704406617802,797.3252836187525,411.2935663972563,607.4461741691941,stand
18.731218697829718,0.1265182744709479,-0.11178286771645446,9.880944635147092,0.3264960587925879,-0.04960443587382236,0.3917328516391742,706.2499278183038,446.565983113932,639.1226037768739,stand
18.781302170283805,0.059027996440085155,-0.09489186550966991,9.97179467005304,0.37311444400093235,0.2136731927460908,-0.05516307733240872,669.2624268450709,410.4932450379087,703.2240168926135,stand
18.831385642737896,0.06325836094824888,-0.08846516260010077,9.936266079543117,-0.2030962381249577,0.021376295467326143,-0.30249622077185584,643.3946348155133,365.40565175121685,650.9132642848684,stand
18.881469115191987,0.07476834150049749,-0.040997209589866704,9.937438766329686,0.21895499070579538,-0.31509107607416376,-0.16764965229908077,612.3311960920441,385.21258158019657,549.2409852946039,stand
18.931552587646078,0.036443817288831566,-0.029677601440546233,9.890280902183981,-0.44955271101758115,0.001952978796252511,0.7325235289682753,614.3664671321355,386.8465251118808,649.8986792903612,stand
18.98163606010017,0.0798518995130313,-0.0682597719690062,9.890254271138483,-0.10695978543733571,-0.6600918083226844,0.17600569779776168,707.4063889808398,358.2526396764786,586.2219677736837,stand
19.03171953255426,0.0622258233344815,-0.04948243249075945,9.87295084108315,0.3138465752485141,0.27618088005093305,-0.3039622576418441,646.874649097521,334.7175501245022,593.7617988354016,stand
19.081803005008346,0.07961641439520778,-0.0395036916183113,9.919723270404736,0.2792683099265359,0.2339890487257562,0.37238160712563234,672.7983575711957,399.69412050428537,586.2053898602851,stand
19.131886477462437,0.06155275310808152,-0.06319179537661465,9.880442171791138,0.10658915710541526,-0.2235737890115203,-0.08752560770624608,727.8005852060363,368.1870945475089,627.2765953526032,stand
19.181969949916528,0.04955641015602742,-0.09357250122405308,9.931096989934609,-0.06504545687577831,-0.14291960222018843,0.1765208445368371,648.4584323189291,379.5923527434317,677.0619517540687,stand
19.23205342237062,0.10094423545551154,-0.049905242168883854,9.946337518099455,-0.23930982874591372,-0.3230985234614195,0.006271342459223043,680.8301825149642,412.95252285473657,611.0411678415311,stand
19.28213689482471,0.10133705211926554,-0.04079814842481448,9.944003836776057,0.10240125660356927,0.3268137218879278,-0.3086376502939312,709.1790874506298,310.40936028773865,603.8358469130807,stand
19.332220367278797,0.09019506447252904,-0.09282052490749973,9.920291372229672,0.007521522535767364,0.2717134141252401,-0.3090423657159497,636.7979350691913,377.6811861099696,680.9291061651994,stand
19.382303839732888,0.07495000054408024,-0.07194505034092338,9.891232645686738,-0.42138311220280367,-0.07201085733904292,0.11555146338078948,670.0068922636734,420.0877345561982,580.0651891653795,stand
19.43238731218698,0.07367314894900143,-0.013232669972722835,9.885080200378237,0.21213507984494204,-0.457331248172861,0.4576420734765562,603.6101541060577,363.918394426924,629.3468136699469,stand
19.48247078464107,0.087554489986389,-0.10146757269622406,9.930176032233751,-0.30760852035669034,-0.12635064867573956,0.018413634961603087,634.773413680563,403.3945120602204,603.4506650970004,stand
19.53255425709516,0.04817151713876696,-0.012622061435611377,9.908073325592467,-0.06673189746717358,0.03948607139114428,-0.18733550461166912,708.5812811297934,320.7927386666248,586.5919263806663,stand
19.582637729549248,0.11126519429980156,-0.08029611767971487,9.949921822023683,-0.08240140530181235,0.4289230561584877,-0.3765896707878435,745.6751184083067,412.1545498005652,635.8996424285585,stand
19.63272120200334,0.13361016771430312,-0.060482748802080114,9.9243880956825,0.5112795554033392,-0.08910729015051629,0.16311471702739436,723.8778555341735,352.31622121088225,637.3338439626968,stand
19.68280467445743,0.08248574327196787,-0.03083440791704175,9.920766172225845,-0.15444707810122224,-0.17499788936284355,0.02781077638582499,707.542101369919,363.5162879080527,644.4902700004427,stand
19.73288814691152,0.07221329277844485,-0.07460942029727255,9.944147883300959,-0.1633652925039116,-0.13547424385114748,0.02849409042838477,655.4770307164425,398.94199266837586,576.252948077489,stand
19.78297161936561,0.0482278894431044,-0.08612162130936944,9.960959746563278,0.10228571413596259,0.17944604479728196,-0.17331085372531918,747.22562102671,417.8603769194762,603.9512878398605,stand
19.8330550918197,0.04665547058242289,-0.09825633799215616,9.96115321239911,0.2594881512887868,-0.09465003238975374,-0.07053436993399555,663.0178459571183,399.6513257522898,596.3437025083952,stand
19.88313856427379,0.04763877057187426,-0.09126444325099133,9.87956889071472,-0.40170835867312205,-0.2163451318138509,-0.14049148895826388,660.3671138102009,434.03539709042514,622.8407136925199,stand
19.93322203672788,0.08115470569431389,-0.09284427880464183,9.894606769221635,-0.18304472324138643,-0.0191060718743984,-0.03251779004209919,667.0055917046285,301.06533958825355,634.1382707115407,stand
19.98330550918197,0.08181468659197196,-0.08969650629619297,9.91562095275633,-0.018925672929617627,-0.2069752020277206,0.057404939056998165,706.6554024117473,411.6922332437899,623.5907113323176,stand
20.03338898163606,0.0675876908806082,-0.08554238424580467,9.916452627059309,0.11612030340191837,0.11604843075625405,0.00018339878362835552,659.1954531730853,399.71338535445204,671.231118508154,stand
20.08347245409015,0.0684127146160919,-0.05813635957954326,9.915748026448071,0.0684000559335935,-0.3144571615246759,0.11607237779356715,679.3314129141098,334.8570513259469,588.5322208162856,stand
20.13355592654424,0.057660405995921496,-0.07362125244162462,9.909748488038716,-0.18337787888528226,-0.42126072497827605,0.12189191694834522,660.6658487431323,408.6651741654972,568.9457427722461,stand
20.18363939899833,0.09707605524836814,-0.05277509919185184,9.939490382185067,-0.04373544735031128,-0.09507701019390002,-0.18568665864550563,738.4694551505643,403.155888895057,596.9857966050945,stand
20.23372287145242,0.08359075178243869,-0.024407890100654875,9.905979502201765,0.05078235957390909,-0.1506208253790343,0.05384058976369542,712.2975581387506,366.91974643422674,572.7722707400914,stand
20.283806343906512,0.04802677988490234,-0.06382647902297411,9.928621144231283,-0.49363231022051357,0.31266676495624074,-0.12224045145481406,642.0743888761078,420.41221160496724,609.7179560654303,stand
20.3338898163606,0.040790686853794264,-0.07944293365230672,9.901448470312499,-0.17604372428073625,-0.12585222056823403,-0.14661203920376706,775.3370395852209,327.1588630895572,591.7125900792084,stand
20.38397328881469,0.05709895236253409,-0.09760140667686855,9.919229419859647,0.03949693287363434,0.44081126258973763,0.22980315153171216,714.885333136132,392.0237555688367,603.710043640813,stand
20.43405676126878,0.10781355222091543,-0.04093990924264501,9.968743540696888,0.15386074145616074,0.14476615654101496,-0.24448679739814008,667.2451286744478,400.0526347942519,724.8777437290481,stand
20.484140233722872,0.041670222260089686,-0.03001325201051054,9.883929846682985,0.28826264624781256,-0.22208269470102984,-0.12162036145057915,752.2775670034748,312.52109239676184,599.6503661875859,stand
20.534223706176963,0.05124346680676674,-0.007746947260357101,9.919542423195947,0.06229184542889944,-0.1418395403791705,0.06481214809722151,703.5168748442645,488.57431224125594,614.5095913944507,stand
20.584307178631054,0.055671961601637523,-0.04964551190866561,10.004598338050743,-0.5080133559657961,0.10661907662310097,-0.3641906140950231,698.809428542456,378.5019240490546,607.3238883402527,stand
20.63439065108514,0.10836334051266222,-0.10911917405664481,9.889055419313655,0.0353834953504094,0.270642004776246,-0.3152869834039399,722.4957318206663,354.68187057535033,645.2542781350296,stand
20.684474123539232,0.09403478071863752,-0.04222297787109888,9.929857633232743,0.13878165519414273,-0.24847272759587868,0.3857900719840618,663.6660342501203,375.78780071994316,562.4413149337918,stand
20.734557595993323,0.0356701042946874,-0.0584027285201163,9.926773201814738,-0.0068408908463725784,0.33128464890470405,0.15682492841530407,657.2136427621969,468.5603401136983,660.4399962737527,stand
20.784641068447414,0.04939793438316152,-0.1241925589411107,9.920605745013203,-0.05017172433352277,-0.13671053647499798,-0.029183572810231366,625.5625730105186,431.9682643082307,627.0268693531447,stand
20.834724540901504,0.06566041124221464,-0.059184694836645096,9.999726529265143,-0.32461342583179204,0.018172757929609568,-0.17314334702664305,698.0679649426235,438.10616987113633,610.4139729876084,stand
20.884808013355592,0.05359799415240469,-0.001962421094218632,9.888466723283713,0.031115272283071715,0.39802719776133444,0.2469411033188274,686.9121947063704,378.9868572517806,548.2538916727053,stand
20.934891485809683,0.06064381915241694,-0.031483417269637576,9.949999275239414,0.10754408699664522,-0.14921270106174253,0.164221237928349,788.1780899702954,365.8340531466308,588.363481343948,stand
20.984974958263773,0.0925295969508668,-0.05466163683592141,9.966473002105612,-0.08984137560539694,0.11386683937208222,-0.23425645461851563,584.6954121675292,312.23835981773703,584.166788370801,stand
21.035058430717864,0.07640382120067749,-0.0940586520013067,9.933346840712712,-0.1286688194871289,0.5194226868169957,-0.12064071294811819,665.1747183193842,359.93394011529693,648.5601393899918,stand
21.085141903171955,0.015482093292699547,-0.08838264482373183,9.936512421873326,0.13055271264690982,-0.13648848531654212,-0.5704737354610793,615.5308260233298,335.2238205296756,619.3276661728747,stand
21.135225375626042,0.08172270827850613,-0.04700102107801694,9.97228395082208,-0.12225129905010301,0.6435144304799337,-0.3041673363346505,635.5673736533945,432.15102739199756,627.3665370789407,stand
21.185308848080133,0.09913636493593513,-0.0691591619707215,9.934450745021795,0.6874324879621246,0.17584827754867027,0.33864489496566447,709.8250811743267,418.879696053435,670.6881654317089,stand
21.235392320534224,0.0960979344684129,-0.03245928728389541,9.931835758918133,-0.11163093477989701,-0.04203710170984583,0.06265055266888475,610.2624983666947,473.85383532782475,653.9254686422963,stand
21.285475792988315,0.09798338284552342,-0.09100681529087541,9.933963551083828,-0.09593629049089303,0.0695165624176979,-0.02391029176029105,630.2170936980119,346.91009373610854,643.6261851265448,stand
21.335559265442406,0.05919140128750199,-0.04349222555038167,9.926009827808372,0.3301037433131207,0.2042172579917839,-0.1281149979189105,682.2724682616096,338.8059387576627,702.9011413770136,stand
21.385642737896493,0.13139648237017099,-0.11157167260255121,9.936454173412956,-0.5537321981323587,0.21284337902272954,0.603766475019043,703.8552537952603,363.2772475285918,629.101719374335,stand
21.435726210350584,0.05116824429144612,-0.06810318322174407,9.922676848797803,-0.10257956574851824,0.23949322278408228,0.06692439586918725,613.4272087775767,366.9079711158293,630.8823556478824,stand
21.485809682804675,0.023062968836625508,-0.048510834676940055,9.910368899144693,-0.36123161436919604,-0.1119341967444286,-0.2750740783818424,719.0034615872147,428.6178787517674,626.3983447731465,stand
21.535893155258766,0.08263369427476892,-0.06057947339834704,9.935369252749204,0.07982452719813922,0.2566069892226372,-0.1191665055177154,690.7604930616329,334.3942031440343,637.3150746426554,stand
21.585976627712856,0.08527157339827295,-0.0723987067670764,9.891518655247408,-0.11238221201287349,-0.07888291111400325,0.34838940779061955,757.3478785324018,326.97361676887823,619.6372575586832,stand
21.636060100166944,0.12914146530643197,-0.07419437553061613,9.916620044889179,0.08238390425965099,0.2501724486404973,0.28889119890518244,642.9908845657435,427.5838569891604,692.5316050655327,stand
21.686143572621035,0.07147243442065483,-0.07766474804077089,9.915622384604122,-0.0076183909978875045,0.07785535503425148,-0.07485488452143507,729.5038562173073,373.44829268284064,594.9537831003165,stand
21.736227045075125,0.060013184786843296,-0.057330808075705245,9.975946174071183,-0.08992674448692298,0.2340435840734991,0.2721029415568673,685.0030367871844,427.8267021947867,617.9895181062442,stand
21.786310517529216,0.07545170070010862,-0.06546880385443302,9.964190439047725,-0.014378589035044322,0.15222022890709014,0.3107565875355236,637.7692734254606,378.40406901642064,596.6116064055676,stand
21.836393989983307,0.06728731201210902,-0.023688024446510476,9.930058408189845,0.5805806177065962,0.051316980863099035,0.029735903584025798,668.7397429866838,341.6492575957823,647.2981927115843,stand
21.886477462437398,0.048033685802645935,-0.05847404273297645,9.860326261849739,-0.11687138342970796,-0.20796025148321526,0.6518786252854154,711.8023614736162,397.4351618739968,662.663222020363,stand
21.936560934891485,0.09352324743745118,-0.05093474036156236,9.943790162551323,0.2120615162521773,0.0862506403190532,-0.2957757412483067,652.0711494578137,439.06450182416825,591.9378489375376,stand
21.986644407345576,0.11526734603258015,0.02000630675461265,9.916063076272907,0.30821463076103006,0.06080721210541904,-0.2522742659838075,671.2832728122788,339.18657093791967,642.9502294212527,stand
22.036727879799667,0.04805693200185789,-0.03016744623469867,9.87928012928565,-0.20008821796677567,-0.26790171426116977,-0.1585193298761001,764.0051126406269,391.9094438626176,634.0274226262441,stand
22.086811352253758,0.054870289458083824,-0.08181902446119324,9.888951985539274,-0.37241093490992266,0.5387106718481738,0.283295026965061,645.6994548333311,311.25555416760676,527.9743097937347,stand
22.13689482470785,0.025597213514246556,-0.03999594797963425,9.929083777540965,-0.13347033911743053,0.14565770491859747,0.23511020445206154,807.4760564078306,340.814745816393,651.9341651153816,stand
22.186978297161936,0.06562878660356875,-0.005130293822280245,9.905493098642294,0.029950019202031556,0.14037881411702172,0.03055616749321615,670.1451834664689,324.96831101492324,615.1062579442679,stand
22.237061769616027,0.07569371006895403,-0.12728860306705486,9.951737466733753,-0.37473259147644944,-0.09311812949730826,-0.14769427646428016,724.5932147478109,399.78101839032104,567.4988546023817,stand
22.287145242070117,0.07378431505308099,-0.04989708845223151,9.910184487338858,-0.03655350193344871,0.024971960863629857,-0.35785807436208755,654.5915419853478,336.1364291698411,542.3623977165398,stand
22.33722871452421,0.11050103728390588,-0.00708933458798381,9.919936505181965,-0.2041304940399172,-0.0293081419802398,-0.21962197048339333,618.9753576462554,361.87913891321585,628.98947314142,stand
22.3873121869783,0.0436559109613612,-0.025593355681808767,9.912011098873851,0.49753581690330334,0.16055541570043833,-0.14638264661087835,689.3761284984745,389.1329442910184,700.9756636732609,stand
22.437395659432386,0.05440563812334744,-0.05236594318644652,9.969103960206795,0.041666373686081185,0.24448709455984105,-0.30642033297729193,669.5234001940005,372.763764257085,604.164113218399,stand
22.487479131886477,0.06617559066054346,-0.08167580383568791,9.925065790398554,0.2026320135800761,0.17451901710032136,-0.3229574558125541,627.193876382652,342.86489598770197,555.6609753247885,stand
22.537562604340568,0.05900845550891055,-0.11057074968142794,9.930664103861316,0.43422543768396654,0.11561185624424686,-0.12424543574187073,708.3857014385305,372.6346552728068,665.384083895048,stand
22.58764607679466,0.1054901290259476,-0.030513784208243744,9.926388830284413,-0.2638259972838565,0.38645075348459423,0.3591071740119644,674.7694401631388,354.55533463757064,644.852154776764,stand
22.63772954924875,0.028379480528721843,-0.06337781086412073,9.948389630434765,-0.2640744819400776,0.037843122390770374,0.054064528776731145,618.7843747345537,348.64751791999396,602.1926915247151,stand
22.687813021702837,0.05788663118503801,-0.09330770457627292,9.910863362476702,0.07349303083467265,-0.16212669951209835,0.2759992685509204,685.4718593245102,363.42299502112706,608.9551344505423,stand
22.737896494156928,0.11296952798259167,-0.09969636388807149,9.871766273620981,0.3555203761267064,0.14222222016830577,-0.07682757671883464,714.763058775212,356.2060966361466,651.4390140807938,stand
22.78797996661102,0.06797293252927995,-0.0663487454787292,9.942006322053453,-0.16127459728044366,0.08374591529099706,0.039023942271478415,677.8355552817738,412.637419981748,653.5867439621846,stand
22.83806343906511,0.11114920289386744,-0.09901887448776717,9.912536214300518,-0.3422067066546067,0.19945297397879794,-0.3817975473313649,672.0078327401968,382.08109276889206,664.4032924590132,stand
22.8881469115192,0.052356338501297645,-0.056871745101060425,9.961586003553363,-0.4132525231110686,-0.024912306695009122,-0.056388511696588525,703.5173081854666,377.38200182806327,646.1198425255044,stand
22.938230383973288,0.12571862061584868,-0.07519627581825987,9.908022464254435,0.20656233517324102,0.1117067768842319,-0.2512353277397972,629.3755472244784,439.9959387165769,585.5082121668327,stand
22.98831385642738,0.04835993462667172,-0.014666805171241942,9.963978106355267,-0.666017906236173,-0.2009889259763746,-0.11509658239255238,677.1429176486079,407.89397589161325,646.194451996421,stand
23.03839732888147,0.06665451038128456,-0.025603646299033098,9.930248261190291,-0.005320884564683114,-0.02558331281603315,-0.23347646898318475,757.0004073615974,383.9165630000487,610.5277601398589,stand
23.08848080133556,0.08524894249328999,-0.06558855114959106,9.921678633680695,0.31376731666333846,-0.2907943791308932,-0.14614912397431004,691.1463157001112,384.2996479875655,602.015778351482,stand
23.13856427378965,0.04960611305682866,-0.11532374291685353,9.929492704568109,-0.22365792185183042,-0.5660997383345674,0.18619547838431916,660.3556205524782,397.82881233280574,610.5599997635692,stand
23.18864774624374,0.03202312865598073,-0.06480325368510662,9.890366518147781,-0.12630549482225908,0.25944415289371975,-0.2978148342924223,736.6587648779496,347.80132814571806,655.150657356074,stand
23.23873121869783,0.11352221037991791,-0.035053906045186524,9.91637581017998,-0.16822308551212056,-0.10906508917262736,-0.07369195126027127,686.3008777074097,403.91010809258154,667.2693569144166,stand
23.28881469115192,0.04673055447056061,-0.06491108516249178,9.897035778923915,0.1704631959885123,-0.1535656474644427,0.4822649985461431,659.6755995176218,393.32938260827024,628.9249575047253,stand
23.33889816360601,0.04473831637468536,-0.0710267968180309,9.925110654747353,-0.49802777880342197,0.306343965985785,0.1793700041820504,662.4445193354596,361.24960802927365,628.6847556552286,stand
23.3889816360601,0.10378672507281997,-0.04472952186446247,9.884638129308161,-0.110894886418175,0.024588557986460886,-0.2701392392519874,678.0892721434947,414.18439607158973,693.6334544279447,stand
23.439065108514193,0.11420168002852606,-0.10692229155898013,9.94915954732496,-0.07595395454052381,0.45904593527937965,0.24873881190547756,692.9849299126871,417.4388275254684,611.6572347177446,stand
23.48914858096828,0.107925845636259,-0.09264151964652642,9.909685712406855,0.19381048043331134,0.06422255399671933,0.04206247649811009,699.2733522080698,416.1142143395461,580.4602835903972,stand
23.53923205342237,0.06970508280206535,-0.03014598651765919,9.900570920771502,0.5914202932848848,0.44066275910479824,-0.08847885611509747,681.938918345296,313.36982270223103,617.8908066646379,stand
23.58931552587646,0.06440105962835398,-0.09469829014636294,9.888028729226173,-0.07033447195018755,-0.1607965306417201,0.31282182957909754,625.2355289726498,339.9389216627778,581.5246955487582,stand
23.639398998330552,0.06891935085772385,-0.007524116956068402,9.909658574613491,-0.235699300250764,-0.23448969725787525,0.44634648487234696,652.1735505062289,400.7088946962416,641.2386539129938,stand
23.689482470784643,0.16492894907487834,-0.05027835351471292,9.977036265315794,0.5139524630655358,0.4168397917214338,0.3095421907161982,715.8050132680363,442.05734544090274,582.2922974567102,stand
23.73956594323873,0.0600745873478219,-0.021256895825560986,9.950412775322159,0.2340338135544585,-0.28053720369643736,0.0917827924634092,733.6511075172104,370.36545034847916,616.3422351827701,stand
23.78964941569282,0.06637116150014888,-0.07602545593937352,9.85538215802382,0.2955448294355181,-0.23459209408806483,-0.18214701183947968,671.840109132826,349.01828069926694,595.171957233918,stand
23.839732888146912,0.10619941938917991,-0.09865018534496538,9.959232854758241,0.11865934809651942,0.24323531511472185,0.30814393166000603,612.4617711822289,433.0259792559651,631.7901537120322,stand
23.889816360601003,0.020766980249589992,-0.09062173969289643,9.936859935842186,0.11402370467166957,0.030098787637713526,0.07706677263165305,652.8099943940656,398.63287836232865,680.8455103114476,stand
23.939899833055094,0.08134589943550653,-0.024584189715805213,9.934183971543021,-0.4643489598069143,0.2603796017895378,-0.21703874879729065,794.184356837514,385.33433970648235,647.8907823525336,stand
23.98998330550918,0.04643785057170173,-0.04424557643043232,9.920197645882153,0.03537874473796053,0.22153770879361037,-0.7255872447793651,761.7336538269332,294.6678025004503,592.9621928239962,stand
24.040066777963272,0.0797529904802443,-0.07297429797834228,9.894447117804402,0.204739482449633,-0.4407388601359929,0.22274537959880744,612.8888228674466,353.73157720051677,701.2992669914257,stand
24.090150250417363,0.08428141404483838,-0.0874080295163712,9.913884917474387,-0.190642375556049,-0.5272111339240443,-0.03509609746203942,733.2287698077306,420.96783384514674,581.9092404761452,stand
24.140233722871454,0.10666085957637064,-0.04573937469552893,9.976617920506046,-0.12913115710794384,-0.5298092010377599,0.07686295127883966,695.318311592725,365.41782153884327,572.3782705729659,stand
24.190317195325544,0.02897115528104543,-0.016597453094758463,9.953188792516645,0.41707477565106765,-0.048255356822714264,-0.06987974575922506,630.4206850803176,416.59543114009426,540.2765826010832,stand
24.24040066777963,0.13510017311888411,-0.048650596218100924,9.952628027218642,-0.014917672554200692,-0.15057352922990433,0.019075667006111827,661.7882261472126,410.21501927761625,621.3375868398963,stand
24.290484140233723,0.11255911855565037,-0.1213229163094896,9.87311710894149,-0.16869067992204442,0.46846641656713645,-0.025940920007666256,686.5180575570901,441.02804813155774,723.5422770190993,stand
24.340567612687813,0.07852380435358888,-0.055043913957776296,9.909551811333953,0.279571481627684,0.4043012922438662,0.4908316032116769,717.7776477696327,385.9893052651367,631.3386632104687,stand
24.390651085141904,0.05176357014153453,-0.08204284494001478,9.92204590326502,0.14750604434670073,-0.36471234685409165,0.5139319351196372,699.3148636539045,355.7361895910833,581.2887246327762,stand
24.440734557595995,0.015172515474104822,-0.0939677067019738,9.903894063991176,-0.09540021334775087,-0.08961586541858038,0.282226938149589,731.8867067955489,423.25910426369194,511.0843526818077,stand
24.490818030050082,0.03592711028099388,-0.07452953284563402,9.90888732407942,-0.21095619393097417,0.25725639359728886,0.2291494254320381,673.1295826846463,349.87997387899,636.849193787914,stand
24.540901502504173,0.06808154546460317,-0.08882492549295115,9.89415605222731,0.07761147611988556,-0.6620089918349158,0.29617849767685217,668.9242605896958,413.7304439765843,601.8335844930333,stand
24.590984974958264,0.10905760169881296,-0.06625168055086943,9.93510372681378,0.21153351727095857,-0.27111468421094426,0.5670099965148537,654.1911236214106,432.40605470467335,589.2177407972233,stand
24.641068447412355,0.10962693283605862,-0.08744592920808139,9.911471432125639,0.16256319011302184,-0.6212703728925507,0.6959003412687907,705.8579217956461,392.4375188147909,680.127573129397,stand
24.691151919866446,0.07117527832065919,-0.06889116849951764,9.902281146132932,0.08584086171680531,-0.04653710077926816,-0.30163733751196264,687.7615878550477,360.0662142119938,600.2693929306295,stand
24.741235392320533,0.1207861706826851,-0.018506111146586443,9.946685560009364,0.19448316880008465,-0.4386468052204674,-0.14174106360801997,687.3375375822068,411.1799127053,628.028298142767,stand
24.791318864774624,0.09327556889713531,-0.0532872038093761,9.945748324636899,0.05832252703800004,-0.28847893755251425,-0.12467721626012826,637.1015620919214,394.4875445945607,690.721729934361,stand
24.841402337228715,0.03244164500765285,-0.05007390263380211,9.950696079821597,-0.18294304591098184,-0.0639322279909701,-0.11262963134611902,691.3287560452859,387.4926278567225,661.9269548740018,stand
24.891485809682806,0.08170432644180695,-0.05551552755248206,9.901446931244806,0.22568398593792735,0.4677987008096739,-0.07731872318165302,659.8353120192849,429.17414421827465,637.2156933641337,stand
24.941569282136896,0.11087759818982715,-0.03758181400357878,9.866947064784211,-0.0828289870531543,0.4880861495711427,0.16994219062457358,680.6401168382553,388.032971175429,674.820262822028,stand
24.991652754590987,0.03582114333101264,-0.1008503670532089,9.868274413078586,-0.006977059740393305,-0.07057149299782653,-0.09984257211365283,646.1956571032388,364.0164404904166,628.2799806653392,stand
25.041736227045075,0.0742062589730987,-0.0786636355243017,9.907037069467624,-0.15371068623960718,0.17483162718631537,-0.2839895760737814,763.6180900183896,441.1807507414462,596.5681415252907,stand
25.091819699499165,0.058850524711204465,0.02439288852918113,9.97212161932382,0.027450489773090555,-0.05416076839393073,-0.08407420307599359,662.3514208359815,313.54846200474367,657.8652880134271,stand
25.141903171953256,0.1088030264629926,-0.058572206275941896,9.911423963566428,-0.008203859931871275,0.25398707123372877,0.23847397209048096,633.7121580424126,396.053792169187,613.34621199349,stand
25.191986644407347,0.05116053375485896,-0.07450715241624684,9.905844575003727,0.03737541623192429,0.23997160724394231,0.2655193816320552,728.1876819260389,394.9530258662047,636.6890331819138,stand
25.242070116861438,0.06959599515524309,-0.007270381997231311,9.902162024826483,0.43304235921217465,0.4691706766657669,-0.11865844764407316,619.3799682478383,349.87478809822795,659.9317690856442,stand
25.292153589315525,0.1108052102112217,-0.06652832507453639,9.865695943008483,0.029686990940215485,0.4076913695731881,0.45587060520544637,781.683381989927,351.99640859164674,547.0384310632696,stand
25.342237061769616,0.0629504799258497,-0.08990054254090771,9.897544347264649,0.08628138457594119,0.013085462390579202,-0.08871427024330232,625.2728639476045,385.7833332754071,611.2479675534411,stand
25.392320534223707,0.10271782188220903,-0.09235912689696896,9.914332354318441,0.44625833516850466,0.35235659078262416,-0.02904536121435209,615.5477521959692,440.5990238197945,578.4759345301316,stand
25.442404006677798,0.07296077730912567,-0.06657486744238637,9.93574609382703,0.009255816421601488,-0.00523161882429238,-0.08561595560424115,702.7550421021514,469.1604592261808,587.1781283219964,stand
25.49248747913189,0.10140792482145711,-0.029913620519493644,9.902658625282749,0.01654222472925593,0.2788955533231846,-0.3148259853074363,599.1047905453963,369.7855926911473,596.4986655410628,stand
25.542570951585976,0.0630138642022326,-0.03679148267245202,9.914036345621625,0.07200100004976977,-0.45542281483120806,0.2034254719388563,632.5717665649245,373.37529479903833,574.732063745038,stand
25.592654424040067,0.048792125270551545,-0.049098775173963924,9.894171422737315,-0.1525397803699448,0.1908419522054341,-0.8304392730981774,687.4143167807205,378.20851842681805,592.0018955210471,stand
25.642737896494157,0.06857672540064234,-0.015379255611335026,9.917017606866647,0.11857979887630742,-0.15597511309057452,0.043702483700169846,754.5341782003297,362.182511788362,617.5891226290188,stand
25.69282136894825,0.06401729171833923,-0.011007697547864313,9.939248425374213,-0.12176930858410696,-0.0962744258368636,-0.1929311604039289,630.7817949291823,326.4604310876824,634.9751663973693,stand
25.74290484140234,0.0745354130380766,-0.05766773236793267,9.906780474645245,0.24132951576368522,-0.5505087107666772,0.20797425712340342,669.1983471503872,376.5639771928608,640.1592950322237,stand
25.792988313856426,0.052613577339705564,-0.03949387412853283,9.964261239492798,0.006712514150679569,0.34384221546696303,0.6608804577988809,583.3444166632809,411.04334990214403,637.2357644454904,stand
25.843071786310517,0.012644113012232519,-0.08601315668398576,9.936267214292661,0.2726541045622624,0.07081734126200677,-0.37243417482501695,612.7291757088951,398.36032912179877,642.9832348763072,stand
25.893155258764608,0.06322899233179687,-0.13867072692140708,9.889770256649824,-0.5347852218112169,-0.07827858162394613,-0.315665078764746,760.2727320302333,365.86596174656296,543.3781408735347,stand
25.9432387312187,0.05398283505354547,-0.061516069130068046,9.919385669690898,0.20921498281062118,0.2162705762034016,-0.24825744328978852,638.3199633806881,372.09808276887867,627.5165844702055,stand
25.99332220367279,0.10228914225347353,-0.08035415480127231,9.925979562954632,-0.16066906907033665,-0.12562976057614297,0.1482024687665992,593.2314365257826,328.3477307254,603.8716764247815,stand
26.043405676126877,0.08138685548440167,-0.03322817445014819,9.968562974805986,-0.07692122943668861,-0.03074411720658468,0.08285199163737345,724.2203803939855,369.43148776283266,621.7459362810299,stand
26.093489148580968,0.11946782668432898,-0.0700527165605262,9.931075305146383,-0.44134400272515906,0.09983704320977398,0.34368851283243645,663.1741396526426,349.1948171313926,679.9108054709257,stand
26.14357262103506,0.09635111947001225,-0.04989391214839768,9.930351874753116,-0.24331766391313367,0.19453350474520706,0.4902336511041126,668.2227770317978,365.4472962181713,666.4264580870215,stand
26.19365609348915,0.07070483233257749,-0.08693573249849931,9.921267092673219,-0.13496289530257274,0.4233893442749088,-0.3286683201359322,752.3316493219954,318.22360134033653,640.3660432663071,stand
26.24373956594324,0.0896326087148362,-0.05985786636489284,9.93177731838951,0.08661961507421426,-0.2806914018107529,0.06707756344934274,744.5750925438048,372.91706339676665,708.0928803268965,stand
26.293823038397328,0.08010129048684773,-0.10056352133521107,9.950726380626147,0.36341496365823894,0.26810115604348833,-0.17946913736526734,653.9983782669661,357.0782242446035,609.9269088404202,stand
26.34390651085142,0.0861256434216891,-0.04444385086376628,9.91504997949788,-0.2220487835841147,-0.05015723588770665,0.35361377167607705,673.2644404937633,339.98728083838483,659.1023535642139,stand
26.39398998330551,0.07269207493741042,-0.0709905806189795,9.852065848945324,-0.1019307004732817,0.05991989725857067,0.32372592965656144,691.4521019029245,324.5586989387612,699.4893022803371,stand
26.4440734557596,0.07282250529117398,-0.07952755954394455,9.871177331477911,-0.04808382356603411,0.0064518608702625775,0.018305670216414764,729.1348069041625,376.87501046072236,645.3675497513476,stand
26.49415692821369,0.08170812875600227,-0.1005063763367627,9.94038198265598,-0.08212320322932584,-0.22668178472327014,-0.009420239099561061,703.884917521849,339.4779861856144,663.0454466644853,stand
26.544240400667782,0.09041247269873406,-0.030028203791226525,9.95141678712683,0.29057292607457613,-0.13980056556888676,-0.09767310607258313,703.4130690669404,383.55730662441357,652.8852761127143,stand
26.59432387312187,0.10265771992751561,-0.023752486480601243,9.969450832199698,-0.6315613560241193,-0.1160212516398247,-0.4946635241023358,742.708954434656,371.51913288163445,619.881446627101,stand
26.64440734557596,0.06720394910517978,-0.06699715287670223,9.916948122734771,-0.1518000650547298,0.09564974100057981,0.49220178539590476,647.0746640709355,362.566782978459,678.5313327498277,stand
26.69449081803005,0.04285957650186898,-0.0628439396079573,9.89377827607282,0.027980352098728352,-0.07280983991817129,0.38458677130178964,700.8942348666206,379.947403646763,620.2938340651265,stand
26.74457429048414,0.10063905103747123,-0.05111790859736688,9.946280960811626,-0.05507239276606197,0.12487261961674033,0.05196809721736231,747.5244192930969,402.9193561095097,592.2230386830349,stand
26.794657762938233,0.1166628279011575,-0.11547537989797299,9.904833856271322,0.12052028028773706,-0.33022152556887485,0.024377264224364512,599.0872433554728,353.1188607251089,677.5180806055415,stand
26.84474123539232,0.12505021568314503,-0.1517358009756254,9.939962351904024,0.08374960975955259,-0.10965515101550563,0.27811686653163536,660.9574914312532,386.52352776162707,554.1882654162362,stand
26.89482470784641,0.13077434177092384,0.007647944001453105,9.868715357919722,0.18077166717128393,-0.4914324123493521,0.06246351104623416,611.5247888639431,392.9735610581293,699.1723310327326,stand
26.9449081803005,0.09732502443893579,-0.09285978286020133,9.930023187324604,-0.5319458708468758,0.07786405885026314,-0.04037001892730238,682.002415885685,401.56261676035314,649.7405047238465,stand
26.994991652754592,0.07201868481295025,-0.03585069497625469,9.909259710563566,-0.15018022143161835,0.32384173313685233,-0.4801898537680176,772.4120039543642,352.54043951324263,620.748449829964,stand
27.045075125208683,0.04803036005935334,-0.028499012891917044,9.974918244807675,0.3956524768155789,0.0188622955818049,0.02708975763393251,723.9825835342028,368.4249934453109,509.96491750574853,stand
27.09515859766277,0.0521776617751962,-0.07594641064533018,9.918435722321245,-0.40390936044224574,-0.026857325246851235,-0.18709616320542935,643.4874114012001,382.33355793992445,661.8450750274917,stand
27.14524207011686,0.051718318737689034,-0.024251406872507625,9.893288560516112,0.16974216455506094,0.12635530364721265,0.1826130921457156,740.1272934365011,420.3784446852819,614.6700605172325,stand
27.195325542570952,0.060867564336869906,-0.05471556101373803,9.94386504253801,0.33395272253103897,-0.159730036686474,-0.24357851697812943,705.4246383416552,420.9843180265004,674.1538720090297,stand
27.245409015025043,0.0350321325624042,-0.00802347754033346,9.925727733873007,0.31277670169707966,-0.17658785926171336,0.1489659734086972,635.3649885098363,429.22370703904585,617.3173023901182,stand
27.295492487479134,0.06937645125135854,-0.08450538588472997,9.868013243143213,-0.29734025686613846,-0.008472291058609832,-0.14381631401014844,684.6084571702827,403.98643583618605,599.1175372999353,stand
27.34557595993322,0.044851400555647306,-0.04931954584956212,9.877978608026666,-0.11609623587373906,0.3844141026554423,0.17406865648338524,713.6478639061032,414.448154858123,661.4590041108207,stand
27.395659432387312,0.06664664995826745,-0.0454332573652588,9.908055501287324,0.20924887669561068,-0.1472690226898401,-0.03813756793828228,720.1574550980208,379.1339912577307,648.9459798535343,stand
27.445742904841403,0.054821865601914294,-0.04066489323242743,10.001464297897268,0.3712310248071376,-0.1444858023167614,0.17874414554372356,717.0403399638859,367.1446550610509,643.870890463429,stand
27.495826377295494,0.08497725353994318,-0.027213049817155117,9.96110137342581,0.10298293793423946,-0.01623487631490608,0.03702513511277927,668.0219591852363,344.7153727084121,597.1769611752072,stand
27.545909849749584,0.04615178853165734,-0.01588636676312645,9.938936060962801,0.011647965054272262,0.0035783204051890683,-0.1125621264786157,737.7283198950518,378.9655349133356,642.1029224766027,stand
27.59599332220367,0.09308114950663574,-0.03185798891034468,9.931869043129069,0.34538306026959903,0.7478378219681039,0.8134892614829058,656.9934338418784,431.9472832652213,605.0900086069902,stand
27.646076794657763,0.01864992660904661,-0.037052880617838846,9.919590234598017,0.15354035632052682,-0.13305748329503245,0.07700269603743957,703.5987105324047,356.2204727522764,642.4043404202007,stand
27.696160267111853,0.06035761833254792,-0.11679414370662154,9.914788435095899,0.3113029226699922,-0.3835953502339079,-0.31700757970236276,714.8556150719613,394.5060510107229,606.5249030042004,stand
27.746243739565944,0.07764335970601643,-0.043156265661982135,9.928620960086903,-0.18824049190829986,-0.1456556346838841,0.18074540443313994,706.5383263806535,342.45510014957716,663.3980646628016,stand
27.796327212020035,0.08817355765089152,-0.04265563527167963,9.881566913743589,-0.055018561784894324,0.12547257533146003,-0.03583976757032452,634.7924742371008,351.461831446501,581.3941274517094,stand
27.846410684474122,0.0838591541946206,-0.07428871591005273,9.919010717959198,-0.23776115621453286,-0.32969216053401684,0.05087752149803933,681.8895967397374,311.0642988725652,547.399986889385,stand
27.896494156928213,0.09538917295103012,-0.082505707470031,9.921714193093095,-0.019479892510946967,0.13631554606158156,-0.4587801187447742,732.9199100001462,370.1987520147611,563.7908626710191,stand
27.946577629382304,0.009694991924477037,-0.09988227088105753,9.866954005835114,0.5483767546014781,-0.13125089871986023,-0.29225313962917904,697.814839396205,418.56251107978045,664.3631769202393,stand
27.996661101836395,0.04016945766879245,-0.01838146414054593,9.924226718823462,0.023576291905725865,-0.6939027055096412,-0.2953515719307305,711.959694745464,356.88441264817305,566.3324792157856,stand
28.046744574290486,0.053539543832539296,-0.03608146180385016,9.897825809670037,0.17068276050663603,0.043057915192654075,-0.1478352437583782,708.8662598664031,337.8732892884104,629.5075515165024,stand
28.096828046744577,0.03495136294576496,-0.027056359538543878,9.9765279343678,-0.24026562783098157,0.33537510390296776,-0.47936422307570337,783.021309449976,367.4303625614025,663.9029148609734,stand
28.146911519198664,0.07626239706823353,-0.09586977186371759,9.935444032205693,-0.09555917930730615,0.2879813174552958,-0.19229745834523537,719.7135480682731,464.87219765826876,555.9196713829003,stand
28.196994991652755,0.12325439552149606,-0.1049116813979532,9.897125841224774,-0.056222127666953475,0.15495104274246974,-0.27540976250451954,616.7766962373705,368.3762454898809,703.2578092468017,stand
28.247078464106846,0.025388214419437186,-0.04448946596494384,9.910664612642158,0.1447932032727505,0.0739478888899761,-0.015368974431587332,758.4633049177011,355.0587873552488,645.916566901439,stand
28.297161936560936,0.0930078925546885,-0.014295559019980739,9.862481863770821,0.026815551526296437,-0.374937806559551,-0.11441538875394973,748.8086895664346,322.80073004646704,643.3955358667075,stand
28.347245409015027,0.09488446044903726,-0.13296477098932616,9.873009489178655,-0.19109843436185295,-0.18587706777961283,0.7509141188951268,715.9321976084364,388.77880940899024,574.0593290096546,stand
28.397328881469114,0.08733569387179818,-0.04799553648766976,9.928191857621087,-0.026453493060125007,-0.1345006869206505,-0.5451844430433443,613.5700879340609,389.9850489807666,564.6380532584508,stand
28.447412353923205,0.007029281569111215,-0.03453474902503223,9.983864724683212,0.1898508140805897,0.41050657970429066,0.0017730574608938493,664.6633903131569,385.82033026521833,632.9100701852255,stand
28.497495826377296,0.09871471484584841,-0.03651205350462085,9.935069025052867,-0.13395917759706386,0.018073135976424865,0.20613826914640188,689.2235095686412,417.20904994068513,565.8586492048662,stand
28.547579298831387,0.0732971023243465,-0.07606091190731322,9.909811611319832,-0.011315986538621682,-0.4983596003885051,0.12244695094441804,622.3000300827537,394.09753160490493,570.8419282835731,stand
28.597662771285478,0.03211446053018487,-0.04092778982689078,9.924079467593815,0.010862975566715097,-0.1885764631545051,-0.3000711527970864,677.9910127355952,397.08651159781044,601.0458280771995,stand
28.647746243739565,0.08280297027737403,-0.08006897518157585,9.92101382663184,-0.32970514914749605,0.2366652178706034,0.006024681276382244,756.2448267101585,317.943778932659,553.7658703992042,stand
28.697829716193656,0.0904972985134588,-0.0371932550472841,9.908338445472879,0.014020372223065418,-0.007095897345505256,-0.29577162575358446,651.3289254702889,413.7714961739242,634.5778700140368,stand
28.747913188647747,0.0606804505152214,-0.10309197685673353,9.93300353920417,0.049991498341804046,0.4307274675107426,0.5474764884488807,693.8883335618467,414.2981915025546,637.617060202844,stand
28.797996661101838,0.0804882966663437,-0.04727382837110626,9.912375488267253,0.4313408372943149,0.024084214981363466,-0.26041008237876223,625.991246749619,399.4619329043035,625.8457765449583,stand
28.84808013355593,0.11393272988696718,-0.09946102461049317,9.944949599050478,-0.13555534000560504,0.1920830900613931,-0.704134300952526,806.6845690618137,370.838216454627,646.9712895789877,stand
28.898163606010016,0.06364405244929881,-0.06728400877614008,9.958378349304757,-0.22017705207905994,-0.014989338300951335,0.3973807793695872,609.8712408117954,420.4044108389204,624.5102294176124,stand
28.948247078464107,0.09959185765723419,-0.047333087636074335,9.926696941865467,0.05550294948442984,0.1898213282269915,0.04160759091542259,709.8623546715174,467.2543811185909,629.8379554908296,stand
28.998330550918197,0.031571277226381214,-0.003351738028333967,9.933261029698746,0.14355599168666727,-0.045867896967430793,-0.009302354170301478,762.0623070037549,333.8339933668021,566.2925436753125,stand
29.04841402337229,0.1292770826234128,-0.020591600770787873,9.923287398604147,-0.008078391678528411,0.592733461026728,0.10622962890915831,645.3079059317373,357.0218842048449,590.5697919738243,stand
29.09849749582638,0.12033901960554527,-0.10343075081430918,9.918805482108107,-0.031115189790534417,-0.3013148768651242,-0.08151640023348793,598.828927168862,372.0380538242339,603.821594670109,stand
29.148580968280466,0.0617739779019475,-0.06857187251634658,9.935557081839006,-0.14245798098310233,0.6800044446866752,0.047853708467925284,710.1637511273457,363.99693794565485,661.0911368696849,stand
29.198664440734557,0.083338049167107,-0.036535943763067576,9.952706398213888,-0.21803817640268022,-0.16448048106763397,0.1797479087368707,704.4651979485188,382.0417014210989,575.2546288551453,stand
29.248747913188648,0.046517311666181504,-0.08443389568933765,9.965861315623817,0.20309548127935131,0.00951378509605759,0.27169967393264677,625.0495863738564,359.7884320355801,572.1364560269951,stand
29.29883138564274,0.10209453188599853,-0.09789288907691766,9.916155153773742,0.2626410653022634,0.01065571677067503,0.4275088364847901,679.2972877821436,369.2936967422035,625.1841684626334,stand
29.34891485809683,0.09911343144977464,-0.006566587711991763,9.895946975585295,-0.21024959550474817,-0.04491410866621605,-0.07642068721735568,669.7460743082489,366.36724892959603,689.467185237087,stand
29.398998330550917,0.10905766449751245,-0.08339955324419623,9.890941113745994,0.06118656163670657,-0.2998771629551976,0.014150604452802765,574.0248279466293,387.56222616576764,570.7374995259215,stand
29.449081803005008,0.06349215846703002,-0.061451863518674314,9.893101192042739,-0.2012385998915804,-0.10019135172234503,0.16114840132196087,702.577817147933,347.4890683381805,551.8949898884471,stand
29.4991652754591,0.05850088779705987,-0.06530286717258213,9.857199046435127,-0.3462179685522338,-0.05498879638777309,-0.01943788859945032,715.9463792685727,376.93284309428134,571.4163012516105,stand
29.54924874791319,0.11162856756678002,-0.026905039702997832,9.900826058598728,0.1699870519321388,0.36496055805984245,-0.07985502270048823,669.152245321121,392.3250475394768,601.7987927193269,stand
29.59933222036728,0.03495397791262964,-0.01163481830126046,9.908504658531953,-0.10469647565928532,-0.09306102792137931,0.3229334837529464,693.2479988856658,382.86864144627435,506.01485181495207,stand
29.64941569282137,0.07000767207220776,-0.07002970081576947,9.936741955335735,-0.0903187708868576,0.5449038287606268,0.04143174201915301,676.4865220051616,355.6879709881462,622.4276307417708,stand
29.69949916527546,0.08143643642290531,-0.0718131520001824,9.985333117215465,0.0586517182705823,0.3009301148291463,0.03003006564772222,741.7732446524537,375.7772295811901,589.7272551232436,stand
29.74958263772955,0.1278490704303191,-0.061348392328281216,9.898599381917695,-0.12270187578829293,0.025213388597619173,0.20791632235969656,721.0213742600845,406.81922898692903,598.6129369215589,stand
29.79966611018364,0.07183117963584183,-0.015603956108970432,9.919654371366118,0.004689667493231006,-0.30752299543788886,0.28873161945698245,651.1149421377971,371.3821235878604,650.2353060182656,stand
29.84974958263773,0.12065000047425972,-0.1007231235843056,9.935631539062957,-0.27273909644438815,0.13372471180833542,0.17291924454347826,583.672356845703,363.9601942991542,617.4544912471468,stand
29.899833055091822,0.06303706641861553,-0.03102051345833764,9.97336519807466,0.2121914592127607,0.1542115851805467,0.48506561541713167,698.9803915904187,280.47995950196133,761.9465682384603,stand
29.94991652754591,0.07377960140414824,-0.09083832443609544,9.936382235265652,-0.15888581897983062,0.21257394592358284,0.02366641279465916,685.9730124892814,355.359314790618,593.3681215851659,stand
30.0,0.02557034366948579,-0.07484236862551964,9.899107389770238,-0.3957543237557384,-0.045060443343470626,-0.000701233392876291,638.7818631831874,339.6842532755017,577.2129281385717,stand
