ax,ay,az,gx,gy,gz,mx,my,mz
0.6252441,0.7226563,-0.2519531,22.80153,27.65649,24.87786,-40.48,-57.04,-151.8
0.6083984,0.7331543,-0.2697754,19.67175,17.46565,30.66412,-40.48,-57.04,-151.8
0.6137695,0.7927246,-0.3012695,20.13741,27.03053,20.92366,-33.12,-52.44,-151.8
0.6071777,0.8586426,-0.3354492,12.18321,22.28244,16.76336,-33.12,-52.44,-151.8
0.5905762,0.8552246,-0.3605957,6.229008,16.23664,12.31298,-31.28,-49.68,-150.88
0.5720215,0.8674316,-0.3647461,6.175572,10.10687,6.656488,-31.28,-49.68,-150.88
0.559082,0.8620605,-0.3620605,5.015267,3.610687,0.4351145,-31.28,-49.68,-150.88
0.5566406,0.845459,-0.3430176,-4.389313,-4.450382,-2.938931,-31.28,-48.76,-151.8
0.5476074,0.8532715,-0.3112793,-14.83969,-12.1145,-6.427481,-31.28,-48.76,-151.8
0.5444336,0.8547363,-0.2902832,-16.07634,-15.10687,-10.43511,-31.28,-48.76,-151.8
0.5576172,0.8574219,-0.2624512,-15.62595,-13.81679,-15.53435,-33.12,-49.68,-150.88
0.5874023,0.8308105,-0.2939453,-12.54962,-9.19084,-19.60305,-33.12,-49.68,-150.88
0.6174316,0.8127441,-0.328125,-13.54962,-11.09924,-21.48855,-33.12,-49.68,-150.88
0.6547852,0.8266602,-0.3271484,-23.03817,-14.36641,-21.84733,-35.88,-52.44,-151.8
0.6738281,0.8635254,-0.3071289,-27.70992,-19.07634,-23.37405,-35.88,-52.44,-151.8
0.6955566,0.8752441,-0.2775879,-27.72519,-20.33588,-30.0,-40.48,-53.36,-151.8
0.7023926,0.828125,-0.2961426,-16.12214,-15.83969,-35.55725,-40.48,-53.36,-151.8
0.7155762,0.7902832,-0.2980957,-11.34351,-19.36641,-39.83969,-40.48,-53.36,-151.8
0.7167969,0.737793,-0.2614746,-13.54198,-22.9084,-42.63359,-46.92,-56.12,-152.72
0.7199707,0.6943359,-0.2177734,-17.45802,-26.70992,-42.73283,-46.92,-56.12,-152.72
0.7219238,0.6726074,-0.1706543,-11.22901,-23.27481,-41.58015,-46.92,-56.12,-152.72
0.7312012,0.6325684,-0.1435547,-9.106871,-18.22137,-39.31298,-53.36,-61.64,-151.8
0.7490234,0.5910645,-0.1386719,-8.053435,-10.46565,-35.1832,-53.36,-61.64,-151.8
0.7390137,0.5534668,-0.1760254,-2.40458,-3.244275,-28.51145,-57.96,-66.24,-150.88
0.75,0.5654297,-0.1772461,2.40458,1.984733,-20.52672,-57.96,-66.24,-150.88
0.7495117,0.5732422,-0.1918945,4.274809,5.442748,-18.68702,-57.96,-66.24,-150.88
0.7331543,0.5537109,-0.2023926,8.068703,8.19084,-12.51145,-59.8,-68.08,-150.88
0.7121582,0.5751953,-0.2045898,11.03817,5.160306,-6.160306,-59.8,-68.08,-150.88
0.7160645,0.5810547,-0.1826172,17.58779,9.297709,-1.679389,-59.8,-68.08,-150.88
0.7194824,0.5847168,-0.1650391,15.35878,16.36641,1.099237,-58.88,-68.08,-150.88
0.723877,0.6403809,-0.1804199,14.03817,20.36641,5.366412,-58.88,-68.08,-150.88
0.7172852,0.6875,-0.1838379,23.1145,26.65649,8.480916,-56.12,-68.08,-151.8
0.7089844,0.6782227,-0.2631836,35.52672,31.32825,13.84733,-56.12,-68.08,-151.8
0.6716309,0.690918,-0.2912598,28.43511,17.9313,22.46565,-56.12,-68.08,-151.8
0.6569824,0.8032227,-0.2285156,3.305344,5.687023,23.26718,-50.6,-65.32,-152.72
0.6362305,0.7822266,-0.1984863,-0.5419847,16.87023,17.0458,-50.6,-65.32,-152.72
0.6518555,0.7053223,-0.2854004,13.84733,21.38168,19.37405,-50.6,-65.32,-152.72
0.6245117,0.7077637,-0.3151855,11.12977,12.48092,23.64122,-48.76,-63.48,-152.72
0.5654297,0.8198242,-0.236084,0.9923664,5.015267,19.67175,-48.76,-63.48,-152.72
0.5466309,0.8000488,-0.157959,16.48092,22.77099,9.19084,-46.0,-62.56,-151.8
0.5766602,0.7429199,-0.2045898,43.05344,35.87786,3.541985,-46.0,-62.56,-151.8
0.5830078,0.6362305,-0.2727051,45.75573,33.51908,8.290076,-46.0,-62.56,-151.8
0.5664063,0.6645508,-0.2658691,26.54198,26.79389,13.19847,-41.4,-60.72,-152.72
0.5717773,0.6826172,-0.2290039,14.80153,30.70992,16.50382,-41.4,-60.72,-152.72
0.5734863,0.6738281,-0.2236328,10.85496,37.96183,18.13741,-41.4,-60.72,-152.72
0.597168,0.6943359,-0.2880859,13.49618,37.38931,25.32825,-37.72,-57.96,-152.72
0.5947266,0.7189941,-0.2841797,16.44275,34.80153,28.26718,-37.72,-57.96,-152.72
0.5974121,0.765625,-0.3017578,14.64886,37.31298,29.07634,-33.12,-53.36,-153.64
0.5935059,0.8134766,-0.2912598,8.038168,38.64122,25.63359,-33.12,-53.36,-153.64
0.59375,0.8427734,-0.3056641,7.206107,32.22901,22.12977,-33.12,-53.36,-153.64
0.5805664,0.8256836,-0.3017578,13.64122,32.41221,19.25954,-31.28,-49.68,-153.64
0.5717773,0.875,-0.3146973,-0.04580153,9.229008,9.007633,-29.44,-46.92,-153.64
0.5795898,0.854248,-0.3188477,0.3282443,6.778626,4.793893,-29.44,-46.92,-153.64
0.5683594,0.8669434,-0.3330078,4.21374,0.5648855,2.114504,-29.44,-46.92,-153.64
0.5712891,0.8657227,-0.3210449,-3.541985,-1.473282,-5.679389,-28.52,-46.0,-153.64
0.5917969,0.8591309,-0.3383789,-12.35114,-4.251908,-12.52672,-28.52,-46.0,-153.64
0.6108398,0.8415527,-0.3244629,-16.12977,-7.977099,-15.70992,-31.28,-46.0,-154.56
0.6223145,0.8391113,-0.342041,-14.32824,-14.41985,-20.50382,-31.28,-46.0,-154.56
0.6181641,0.828125,-0.3317871,-11.87023,-16.33588,-24.70992,-31.28,-46.0,-154.56
0.6303711,0.8054199,-0.3198242,-15.1145,-17.33588,-29.87023,-33.12,-48.76,-154.56
0.6569824,0.7854004,-0.3352051,-16.9771,-22.56489,-32.82443,-33.12,-48.76,-154.56
0.6516113,0.7905273,-0.3015137,-16.17557,-28.83969,-34.83206,-33.12,-48.76,-154.56
0.6584473,0.7827148,-0.2885742,-14.39695,-28.41985,-38.94656,-38.64,-51.52,-154.56
0.6745605,0.7456055,-0.2770996,-7.358778,-27.01527,-39.07634,-38.64,-51.52,-154.56
0.685791,0.734375,-0.2536621,-10.9542,-25.77099,-37.9084,-44.16,-56.12,-154.56
0.6884766,0.7314453,-0.2429199,-12.87023,-19.59542,-34.98473,-44.16,-56.12,-154.56
0.6870117,0.7336426,-0.2475586,-16.45038,-23.29771,-34.12977,-44.16,-56.12,-154.56
0.6918945,0.708252,-0.2700195,-6.48855,-16.72519,-36.70992,-48.76,-60.72,-153.64
0.6833496,0.677002,-0.265625,-4.351145,-14.77863,-34.24427,-48.76,-60.72,-153.64
0.6901855,0.657959,-0.2504883,-14.53435,-25.85496,-29.78626,-48.76,-60.72,-153.64
0.6828613,0.6550293,-0.1855469,-19.22901,-28.13741,-24.17557,-54.28,-66.24,-152.72
0.6540527,0.6164551,-0.161377,-18.24427,-24.54962,-25.87786,-54.28,-66.24,-152.72
0.6804199,0.5993652,-0.1435547,-10.0458,-16.50382,-13.0916,-57.96,-69.92,-150.88
0.6870117,0.5876465,-0.1201172,-12.43511,-12.03817,-8.732824,-57.96,-69.92,-150.88
0.6789551,0.6176758,-0.1220703,-13.17557,-7.366412,-1.801527,-57.96,-69.92,-150.88
0.6708984,0.6359863,-0.125,-5.007634,2.503817,4.137404,-59.8,-70.84,-149.96
0.6616211,0.6552734,-0.1542969,-0.02290076,7.770992,9.557252,-59.8,-70.84,-149.96
0.657959,0.6462402,-0.1850586,0.9923664,7.977099,15.80916,-59.8,-70.84,-149.96
0.644043,0.6586914,-0.1831055,3.78626,7.496183,19.96947,-59.8,-69.92,-149.96
0.6391602,0.6887207,-0.1469727,2.129771,11.68702,23.16031,-59.8,-69.92,-149.96
0.6367188,0.7324219,-0.1584473,2.328244,15.85496,21.96183,-59.8,-69.92,-149.96
0.6474609,0.7106934,-0.1833496,11.91603,24.09924,21.91603,-57.96,-68.08,-150.88
0.657959,0.6845703,-0.1967773,16.98473,26.51908,24.06107,-57.96,-68.08,-150.88
0.6723633,0.6889648,-0.2316895,18.21374,26.96183,26.35878,-54.28,-64.4,-151.8
0.6699219,0.7011719,-0.2207031,13.25191,23.83969,29.1145,-54.28,-64.4,-151.8
0.6813965,0.7116699,-0.2390137,15.41985,23.74809,31.46565,-54.28,-64.4,-151.8
0.6745605,0.6948242,-0.2438965,19.9771,30.54962,33.39695,-49.68,-60.72,-152.72
0.6650391,0.7416992,-0.246582,18.9542,29.0229,31.05343,-49.68,-60.72,-152.72
0.6657715,0.7658691,-0.2280273,25.9542,31.96947,29.03053,-49.68,-60.72,-152.72
0.6708984,0.7387695,-0.2434082,34.9542,35.29771,26.42748,-44.16,-57.96,-153.64
0.6828613,0.7055664,-0.2749023,35.00763,33.16031,27.89313,-44.16,-57.96,-153.64
0.6838379,0.7438965,-0.300293,23.87023,23.91603,30.47328,-37.72,-54.28,-153.64
0.657959,0.8005371,-0.2856445,12.48855,18.71756,27.25954,-37.72,-54.28,-153.64
0.6660156,0.7956543,-0.2536621,14.51908,16.74046,25.49618,-37.72,-54.28,-153.64
0.6604004,0.8112793,-0.262207,20.53435,20.38168,23.61069,-33.12,-53.36,-153.64
0.6342773,0.7919922,-0.2573242,13.74046,16.74046,19.01527,-33.12,-53.36,-153.64
0.6113281,0.7780762,-0.2543945,17.19847,16.34351,16.25191,-33.12,-53.36,-153.64
0.59375,0.7949219,-0.2277832,16.13741,19.96183,15.69466,-29.44,-51.52,-151.8
0.5822754,0.7924805,-0.2785645,10.26718,23.24427,13.66412,-29.44,-51.52,-151.8
0.5644531,0.8129883,-0.317627,10.47328,22.33588,10.75572,-28.52,-49.68,-151.8
0.548584,0.8452148,-0.3498535,14.37405,19.52672,2.496183,-28.52,-49.68,-151.8
0.5446777,0.838623,-0.3952637,12.14504,11.0229,-2.167939,-28.52,-49.68,-151.8
0.5412598,0.8195801,-0.3852539,9.641221,2.549618,-4.847328,-27.6,-49.68,-151.8
0.543457,0.8129883,-0.3989258,-0.07633588,-8.877863,-16.29008,-28.52,-49.68,-150.88
0.5395508,0.8198242,-0.3996582,0.9770992,-11.62595,-18.9084,-28.52,-49.68,-150.88
0.541748,0.8205566,-0.3928223,-5.687023,-19.16031,-22.08397,-28.52,-49.68,-150.88
0.5524902,0.8476563,-0.369873,-11.06107,-23.61832,-25.29771,-29.44,-51.52,-150.88
0.5737305,0.8498535,-0.3518066,-17.35114,-27.39695,-30.77099,-29.44,-51.52,-150.88
0.5927734,0.8322754,-0.3308105,-17.42748,-26.51145,-33.90076,-29.44,-51.52,-150.88
0.6147461,0.798584,-0.3293457,-13.63359,-26.49618,-34.20611,-32.2,-55.2,-150.88
0.6442871,0.8244629,-0.3068848,-20.06107,-26.46565,-34.53435,-32.2,-55.2,-150.88
0.6557617,0.8532715,-0.3234863,-23.58015,-25.85496,-38.58015,-36.8,-57.96,-150.88
0.6650391,0.8212891,-0.3720703,-14.44275,-23.81679,-45.26717,-36.8,-57.96,-150.88
0.6862793,0.7819824,-0.3486328,-9.961832,-28.07634,-46.76336,-36.8,-57.96,-150.88
0.7124023,0.7485352,-0.3088379,-15.22137,-30.34351,-44.03053,-43.24,-62.56,-150.88
0.6931152,0.7744141,-0.3005371,-22.54198,-30.32061,-42.03053,-43.24,-62.56,-150.88
0.6645508,0.838623,-0.2382813,-31.24427,-31.8855,-53.03817,-43.24,-62.56,-150.88
0.6860352,0.7285156,-0.2653809,-21.20611,-19.40458,-53.85496,-49.68,-68.08,-149.04
0.6782227,0.6940918,-0.2556152,-4.122138,-19.77863,-48.38931,-49.68,-68.08,-149.04
0.6586914,0.6486816,-0.2128906,-8.152672,-20.14504,-41.62595,-57.04,-73.6,-146.28
0.6520996,0.6298828,-0.1801758,-10.71756,-21.30534,-33.19847,-57.04,-73.6,-146.28
0.6311035,0.6608887,-0.1594238,-8.419847,-18.51145,-27.07634,-57.04,-73.6,-146.28
0.6179199,0.6479492,-0.1726074,-0.5267176,-14.35114,-19.70992,-61.64,-78.2,-143.52
0.6079102,0.5979004,-0.1679688,1.351145,-5.10687,-12.33588,-61.64,-78.2,-143.52
0.6159668,0.6020508,-0.2043457,-2.717557,-1.007634,-3.137405,-61.64,-80.96,-142.6
0.6125488,0.609375,-0.2023926,-0.09923664,6.48855,4.10687,-61.64,-80.96,-142.6
0.6030273,0.6464844,-0.2380371,6.114504,11.83206,7.778626,-61.64,-80.96,-142.6
0.6247559,0.6054688,-0.2255859,14.08397,16.36641,13.64122,-61.64,-80.04,-142.6
0.6455078,0.5629883,-0.2443848,14.59542,18.36641,25.79389,-61.64,-80.04,-142.6
0.6079102,0.6320801,-0.2797852,2.954198,15.64886,35.58015,-61.64,-80.04,-142.6
0.5732422,0.7946777,-0.2304688,-5.854962,9.450381,35.24427,-57.96,-77.28,-143.52
0.5610352,0.8410645,-0.2529297,1.969466,17.27481,28.76336,-57.96,-77.28,-143.52
0.5803223,0.7807617,-0.2963867,18.31298,21.27481,31.0,-57.96,-77.28,-143.52
0.5737305,0.8371582,-0.3513184,17.0687,17.51908,30.24427,-54.28,-73.6,-145.36
0.5495605,0.9892578,-0.2900391,8.824428,10.38931,16.48855,-54.28,-73.6,-145.36
0.5249023,1.04248,-0.2480469,12.35114,9.198473,-2.465649,-49.68,-71.76,-144.44
0.5161133,0.9179688,-0.2260742,36.10687,23.87023,-6.122138,-49.68,-71.76,-144.44
0.503418,0.826416,-0.2556152,39.19847,28.60305,-0.3740458,-49.68,-71.76,-144.44
0.4702148,0.8344727,-0.3168945,14.1145,30.34351,3.572519,-46.0,-71.76,-144.44
0.465332,0.8391113,-0.3134766,-0.4580153,27.98473,2.931298,-46.0,-71.76,-144.44
0.4611816,0.8000488,-0.3205566,10.60305,35.12214,5.152672,-46.0,-71.76,-144.44
0.465332,0.7702637,-0.3115234,18.9084,37.54962,5.557252,-44.16,-69.92,-144.44
0.470459,0.7607422,-0.3398438,12.96183,40.47328,10.93893,-44.16,-69.92,-144.44
0.4729004,0.7424316,-0.3337402,7.282443,35.83206,13.99237,-42.32,-66.24,-144.44
0.4724121,0.7463379,-0.3276367,-2.709924,34.05344,15.79389,-42.32,-66.24,-144.44
0.4863281,0.7402344,-0.3210449,-0.9465649,36.91603,19.03817,-42.32,-66.24,-144.44
0.484375,0.762207,-0.3476563,1.068702,39.13741,21.73282,-41.4,-61.64,-145.36
0.4902344,0.8076172,-0.3498535,6.21374,32.10687,24.30534,-41.4,-61.64,-145.36
0.4855957,0.8828125,-0.3312988,3.053435,30.19847,22.37405,-41.4,-61.64,-145.36
0.4785156,0.911377,-0.3425293,5.129771,29.44275,21.54198,-40.48,-57.96,-147.2
0.4799805,0.9294434,-0.34375,12.10687,25.0687,17.61069,-40.48,-57.96,-147.2
0.4936523,0.9621582,-0.3256836,11.87023,19.45802,11.01527,-38.64,-55.2,-147.2
0.4904785,0.9609375,-0.338623,0.3129771,12.92366,3.51145,-38.64,-55.2,-147.2
0.5036621,0.8522949,-0.355957,10.77863,-5.21374,-7.053435,-39.56,-54.28,-147.2
0.5112305,0.8210449,-0.3308105,9.152672,-11.9542,-7.938931,-39.56,-54.28,-147.2
0.5009766,0.7868652,-0.3430176,-6.335878,-18.98473,-6.480916,-39.56,-55.2,-148.12
0.4951172,0.7763672,-0.3508301,-22.03053,-31.22901,-6.679389,-39.56,-55.2,-148.12
0.5031738,0.7827148,-0.2929688,-22.59542,-33.67939,-3.496183,-39.56,-55.2,-148.12
0.487793,0.8466797,-0.2333984,-28.30534,-34.39695,-2.610687,-41.4,-57.96,-147.2
0.4985352,0.8786621,-0.2331543,-39.31298,-33.66412,-3.816794,-41.4,-57.96,-147.2
0.5070801,0.8510742,-0.2578125,-25.9771,-29.39695,-3.70229,-41.4,-57.96,-147.2
0.5192871,0.8444824,-0.2529297,-22.42748,-31.61069,-0.3206107,-45.08,-61.64,-145.36
0.5671387,0.9516602,-0.2236328,-42.55725,-36.35115,0.6717557,-45.08,-61.64,-145.36
0.5583496,1.032959,-0.2075195,-60.86259,-38.0,-14.61069,-50.6,-63.48,-144.44
0.560791,0.901123,-0.2849121,-33.78626,-24.74809,-24.72519,-50.6,-63.48,-144.44
0.5849609,0.8693848,-0.2746582,-16.30534,-26.16031,-23.0916,-50.6,-63.48,-144.44
0.6123047,0.9389648,-0.2141113,-44.25191,-27.9084,-26.03053,-57.04,-66.24,-143.52
0.5759277,0.9504395,-0.190918,-38.39695,-15.18321,-39.73283,-57.04,-66.24,-143.52
0.5825195,0.8679199,-0.2102051,11.14504,2.923664,-47.0916,-57.04,-66.24,-143.52
0.6210938,0.8415527,-0.2419434,21.99237,6.198473,-52.77863,-64.4,-69.92,-141.68
0.6320801,0.7810059,-0.2597656,4.587786,0.9541985,-55.55725,-64.4,-69.92,-141.68
0.6303711,0.6394043,-0.2905273,6.305344,0.5267176,-52.58779,-67.16,-73.6,-140.76
0.6625977,0.6206055,-0.2399902,19.67175,-0.5877862,-39.83969,-67.16,-73.6,-140.76
0.642334,0.619873,-0.2399902,21.39695,0.4580153,-30.68702,-67.16,-73.6,-140.76
0.6208496,0.6086426,-0.2607422,11.64122,-3.862595,-22.40458,-68.08,-78.2,-139.84
0.6220703,0.619873,-0.2429199,-5.839694,-10.0916,-16.17557,-68.08,-78.2,-139.84
0.5957031,0.6408691,-0.222168,-11.58779,-7.587786,-8.557252,-68.08,-78.2,-139.84
0.5651855,0.6635742,-0.2878418,2.435115,-7.022901,-0.2366412,-69.0,-80.96,-138.0
0.5583496,0.6513672,-0.2561035,11.64122,-8.740458,6.91603,-69.0,-80.96,-138.0
0.5742188,0.685791,-0.230957,-5.656488,-15.60305,14.80153,-69.0,-81.88,-138.0
0.5600586,0.7431641,-0.1896973,-26.57252,-18.76336,16.01527,-69.0,-81.88,-138.0
0.5476074,0.7568359,-0.1711426,-11.31298,-8.748092,16.0,-69.0,-81.88,-138.0
0.578125,0.7480469,-0.1584473,1.496183,0.8854962,17.90076,-69.92,-81.88,-137.08
0.5808105,0.7453613,-0.1787109,-6.358778,0.5954198,24.38168,-69.92,-81.88,-137.08
0.5605469,0.7888184,-0.1745605,-18.67939,-2.732824,25.9771,-69.92,-81.88,-137.08
0.5356445,0.8164063,-0.1230469,-4.450382,8.251908,27.16794,-69.0,-80.04,-136.16
0.5297852,0.8295898,-0.1679688,11.83969,19.08397,26.12214,-69.0,-80.04,-136.16
0.5224609,0.8352051,-0.1977539,10.48855,19.51145,25.69466,-67.16,-77.28,-136.16
0.5117188,0.876709,-0.2185059,8.763359,18.93893,22.12214,-67.16,-77.28,-136.16
0.5041504,0.8808594,-0.2297363,16.31298,25.45038,18.12214,-67.16,-77.28,-136.16
0.4624023,0.9692383,-0.2963867,20.34351,21.46565,12.52672,-64.4,-74.52,-137.08
0.463623,1.026611,-0.2033691,27.38168,20.03053,2.51145,-64.4,-74.52,-137.08
0.4812012,0.932373,-0.1821289,48.74809,33.63359,-4.312977,-64.4,-74.52,-137.08
0.4655762,0.8474121,-0.2558594,48.9084,37.9771,-5.038168,-58.88,-73.6,-137.08
0.4487305,0.8195801,-0.3666992,22.63359,25.45038,-4.145038,-58.88,-73.6,-137.08
0.4082031,0.8266602,-0.2944336,10.19847,18.0458,0.7099237,-53.36,-72.68,-138.0
0.4084473,0.8383789,-0.2365723,16.48092,20.74809,4.290076,-53.36,-72.68,-138.0
0.3891602,0.8115234,-0.25,18.87786,25.38931,5.70229,-53.36,-72.68,-138.0
0.3798828,0.8256836,-0.2873535,9.480916,24.20611,6.145038,-51.52,-71.76,-138.0
0.3737793,0.826416,-0.2932129,7.320611,25.18321,8.687023,-51.52,-71.76,-138.0
0.3762207,0.8361816,-0.3193359,9.137404,27.23664,14.40458,-51.52,-71.76,-138.0
0.380127,0.8569336,-0.3374023,-0.389313,22.63359,19.96947,-49.68,-69.92,-138.92
0.3864746,0.921875,-0.3374023,-5.740458,20.54962,21.13741,-49.68,-69.92,-138.92
0.4069824,1.00415,-0.3359375,0.648855,22.9542,19.74046,-48.76,-67.16,-139.84
0.4040527,1.058838,-0.3537598,-0.389313,23.36641,11.45802,-48.76,-67.16,-139.84
0.4211426,1.005371,-0.3693848,-5.59542,-0.007633588,-0.4961832,-48.76,-65.32,-140.76
0.4216309,1.003174,-0.324707,-12.32824,-7.748092,-4.305344,-48.76,-65.32,-140.76
0.4223633,1.005859,-0.300293,-14.51908,-10.06107,-12.05344,-50.6,-65.32,-139.84
0.4301758,0.9335938,-0.3051758,-11.41985,-13.07634,-16.12214,-50.6,-65.32,-139.84
0.4335938,0.9094238,-0.3156738,-13.09924,-19.61069,-16.22137,-50.6,-65.32,-139.84
0.4243164,0.9287109,-0.3095703,-12.80916,-24.29008,-17.23664,-53.36,-66.24,-139.84
0.4101563,0.951416,-0.2856445,-22.61069,-24.35114,-22.61832,-53.36,-66.24,-139.84
0.458252,0.923584,-0.3037109,-24.31298,-21.35114,-29.17557,-53.36,-66.24,-139.84
0.4870605,0.9025879,-0.2878418,-24.92366,-25.07634,-32.0458,-57.04,-69.0,-138.92
0.4858398,0.8981934,-0.2585449,-22.54962,-23.19084,-32.37405,-57.04,-69.0,-138.92
0.5107422,0.9023438,-0.2138672,-17.12214,-19.62595,-32.23664,-63.48,-72.68,-137.08
0.5412598,0.8740234,-0.2331543,-9.801527,-10.91603,-36.89313,-63.48,-72.68,-137.08
0.5493164,0.8339844,-0.2370605,-1.40458,-6.068702,-36.05344,-63.48,-72.68,-137.08
0.5544434,0.7915039,-0.2236328,-0.1755725,-8.908397,-32.64122,-68.08,-76.36,-135.24
0.5517578,0.7436523,-0.2094727,-5.389313,-8.763359,-28.91603,-68.08,-76.36,-135.24
0.5490723,0.7302246,-0.1862793,-1.916031,-8.839695,-23.84733,-68.08,-76.36,-135.24
0.5488281,0.7036133,-0.1508789,0.4580153,-5.687023,-20.86259,-70.84,-80.04,-134.32
0.5529785,0.6789551,-0.1437988,-0.8167939,-2.984733,-15.32061,-70.84,-80.04,-134.32
0.5644531,0.6638184,-0.1540527,-1.19084,-1.694656,-6.664122,-72.68,-81.88,-133.4
0.5632324,0.6608887,-0.152832,4.129771,1.175573,-0.6717557,-72.68,-81.88,-133.4
0.5581055,0.6711426,-0.1569824,6.938931,1.877863,2.045802,-72.68,-81.88,-133.4
0.5563965,0.6877441,-0.1477051,5.40458,5.183206,3.954198,-72.68,-82.8,-133.4
0.559082,0.6855469,-0.1516113,6.061069,9.145039,10.0687,-72.68,-82.8,-133.4
0.5549316,0.6850586,-0.152832,6.603054,6.541985,17.9313,-72.68,-82.8,-133.4
0.5400391,0.7197266,-0.1235352,3.160305,10.55725,23.69466,-71.76,-81.88,-134.32
0.5344238,0.7729492,-0.1506348,6.38168,13.57252,26.03053,-71.76,-81.88,-134.32
0.532959,0.8208008,-0.1708984,13.18321,22.39695,24.94657,-69.0,-79.12,-135.24
0.5344238,0.815918,-0.2353516,17.51145,19.55725,23.96947,-69.0,-79.12,-135.24
0.5427246,0.8032227,-0.2575684,18.87023,15.87786,22.96947,-69.0,-79.12,-135.24
0.5568848,0.8059082,-0.2490234,19.78626,16.70992,23.10687,-65.32,-76.36,-137.08
0.5541992,0.8693848,-0.1950684,24.55725,14.59542,19.48855,-65.32,-76.36,-137.08
0.5446777,0.845459,-0.1694336,33.0229,21.33588,19.64122,-65.32,-76.36,-137.08
0.5458984,0.8356934,-0.1711426,35.22901,26.9084,20.59542,-59.8,-74.52,-138.92
0.5444336,0.8415527,-0.2148438,29.38931,30.39695,23.14504,-59.8,-74.52,-138.92
0.5214844,0.8857422,-0.2243652,12.99237,29.37405,25.0687,-54.28,-71.76,-139.84
0.5148926,0.887207,-0.2949219,10.40458,30.20611,26.90076,-54.28,-71.76,-139.84
0.5031738,0.8752441,-0.3295898,25.59542,34.38931,25.61069,-54.28,-71.76,-139.84
0.4807129,0.8769531,-0.34375,22.76336,33.12214,22.61832,-50.6,-69.0,-140.76
0.4675293,0.8857422,-0.3518066,14.63359,32.15267,19.61832,-50.6,-69.0,-140.76
0.4633789,0.8508301,-0.361084,16.35114,31.78626,16.03053,-50.6,-69.0,-140.76
0.4553223,0.8161621,-0.3908691,20.15267,31.62595,16.85496,-46.0,-67.16,-141.68
0.435791,0.8178711,-0.3911133,14.87023,25.66412,17.64886,-46.0,-67.16,-141.68
0.4272461,0.8369141,-0.3620605,10.03817,22.69466,18.70229,-43.24,-64.4,-142.6
0.4284668,0.8869629,-0.3725586,15.48855,23.0229,16.38931,-43.24,-64.4,-142.6
0.4213867,0.8947754,-0.3632813,16.17557,22.67175,13.73282,-43.24,-64.4,-142.6
0.4274902,0.8950195,-0.3933105,16.06107,20.22137,11.25954,-40.48,-62.56,-142.6
0.439209,0.9125977,-0.4145508,10.17557,14.83969,7.351145,-40.48,-62.56,-142.6
0.4472656,0.9150391,-0.4238281,-0.9847328,4.496183,4.664122,-40.48,-62.56,-142.6
0.4541016,0.9584961,-0.4199219,-1.48855,-2.633588,1.694656,-39.56,-61.64,-143.52
0.4462891,0.9624023,-0.3996582,-7.946565,-12.36641,-6.671756,-39.56,-61.64,-143.52
0.4433594,0.9528809,-0.3703613,-14.0229,-15.61832,-10.94656,-40.48,-61.64,-143.52
0.4682617,0.934082,-0.329834,-15.66412,-20.70229,-18.06107,-44.16,-63.48,-142.6
0.4829102,0.9182129,-0.3249512,-19.68702,-22.59542,-21.9313,-44.16,-63.48,-142.6
0.4997559,0.887207,-0.3027344,-23.58015,-24.25954,-23.9542,-44.16,-63.48,-142.6
0.5217285,0.8781738,-0.2875977,-24.75573,-21.68702,-24.34351,-47.84,-66.24,-141.68
0.5275879,0.8994141,-0.2558594,-30.77099,-24.51908,-25.36641,-47.84,-66.24,-141.68
0.5378418,0.9072266,-0.2104492,-26.79389,-14.14504,-28.27481,-47.84,-66.24,-141.68
0.5727539,0.8964844,-0.2685547,-19.98473,-8.328244,-31.47328,-53.36,-69.0,-141.68
0.5742188,0.862793,-0.3186035,-10.23664,-7.580153,-33.67176,-53.36,-69.0,-141.68
0.5737305,0.8400879,-0.3103027,-7.198473,-15.07634,-36.13741,-58.88,-70.84,-140.76
0.5783691,0.8325195,-0.2739258,-6.770992,-17.12977,-39.44275,-58.88,-70.84,-140.76
0.5849609,0.7819824,-0.2597656,-5.29771,-19.94657,-40.9542,-58.88,-70.84,-140.76
0.5927734,0.7219238,-0.2294922,-3.015267,-23.63359,-37.86259,-62.56,-76.36,-138.92
0.5939941,0.6999512,-0.1972656,-1.877863,-23.0916,-34.23664,-62.56,-76.36,-138.92
0.5817871,0.666748,-0.151123,0.4122138,-20.78626,-28.42748,-62.56,-76.36,-138.92
0.5825195,0.6477051,-0.1291504,-3.687023,-18.16031,-21.19084,-65.32,-80.96,-136.16
0.567627,0.6374512,-0.1223145,-3.137405,-8.343512,-14.67939,-65.32,-80.96,-136.16
0.543457,0.6281738,-0.09545898,4.099236,-6.984733,-9.145039,-65.32,-80.96,-136.16
0.5393066,0.635498,-0.07006836,3.603053,3.564885,-0.5267176,-68.08,-84.64,-134.32
0.5471191,0.6499023,-0.1154785,1.412214,9.793893,9.007633,-68.08,-84.64,-134.32
0.5388184,0.6945801,-0.142334,0.6335878,13.58015,15.9313,-67.16,-83.72,-134.32
0.5280762,0.7424316,-0.1611328,0.8473283,15.32824,16.32061,-67.16,-83.72,-134.32
0.5192871,0.751709,-0.2060547,8.40458,21.28244,19.53435,-67.16,-83.72,-134.32
0.5146484,0.7819824,-0.1967773,10.79389,24.48855,20.83969,-65.32,-80.96,-137.08
0.5219727,0.8432617,-0.2363281,13.30534,27.70992,19.42748,-65.32,-80.96,-137.08
0.5280762,0.842041,-0.2807617,20.31298,25.50382,14.81679,-65.32,-80.96,-137.08
0.5500488,0.8376465,-0.3146973,28.68702,25.0687,13.48855,-62.56,-77.28,-138.92
0.5463867,0.8452148,-0.3220215,28.87786,17.75573,11.69466,-62.56,-77.28,-138.92
0.5490723,0.8510742,-0.3210449,19.46565,13.9771,9.450381,-57.96,-76.36,-139.84
0.5483398,0.8757324,-0.2827148,18.52672,6.717557,8.839695,-57.96,-76.36,-139.84
0.5432129,0.8896484,-0.2145996,28.82443,14.54962,6.801527,-57.96,-76.36,-139.84
0.5256348,0.8859863,-0.2697754,35.48092,25.9542,1.320611,-53.36,-75.44,-139.84
0.4985352,0.8640137,-0.3942871,28.51145,20.23664,-0.2442748,-53.36,-75.44,-139.84
0.4541016,0.8479004,-0.3613281,19.98473,11.36641,2.557252,-53.36,-75.44,-139.84
0.4343262,0.8374023,-0.2973633,0.648855,2.748092,6.442748,-48.76,-75.44,-139.84
0.4038086,0.8256836,-0.246582,-3.152672,7.412214,12.61832,-48.76,-75.44,-139.84
0.3891602,0.8083496,-0.2463379,1.946565,21.70229,17.36641,-46.92,-75.44,-138.92
0.3847656,0.8056641,-0.3117676,5.717557,27.80153,20.58779,-46.92,-75.44,-138.92
0.3720703,0.8127441,-0.3823242,4.541985,30.63359,24.85496,-46.92,-75.44,-138.92
0.3669434,0.8459473,-0.373291,-1.709924,23.00763,27.16794,-46.0,-72.68,-138.92
0.3701172,0.8503418,-0.3601074,1.389313,21.89313,26.60305,-46.0,-72.68,-138.92
0.3637695,0.845459,-0.3737793,6.396946,29.0916,26.34351,-46.0,-72.68,-138.92
0.3613281,0.8588867,-0.3984375,-1.618321,23.9542,26.61069,-44.16,-69.92,-139.84
0.354248,0.953125,-0.3820801,-10.28244,18.74809,22.55725,-44.16,-69.92,-139.84
0.364502,0.9912109,-0.3527832,-7.335878,16.9313,17.30534,-44.16,-66.24,-139.84
0.3647461,0.9602051,-0.3615723,-7.022901,18.06107,12.28244,-44.16,-66.24,-139.84
0.3776855,0.949707,-0.3908691,-7.900764,13.05344,10.03053,-44.16,-66.24,-139.84
0.376709,0.9619141,-0.3452148,-10.41221,11.63359,7.923664,-45.08,-64.4,-140.76
0.3952637,1.003906,-0.3674316,-19.60305,9.244275,1.679389,-45.08,-64.4,-140.76
0.4189453,0.9833984,-0.4084473,-14.0229,4.251908,-4.557252,-45.08,-64.4,-140.76
0.439209,0.96875,-0.3896484,-3.030534,0.4732824,-8.076336,-47.84,-62.56,-141.68
0.4785156,0.9379883,-0.3798828,-13.15267,-6.900764,-12.15267,-47.84,-62.56,-141.68
0.5446777,0.9106445,-0.3110352,-24.44275,-18.85496,-17.32061,-49.68,-62.56,-141.68
0.5725098,0.9128418,-0.2875977,-24.87023,-26.30534,-20.0458,-49.68,-64.4,-141.68
0.5939941,0.8696289,-0.2871094,-31.20611,-30.9542,-24.70992,-55.2,-64.4,-141.68
0.5866699,0.8227539,-0.2873535,-35.9084,-32.60305,-27.07634,-55.2,-64.4,-141.68
0.6098633,0.847168,-0.2407227,-36.22137,-39.15267,-28.70992,-60.72,-67.16,-140.76
0.6188965,0.8261719,-0.1860352,-27.61832,-37.43512,-31.52672,-60.72,-67.16,-140.76
0.6228027,0.7900391,-0.1525879,-22.60305,-34.70229,-31.76336,-60.72,-67.16,-140.76
0.614502,0.765625,-0.1381836,-25.87786,-32.36641,-31.9542,-68.08,-72.68,-137.08
0.6164551,0.7658691,-0.107666,-23.43511,-30.87786,-29.70992,-68.08,-72.68,-137.08
0.6057129,0.7277832,-0.09277344,-12.9313,-23.78626,-27.26718,-73.6,-77.28,-133.4
0.607666,0.6884766,-0.09155273,-8.641221,-16.65649,-23.14504,-73.6,-77.28,-133.4
0.5969238,0.6716309,-0.08081055,-11.79389,-14.38931,-18.50382,-73.6,-77.28,-133.4
0.5849609,0.6501465,-0.06811523,-9.80916,-7.725191,-11.83206,-77.28,-80.96,-130.64
0.581543,0.65625,-0.07324219,-2.343511,-2.183206,-6.137404,-77.28,-80.96,-130.64
0.5925293,0.6398926,-0.06640625,3.19084,4.641222,0.2900764,-77.28,-80.96,-130.64
0.5786133,0.6369629,-0.09350586,8.358779,13.10687,7.78626,-79.12,-81.88,-130.64
0.5715332,0.6508789,-0.112793,8.167939,14.55725,13.74046,-79.12,-81.88,-130.64
0.5583496,0.6914063,-0.1281738,8.671756,15.96947,19.84733,-79.12,-81.88,-130.64
0.5500488,0.7319336,-0.1469727,7.435114,15.87023,24.99237,-76.36,-79.12,-131.56
0.5432129,0.7717285,-0.1401367,6.938931,19.0,27.38168,-76.36,-79.12,-131.56
0.564209,0.826416,-0.1464844,10.17557,24.91603,25.51145,-74.52,-76.36,-133.4
0.6115723,0.7993164,-0.197998,23.91603,34.35115,23.54962,-74.52,-76.36,-133.4
0.6132813,0.7346191,-0.2722168,28.41221,36.23664,22.23664,-74.52,-76.36,-133.4
0.5769043,0.7641602,-0.375,4.900764,18.80916,22.03817,-69.92,-72.68,-135.24
0.5397949,0.9057617,-0.2456055,-15.05344,4.21374,17.03053,-69.92,-72.68,-135.24
0.5341797,0.9248047,-0.1928711,-13.06107,13.9771,8.511451,-69.92,-72.68,-135.24
0.5285645,0.8769531,-0.2285156,22.07634,24.73282,5.648855,-67.16,-70.84,-134.32
0.512207,0.8679199,-0.2373047,39.87023,20.31298,9.633588,-67.16,-70.84,-134.32
0.5031738,0.887207,-0.1828613,21.9313,7.770992,12.1374,-62.56,-70.84,-135.24
0.5053711,0.878418,-0.1645508,-13.26718,4.832061,16.68702,-62.56,-70.84,-135.24
0.4733887,0.8984375,-0.1435547,-18.82443,8.114504,20.32825,-62.56,-70.84,-135.24
0.4458008,0.9472656,-0.06201172,19.31298,20.60305,24.24427,-62.56,-70.84,-132.48
0.4509277,0.9787598,-0.05883789,23.68702,34.54962,22.12977,-62.56,-70.84,-132.48
0.4589844,0.902832,-0.1379395,20.38931,48.96947,17.06107,-62.56,-70.84,-132.48
0.4499512,0.8798828,-0.2456055,19.87786,47.22137,17.49618,-57.96,-67.16,-134.32
0.4692383,0.9174805,-0.282959,7.534351,36.77099,19.87023,-57.96,-67.16,-134.32
0.4707031,0.9350586,-0.2973633,-5.91603,23.77863,16.80916,-56.12,-64.4,-136.16
0.4453125,0.947998,-0.2895508,-12.61069,19.91603,11.16031,-56.12,-64.4,-136.16
0.4555664,0.9418945,-0.3007813,-12.25954,17.78626,5.770992,-56.12,-64.4,-136.16
0.4262695,0.9248047,-0.2695313,3.748092,17.08397,6.160306,-57.04,-61.64,-136.16
0.418457,0.9145508,-0.2714844,6.122138,12.29771,6.519084,-57.04,-61.64,-136.16
0.4155273,0.9658203,-0.2758789,1.267176,6.396946,2.977099,-57.04,-61.64,-136.16
0.4091797,0.956543,-0.2858887,-7.114504,3.007634,-3.931298,-57.04,-61.64,-137.08
0.4174805,0.9504395,-0.269043,-4.442748,0.3282443,-9.801527,-57.04,-61.64,-137.08
0.434082,0.9433594,-0.2651367,2.427481,-2.694656,-11.74046,-57.96,-61.64,-137.08
0.4401855,0.9272461,-0.2597656,-5.946565,-11.35878,-12.38931,-57.96,-61.64,-137.08
0.4460449,0.9287109,-0.2363281,-16.96947,-18.29771,-15.16794,-57.96,-61.64,-137.08
0.465332,0.9133301,-0.2297363,-13.80916,-18.45038,-15.87786,-58.88,-62.56,-136.16
0.4912109,0.916748,-0.190918,-5.549618,-15.72519,-18.08397,-58.88,-62.56,-136.16
0.5146484,0.9064941,-0.2050781,-3.435115,-13.83969,-17.64886,-58.88,-62.56,-136.16
0.5649414,0.871582,-0.2182617,2.29771,-11.36641,-20.03053,-61.64,-64.4,-135.24
0.579834,0.8588867,-0.21875,2.015267,-12.64122,-20.10687,-63.48,-66.24,-136.16
0.5981445,0.8256836,-0.2189941,-3.793893,-18.57252,-17.27481,-63.48,-66.24,-136.16
0.6044922,0.7856445,-0.2453613,-1.80916,-24.16031,-15.99237,-63.48,-66.24,-136.16
0.5961914,0.7749023,-0.2346191,-4.832061,-18.41985,-14.41221,-65.32,-67.16,-137.08
0.5957031,0.8156738,-0.1630859,-7.08397,-28.0458,-14.59542,-65.32,-67.16,-137.08
0.6237793,0.8059082,-0.112793,-7.267176,-26.38168,-21.96947,-67.16,-71.76,-137.08
0.59375,0.7368164,-0.1433105,-6.129771,-21.80153,-20.35878,-67.16,-71.76,-137.08
0.5986328,0.7236328,-0.1223145,-4.541985,-19.83969,-17.00763,-67.16,-71.76,-137.08
0.6386719,0.6853027,-0.152832,-14.67176,-24.17557,-9.557252,-70.84,-74.52,-135.24
0.5559082,0.7736816,0.08544922,-36.14504,-50.33588,-3.496183,-70.84,-74.52,-135.24
0.607666,0.7111816,-0.02490234,-41.0916,-36.80153,5.305344,-70.84,-74.52,-135.24
0.6047363,0.6862793,-0.01269531,-26.76336,-17.32825,11.31298,-73.6,-77.28,-134.32
0.6572266,0.645752,-0.09448242,0.5267176,4.870229,7.198473,-73.6,-77.28,-134.32
0.6169434,0.6967773,-0.08300781,20.0687,20.16031,-3.618321,-75.44,-77.28,-133.4
0.6601563,0.7597656,0.04614258,24.0916,55.12214,0.9770992,-75.44,-77.28,-133.4
0.6040039,0.7407227,-0.05151367,0.0,2.51145,14.1374,-75.44,-77.28,-133.4
0.597168,0.7680664,0.0480957,3.984733,13.77863,19.67175,-75.44,-75.44,-133.4
0.5776367,0.7675781,-0.05834961,19.58779,28.77099,16.39695,-75.44,-75.44,-133.4
0.5837402,0.7800293,-0.07763672,20.75573,33.89313,18.0458,-75.44,-75.44,-133.4
0.5859375,0.7731934,-0.1123047,18.99237,34.10687,20.35114,-72.68,-72.68,-134.32
0.5849609,0.7963867,-0.1906738,19.70992,36.47328,18.51145,-72.68,-72.68,-134.32
0.6057129,0.7888184,-0.1860352,19.83206,31.54962,17.55725,-68.08,-69.0,-137.08
0.5981445,0.8027344,-0.1699219,17.83969,26.69466,19.47328,-68.08,-69.0,-137.08
0.6010742,0.8295898,-0.1757813,23.87023,35.54198,18.35878,-68.08,-69.0,-137.08
0.6044922,0.8503418,-0.2409668,29.0229,35.22137,17.78626,-63.48,-67.16,-138.0
0.604248,0.828125,-0.2770996,27.15267,27.01527,19.65649,-63.48,-67.16,-138.0
0.5922852,0.8205566,-0.2805176,16.34351,16.38931,18.9084,-63.48,-67.16,-138.0
0.5810547,0.8215332,-0.2321777,10.67176,12.77863,15.96183,-58.88,-65.32,-138.92
0.5822754,0.8354492,-0.2033691,5.687023,13.85496,14.48092,-58.88,-65.32,-138.92
0.5800781,0.8056641,-0.2214355,10.78626,15.71756,17.42748,-56.12,-65.32,-138.92
0.5734863,0.8408203,-0.2683105,11.75572,15.77099,17.9313,-56.12,-65.32,-138.92
0.534668,0.8618164,-0.2370605,7.450382,12.15267,13.80916,-56.12,-65.32,-138.92
0.5224609,0.8359375,-0.2304688,5.587786,9.984733,10.75572,-55.2,-64.4,-138.0
0.4909668,0.8146973,-0.2216797,13.37405,12.83206,14.43511,-55.2,-64.4,-138.0
0.4919434,0.8518066,-0.2109375,14.16031,11.72519,14.9542,-55.2,-64.4,-138.0
0.4802246,0.8601074,-0.2150879,7.89313,9.59542,8.770992,-53.36,-63.48,-138.92
0.4726563,0.887207,-0.2473145,7.076336,16.12977,9.870229,-53.36,-63.48,-138.92
0.4638672,0.8945313,-0.2434082,12.20611,16.45802,9.106871,-53.36,-63.48,-138.92
0.4643555,0.9025879,-0.2651367,13.42748,13.57252,7.763359,-53.36,-63.48,-138.92
0.4553223,0.9182129,-0.2556152,14.64886,10.59542,5.290076,-53.36,-63.48,-138.92
0.4628906,0.9274902,-0.2597656,6.40458,7.549618,1.022901,-51.52,-61.64,-138.92
0.4628906,0.9501953,-0.2441406,-2.038168,-0.8396947,-4.091603,-51.52,-61.64,-138.92
0.451416,0.9665527,-0.2160645,-5.19084,-2.832061,-7.519084,-51.52,-61.64,-138.92
0.4594727,0.9685059,-0.1970215,-8.748092,-4.664122,-10.37405,-51.52,-62.56,-138.92
0.4658203,0.9746094,-0.1696777,-9.221375,-3.381679,-13.03817,-51.52,-62.56,-138.92
0.4841309,0.9780273,-0.1584473,-9.969465,-4.969466,-19.32061,-53.36,-62.56,-138.0
0.5063477,0.9675293,-0.154541,-4.045802,3.526718,-23.90076,-53.36,-62.56,-138.0
0.5197754,0.9453125,-0.1977539,5.709924,8.137404,-27.80153,-53.36,-62.56,-138.0
0.5341797,0.9416504,-0.2236328,2.763359,4.114504,-31.28244,-55.2,-62.56,-138.0
0.5524902,0.9301758,-0.2312012,-1.320611,0.03053435,-35.63359,-55.2,-62.56,-138.0
0.5651855,0.8908691,-0.2260742,3.259542,0.8473283,-38.0,-55.2,-62.56,-138.0
0.5925293,0.8117676,-0.2211914,-5.236641,-9.671756,-41.44275,-57.96,-63.48,-138.92
0.5856934,0.7900391,-0.199707,-8.328244,-13.79389,-38.03817,-60.72,-66.24,-138.92
0.5893555,0.7871094,-0.175293,-15.55725,-17.67175,-35.35878,-60.72,-66.24,-138.92
0.5915527,0.7666016,-0.1589355,-14.9542,-14.12214,-32.36641,-60.72,-66.24,-138.92
0.5744629,0.7590332,-0.1450195,-9.679389,-10.35878,-29.38168,-66.24,-69.0,-138.0
0.5861816,0.7512207,-0.1159668,-3.381679,-6.839694,-28.30534,-66.24,-69.0,-138.0
0.5861816,0.7045898,-0.144043,-3.442748,-4.664122,-25.30534,-69.0,-70.84,-137.08
0.5749512,0.7011719,-0.1403809,-6.198473,-2.977099,-20.03817,-69.0,-70.84,-137.08
0.5727539,0.722168,-0.1125488,-6.244275,-3.305344,-16.03817,-69.0,-70.84,-137.08
0.5783691,0.7053223,-0.1166992,0.7022901,-0.1679389,-11.9313,-71.76,-73.6,-136.16
0.5678711,0.692627,-0.1411133,2.21374,-2.442748,-4.656488,-71.76,-73.6,-136.16
0.5698242,0.704834,-0.1242676,1.740458,-0.8931297,1.091603,-71.76,-73.6,-136.16
0.5681152,0.7189941,-0.1115723,1.801527,0.6335878,4.343512,-72.68,-73.6,-135.24
0.5598145,0.7209473,-0.08300781,3.473282,2.206107,8.496183,-72.68,-73.6,-135.24
0.5585938,0.7404785,-0.1018066,8.511451,6.603054,13.22901,-71.76,-74.52,-135.24
0.5473633,0.7661133,-0.1115723,7.007634,9.0,16.68702,-71.76,-74.52,-135.24
0.5498047,0.7832031,-0.1210938,8.900764,12.06107,19.08397,-71.76,-74.52,-135.24
0.5534668,0.7976074,-0.1635742,10.94656,10.58015,21.25954,-69.92,-73.6,-136.16
0.5698242,0.78125,-0.1833496,13.33588,11.29771,20.0458,-69.92,-73.6,-136.16
0.5629883,0.8056641,-0.1818848,19.71756,13.0916,18.24427,-69.92,-73.6,-136.16
0.5488281,0.8232422,-0.1501465,30.42748,22.32825,16.55725,-67.16,-71.76,-137.08
0.5429688,0.8374023,-0.2109375,32.35115,23.77099,14.40458,-67.16,-71.76,-137.08
0.5332031,0.831543,-0.223877,27.44275,25.35114,12.77863,-61.64,-70.84,-138.0
0.5368652,0.8747559,-0.2397461,24.25954,20.44275,11.23664,-61.64,-70.84,-138.0
0.5371094,0.8640137,-0.2419434,25.25191,18.80153,9.916031,-61.64,-70.84,-138.0
0.519043,0.8564453,-0.2539063,20.58015,22.03053,10.23664,-57.04,-69.92,-138.0
0.496582,0.8771973,-0.2836914,10.58015,12.43511,11.8626,-57.04,-69.92,-138.0
0.480957,0.9169922,-0.260498,5.175572,6.641222,12.65649,-57.04,-69.92,-138.0
0.4736328,0.9187012,-0.2539063,3.648855,6.343512,11.9542,-54.28,-69.92,-138.0
0.4462891,0.8955078,-0.2556152,6.099236,2.709924,11.45802,-54.28,-69.92,-138.0
0.435791,0.9365234,-0.2253418,6.351145,-0.09923664,9.587787,-53.36,-69.92,-137.08
0.4489746,0.8864746,-0.2316895,0.7557252,2.160305,11.67176,-53.36,-69.92,-137.08
0.4389648,0.8881836,-0.2805176,-2.038168,0.4503817,12.03817,-53.36,-69.92,-137.08
0.4238281,0.8930664,-0.2719727,-6.709924,-3.938931,13.30534,-52.44,-70.84,-137.08
0.4013672,0.8884277,-0.2180176,-13.79389,-2.587786,9.709924,-52.44,-70.84,-137.08
0.3974609,0.876709,-0.2341309,-10.1374,3.725191,16.45038,-52.44,-70.84,-137.08
0.392334,0.8925781,-0.2399902,-5.175572,3.145038,16.50382,-53.36,-70.84,-135.24
0.3818359,0.9138184,-0.2104492,-2.625954,3.068702,14.15267,-53.36,-70.84,-135.24
0.3901367,0.9084473,-0.2175293,-2.038168,9.442748,10.07634,-52.44,-69.92,-136.16
0.3962402,0.9353027,-0.2248535,-3.236641,11.0916,7.236641,-52.44,-69.92,-136.16
0.3996582,0.9360352,-0.265625,-1.748092,12.55725,4.10687,-52.44,-69.92,-136.16
0.3942871,0.9248047,-0.2553711,3.312977,9.870229,2.305344,-53.36,-69.0,-136.16
0.4013672,0.8974609,-0.2255859,-5.38168,3.78626,1.122137,-53.36,-69.0,-136.16
0.4121094,0.9377441,-0.2177734,-14.83969,6.38168,-0.7709923,-53.36,-69.0,-136.16
0.4311523,0.9506836,-0.2231445,-14.22901,9.137404,-3.030534,-53.36,-68.08,-136.16
0.4536133,0.942627,-0.2416992,-3.10687,10.80916,-4.557252,-53.36,-68.08,-136.16
0.4777832,0.9318848,-0.2294922,-5.664122,8.862596,-7.557252,-55.2,-66.24,-137.08
0.5036621,0.9150391,-0.2456055,-12.35878,8.106871,-13.09924,-55.2,-66.24,-137.08
0.5246582,0.8894043,-0.2260742,-18.16794,1.900763,-12.06107,-55.2,-66.24,-137.08
0.5583496,0.9050293,-0.1887207,-18.9084,4.267176,-12.16794,-57.04,-65.32,-138.0
0.5756836,0.9072266,-0.1853027,-22.0,5.549618,-13.75572,-57.04,-65.32,-138.0
0.6064453,0.8674316,-0.1860352,-20.64122,-0.9160305,-17.62595,-62.56,-64.4,-138.0
0.6013184,0.8649902,-0.1750488,-18.63359,-1.725191,-19.46565,-62.56,-64.4,-138.0
0.5993652,0.8466797,-0.1672363,-11.0916,-6.412214,-22.34351,-66.24,-64.4,-138.0
0.5935059,0.8378906,-0.154541,-9.412213,-6.664122,-26.0,-66.24,-64.4,-138.0
0.5986328,0.8371582,-0.1328125,-4.549618,-7.541985,-27.48855,-66.24,-64.4,-138.0
0.6088867,0.8081055,-0.1132813,1.167939,-6.671756,-30.80153,-70.84,-66.24,-138.0
0.6044922,0.7810059,-0.1496582,4.160306,-5.885496,-32.53435,-70.84,-66.24,-138.0
0.6032715,0.7416992,-0.1081543,6.977099,-10.50382,-29.74046,-72.68,-69.0,-137.08
0.6005859,0.7043457,-0.09326172,11.19847,-9.206107,-24.67939,-72.68,-69.0,-137.08
0.6054688,0.6877441,-0.08569336,12.70992,-11.72519,-21.12977,-72.68,-69.0,-137.08
0.5986328,0.6430664,-0.06420898,6.862596,-10.33588,-14.05344,-74.52,-72.68,-135.24
0.5964355,0.6391602,-0.0534668,-1.389313,-9.625955,-5.78626,-74.52,-72.68,-135.24
0.5961914,0.6247559,-0.04443359,1.435114,-3.51145,3.992366,-74.52,-72.68,-135.24
0.5927734,0.619873,-0.03149414,1.656489,0.3969466,13.0687,-74.52,-74.52,-134.32
0.5866699,0.6347656,-0.04443359,0.3664122,4.793893,20.35114,-74.52,-74.52,-134.32
0.6025391,0.6630859,-0.03320313,-2.183206,10.03817,29.38168,-73.6,-72.68,-135.24
0.6054688,0.6955566,-0.06713867,-9.229008,14.00763,35.41985,-73.6,-72.68,-135.24
0.6005859,0.7512207,-0.1098633,-9.885496,15.62595,37.80916,-73.6,-72.68,-135.24
0.5874023,0.8137207,-0.1079102,-4.022901,17.10687,37.0687,-71.76,-69.92,-135.24
0.5957031,0.8330078,-0.1010742,8.717557,23.37405,35.60305,-71.76,-69.92,-135.24
0.5981445,0.8688965,-0.1164551,11.20611,24.19084,32.16031,-71.76,-69.92,-135.24
0.5817871,0.8640137,-0.1523438,2.938931,27.75573,29.44275,-68.08,-67.16,-137.08
0.5861816,0.8583984,-0.177002,3.198473,25.28244,25.61069,-68.08,-67.16,-137.08
0.5944824,0.8449707,-0.1640625,18.16031,25.22137,25.75573,-65.32,-63.48,-137.08
0.5864258,0.9125977,-0.1760254,24.98473,21.52672,25.69466,-65.32,-63.48,-137.08
0.5778809,0.8950195,-0.1459961,25.9542,26.26718,19.35114,-65.32,-63.48,-137.08
0.5700684,0.8459473,-0.1530762,31.12214,33.64122,14.9313,-59.8,-62.56,-138.0
0.5480957,0.8059082,-0.2055664,31.38931,29.69466,18.05343,-59.8,-62.56,-138.0
0.5427246,0.864502,-0.2016602,16.36641,21.30534,20.8855,-59.8,-62.56,-138.0
0.5202637,0.921875,-0.1652832,-0.8854962,11.22137,18.61069,-55.2,-60.72,-138.92
0.5180664,0.9020996,-0.1845703,-3.946565,12.50382,16.52672,-55.2,-60.72,-138.92
0.5024414,0.9052734,-0.170166,3.206107,16.36641,18.25954,-54.28,-60.72,-138.0
0.5131836,0.9331055,-0.175293,11.55725,17.40458,20.12214,-54.28,-60.72,-138.0
0.4865723,0.9206543,-0.2077637,9.519084,11.73282,15.59542,-54.28,-60.72,-138.0
0.4794922,0.9521484,-0.2021484,8.832061,5.648855,10.22137,-53.36,-59.8,-138.92
0.4921875,0.9208984,-0.1916504,6.29771,7.312977,7.267176,-53.36,-59.8,-138.92
0.4929199,0.9121094,-0.2253418,2.145038,9.374045,5.801527,-53.36,-59.8,-138.92
0.4892578,0.916748,-0.2185059,-0.7862596,8.465649,2.274809,-53.36,-59.8,-138.92
0.5065918,0.909668,-0.2299805,-1.412214,4.656488,-2.694656,-53.36,-59.8,-138.92
0.5134277,0.8737793,-0.2131348,3.206107,5.610687,-6.839694,-54.28,-58.88,-138.0
0.5195313,0.8601074,-0.2397461,9.259542,-0.3206107,-9.305344,-54.28,-58.88,-138.0
0.5114746,0.8532715,-0.2077637,0.007633588,-5.274809,-10.12977,-54.28,-58.88,-138.0
0.4995117,0.8493652,-0.1835938,-11.89313,-6.854962,-11.05344,-53.36,-58.88,-138.92
0.5046387,0.8537598,-0.184082,-8.862596,-2.969466,-9.603053,-53.36,-58.88,-138.92
0.5107422,0.8840332,-0.1791992,-3.641221,-4.480916,-11.87786,-53.36,-58.88,-138.92
0.515625,0.8933105,-0.1987305,-3.175573,-1.755725,-12.98473,-55.2,-60.72,-138.0
0.5310059,0.9135742,-0.2194824,-9.603053,-4.572519,-16.54962,-55.2,-60.72,-138.0
0.5490723,0.9035645,-0.2414551,-4.236641,-1.129771,-19.45802,-57.04,-60.72,-138.92
0.5771484,0.8930664,-0.300293,-1.854962,-10.39695,-19.29008,-57.04,-60.72,-138.92
0.5869141,0.9030762,-0.3417969,-10.48855,-27.9084,-21.32825,-57.04,-60.72,-138.92
0.5778809,0.9675293,-0.2954102,-32.86259,-49.70229,-28.21374,-58.88,-62.56,-138.92
0.6220703,0.8903809,-0.1264648,-21.77863,-45.89313,-46.8855,-65.32,-66.24,-136.16
0.6274414,0.8261719,-0.09399414,-17.98473,-41.19084,-48.30534,-65.32,-66.24,-136.16
0.6308594,0.8237305,-0.05737305,-17.99237,-37.51145,-46.72519,-65.32,-66.24,-136.16
0.6105957,0.7758789,-0.03271484,-20.75573,-28.89313,-48.72519,-70.84,-72.68,-131.56
0.6188965,0.7331543,-0.04614258,-9.541985,-14.35878,-44.61069,-70.84,-72.68,-131.56
0.609375,0.6821289,-0.05541992,-8.038168,-10.10687,-37.80153,-77.28,-77.28,-128.8
0.6032715,0.6491699,-0.08422852,-9.366412,-12.8626,-28.61832,-77.28,-77.28,-128.8
0.5900879,0.6416016,-0.05932617,-4.08397,-10.0687,-16.90076,-77.28,-77.28,-128.8
0.5791016,0.666748,-0.03491211,-3.885496,-4.610687,-10.0229,-80.04,-80.04,-126.96
0.5583496,0.6743164,-0.03222656,-6.816794,1.274809,-1.778626,-80.04,-80.04,-126.96
0.5383301,0.7028809,-0.04467773,-6.061069,7.648855,3.992366,-80.04,-80.04,-126.96
0.5388184,0.7055664,-0.03686523,6.206107,15.50382,10.18321,-81.88,-80.04,-126.04
0.5288086,0.7092285,-0.09350586,18.0687,24.54962,16.66412,-81.88,-80.04,-126.04
0.5393066,0.7399902,-0.1120605,19.31298,24.76336,20.83206,-79.12,-78.2,-128.8
0.5383301,0.7585449,-0.1191406,15.84733,24.18321,23.87786,-79.12,-78.2,-128.8
0.5344238,0.7839355,-0.1342773,15.15267,25.13741,28.40458,-79.12,-78.2,-128.8
0.5483398,0.810791,-0.1271973,11.10687,23.08397,26.9771,-75.44,-75.44,-131.56
0.5493164,0.8376465,-0.1464844,15.65649,28.41985,27.10687,-75.44,-75.44,-131.56
0.5473633,0.8430176,-0.1428223,19.73282,25.40458,24.37405,-75.44,-75.44,-131.56
0.5541992,0.8317871,-0.1506348,21.34351,28.93893,25.26718,-71.76,-71.76,-133.4
0.5749512,0.8334961,-0.1748047,19.40458,27.14504,25.36641,-71.76,-71.76,-133.4
0.5732422,0.8395996,-0.1748047,19.76336,23.82443,23.80153,-71.76,-71.76,-133.4
0.5800781,0.8505859,-0.1733398,20.0687,23.34351,22.61832,-67.16,-69.92,-136.16
0.5739746,0.84375,-0.1582031,20.70992,22.12977,21.48092,-67.16,-69.92,-136.16
0.5698242,0.8225098,-0.135498,19.33588,23.24427,22.35878,-62.56,-68.08,-136.16
0.5576172,0.854248,-0.1330566,11.75572,19.86259,23.1145,-62.56,-68.08,-136.16
0.5480957,0.8981934,-0.126709,10.70992,22.37405,22.90076,-62.56,-68.08,-136.16
0.5412598,0.9211426,-0.1486816,15.28244,26.14504,19.67939,-59.8,-66.24,-137.08
0.5463867,0.8916016,-0.1970215,18.62595,31.0458,16.56489,-59.8,-66.24,-137.08
0.5415039,0.8696289,-0.246582,16.45802,26.18321,16.01527,-59.8,-66.24,-137.08
0.5253906,0.888916,-0.2561035,10.43511,21.29008,12.32061,-56.12,-63.48,-138.0
0.5107422,0.8613281,-0.296875,7.832061,22.16794,8.549619,-56.12,-63.48,-138.0
0.5061035,0.8693848,-0.295166,7.717557,15.23664,8.419847,-55.2,-62.56,-138.92
0.5,0.8491211,-0.2775879,8.244275,13.25191,6.48855,-55.2,-62.56,-138.92
0.5043945,0.8300781,-0.2678223,14.51145,7.885496,8.603053,-55.2,-62.56,-138.92
0.4980469,0.8500977,-0.232666,13.46565,6.374046,5.656488,-53.36,-62.56,-138.0
0.4892578,0.8510742,-0.2268066,11.96947,8.282443,4.717557,-53.36,-62.56,-138.0
0.4753418,0.864502,-0.222168,11.12977,8.473283,4.40458,-53.36,-62.56,-138.0
0.4777832,0.8728027,-0.2114258,9.893129,3.770992,2.320611,-52.44,-62.56,-138.92
0.4711914,0.8886719,-0.213623,5.91603,3.572519,0.2061069,-52.44,-62.56,-138.92
0.4777832,0.9140625,-0.2050781,2.282443,1.641221,-1.885496,-51.52,-63.48,-138.92
0.4851074,0.9140625,-0.2019043,1.21374,-0.0610687,-3.732824,-51.52,-63.48,-138.92
0.4726563,0.9138184,-0.192627,-0.6259542,-2.351145,-6.236641,-51.52,-63.48,-138.92
0.4758301,0.9147949,-0.1955566,-5.938931,-2.78626,-7.755725,-51.52,-62.56,-138.92
0.4814453,0.9296875,-0.1923828,-10.29771,-1.366412,-9.664123,-51.52,-62.56,-138.92
0.4819336,0.9511719,-0.1982422,-9.740458,-3.175573,-13.27481,-51.52,-62.56,-138.92
0.4990234,0.9482422,-0.1791992,-5.679389,-0.1221374,-19.96947,-53.36,-63.48,-138.92
0.5151367,0.9138184,-0.2285156,-2.633588,5.580153,-23.16031,-53.36,-63.48,-138.92
0.5273438,0.8916016,-0.2399902,-8.152672,0.9465649,-23.39695,-56.12,-62.56,-138.92
0.5405273,0.9157715,-0.267334,-17.15267,-7.854962,-24.58015,-56.12,-62.56,-138.92
0.5493164,0.9111328,-0.2463379,-13.50382,-9.282443,-27.18321,-56.12,-62.56,-138.92
0.5617676,0.880127,-0.2194824,-10.87786,-12.8626,-35.22901,-58.88,-63.48,-138.92
0.5473633,0.9272461,-0.2189941,-6.908397,-16.32061,-38.53435,-63.48,-65.32,-138.0
0.5454102,0.9484863,-0.1591797,-2.40458,-15.64122,-49.03817,-63.48,-65.32,-138.0
0.5620117,0.8945313,-0.1333008,6.305344,-11.77099,-53.51145,-63.48,-65.32,-138.0
0.5717773,0.8051758,-0.1364746,8.282443,-12.23664,-50.74809,-68.08,-69.92,-136.16
0.5571289,0.7429199,-0.1520996,0.2671756,-18.56489,-44.8855,-68.08,-69.92,-136.16
0.5603027,0.7497559,-0.1176758,-8.183207,-19.37405,-35.71756,-70.84,-74.52,-134.32
0.5151367,0.7561035,-0.1062012,-10.44275,-17.10687,-32.64885,-70.84,-74.52,-134.32
0.527832,0.7263184,-0.08740234,-5.496183,-12.61069,-24.0458,-70.84,-74.52,-134.32
0.5224609,0.7111816,-0.1027832,-8.167939,-9.114504,-16.38931,-74.52,-78.2,-132.48
0.5056152,0.7158203,-0.1159668,-13.10687,-10.72519,-9.557252,-74.52,-78.2,-132.48
0.5075684,0.7363281,-0.1027832,-10.19847,-8.725191,-2.381679,-74.52,-78.2,-132.48
0.5026855,0.7441406,-0.08325195,-9.977099,-6.259542,0.4198473,-77.28,-80.04,-130.64
0.4946289,0.7561035,-0.1096191,-6.122138,-0.259542,3.358779,-77.28,-80.04,-130.64
0.4924316,0.7619629,-0.1120605,-0.5725191,3.725191,6.648855,-77.28,-80.04,-130.64
0.4819336,0.753418,-0.1279297,0.9160305,5.503817,10.19084,-78.2,-79.12,-130.64
0.4870605,0.7631836,-0.1123047,0.8931297,7.832061,15.9313,-78.2,-79.12,-130.64
0.4760742,0.8041992,-0.1062012,4.030534,10.91603,17.89313,-77.28,-78.2,-131.56
0.4821777,0.8427734,-0.08911133,7.458015,16.16794,19.35114,-77.28,-78.2,-131.56
0.4775391,0.8586426,-0.1176758,15.64886,23.72519,16.82443,-77.28,-78.2,-131.56
0.4938965,0.8427734,-0.1479492,18.12214,22.77863,16.03053,-74.52,-75.44,-132.48
0.5029297,0.8466797,-0.1384277,19.70229,26.65649,16.34351,-74.52,-75.44,-132.48
0.5144043,0.855957,-0.1672363,18.09924,25.70229,15.66412,-74.52,-75.44,-132.48
0.5202637,0.8579102,-0.1687012,20.0,24.64122,17.25191,-70.84,-73.6,-135.24
0.5175781,0.8635254,-0.1638184,21.49618,23.99237,17.56489,-70.84,-73.6,-135.24
0.5258789,0.8666992,-0.1806641,16.36641,23.19084,17.99237,-67.16,-71.76,-136.16
0.5437012,0.8410645,-0.199707,19.94657,25.27481,19.19084,-67.16,-71.76,-136.16
0.5217285,0.859375,-0.2526855,16.56489,20.0687,19.26718,-67.16,-71.76,-136.16
0.5043945,0.8774414,-0.2060547,9.977099,15.58015,15.67939,-62.56,-69.0,-137.08
0.513916,0.8496094,-0.2150879,9.946565,20.55725,16.05343,-62.56,-69.0,-137.08
0.5065918,0.8193359,-0.2243652,21.81679,18.32061,21.19084,-62.56,-69.0,-137.08
0.4880371,0.8173828,-0.2226563,16.86259,15.19847,27.76336,-59.8,-69.0,-137.08
0.4829102,0.845459,-0.2133789,5.206107,11.96947,31.33588,-59.8,-69.0,-137.08
0.470459,0.8945313,-0.1911621,3.977099,12.64122,34.21374,-56.12,-67.16,-138.0
0.4685059,0.9160156,-0.185791,5.862596,16.38931,32.32824,-56.12,-67.16,-138.0
0.465332,0.934082,-0.1950684,10.0458,21.13741,26.20611,-56.12,-67.16,-138.0
0.4643555,0.9333496,-0.2456055,11.18321,24.30534,21.71756,-54.28,-65.32,-138.92
0.4707031,0.9204102,-0.2758789,10.22137,20.51145,15.49618,-54.28,-65.32,-138.92
0.4816895,0.9006348,-0.2719727,5.343512,12.45038,15.53435,-54.28,-65.32,-138.92
0.4697266,0.9094238,-0.2268066,-0.519084,8.061069,16.16031,-52.44,-63.48,-139.84
0.4658203,0.9050293,-0.2631836,-1.267176,5.229008,13.50382,-52.44,-63.48,-139.84
0.4545898,0.9069824,-0.2434082,4.687023,7.984733,11.41221,-50.6,-63.48,-139.84
0.4597168,0.9033203,-0.2558594,1.694656,2.519084,7.458015,-50.6,-63.48,-139.84
0.4477539,0.923584,-0.2619629,-1.709924,1.610687,3.175573,-50.6,-63.48,-139.84
0.4501953,0.9313965,-0.246582,-3.519084,-0.7557252,-1.908397,-50.6,-62.56,-139.84
0.4460449,0.923584,-0.2478027,-0.259542,-0.6641222,-3.80916,-50.6,-62.56,-139.84
0.4501953,0.9074707,-0.2480469,-2.267176,-2.183206,-6.648855,-50.6,-62.56,-139.84
0.4460449,0.8972168,-0.2104492,-12.78626,-6.51145,-7.374046,-50.6,-63.48,-138.92
0.4521484,0.9204102,-0.2041016,-18.12214,-8.221375,-8.656488,-50.6,-63.48,-138.92
0.4599609,0.951416,-0.2077637,-13.87023,-5.587786,-11.80916,-52.44,-63.48,-138.92
0.4770508,0.9577637,-0.2060547,-5.38168,-2.061069,-15.80153,-52.44,-63.48,-138.92
0.5163574,0.9760742,-0.2272949,-26.98473,-6.29771,-27.96947,-55.2,-63.48,-138.92
0.5300293,0.982666,-0.2072754,-18.9771,-4.587786,-37.0229,-55.2,-63.48,-138.92
0.536377,0.9936523,-0.2045898,-3.122137,-0.1908397,-43.29008,-60.72,-64.4,-138.92
0.5649414,0.9155273,-0.1970215,13.71756,0.5648855,-48.77863,-60.72,-64.4,-138.92
0.5834961,0.8354492,-0.232666,15.28244,-2.78626,-46.15267,-60.72,-64.4,-138.92
0.5683594,0.8251953,-0.2275391,-3.847328,-12.29008,-45.70229,-64.4,-66.24,-138.92
0.5632324,0.8251953,-0.1748047,-12.9771,-18.45802,-44.0,-64.4,-66.24,-138.92
0.5622559,0.8259277,-0.166748,-4.778626,-15.91603,-42.53435,-69.0,-69.92,-137.08
0.550293,0.814209,-0.1381836,5.984733,-14.72519,-39.26717,-69.0,-69.92,-137.08
0.5410156,0.7780762,-0.1130371,-0.1755725,-14.72519,-37.23664,-69.0,-69.92,-137.08
0.5361328,0.7270508,-0.1147461,-3.519084,-11.05344,-31.74046,-71.76,-75.44,-135.24
0.5441895,0.7336426,-0.130127,-6.290076,-15.60305,-25.38168,-71.76,-75.44,-135.24
0.5219727,0.7282715,-0.1032715,-2.923664,-11.93893,-20.36641,-71.76,-75.44,-135.24
0.5214844,0.7033691,-0.09667969,-5.541985,-9.61832,-13.47328,-74.52,-78.2,-133.4
0.5322266,0.6789551,-0.1147461,-6.603054,-8.038168,-3.564885,-74.52,-78.2,-133.4
0.5197754,0.692627,-0.1005859,-5.961832,-6.412214,2.977099,-76.36,-79.12,-131.56
0.5378418,0.7160645,-0.0925293,-2.145038,-2.343511,10.0916,-76.36,-79.12,-131.56
0.5146484,0.7121582,-0.114502,-2.793893,0.4351145,12.64122,-76.36,-79.12,-131.56
0.5095215,0.7116699,-0.1074219,-0.9236641,6.129771,18.00763,-75.44,-79.12,-131.56
0.5107422,0.7436523,-0.1330566,-0.9083969,5.59542,24.60305,-75.44,-79.12,-131.56
0.5041504,0.7836914,-0.1223145,1.244275,6.267176,28.63359,-75.44,-79.12,-131.56
0.501709,0.8183594,-0.1052246,-2.572519,10.32824,29.01527,-74.52,-77.28,-133.4
0.5187988,0.8520508,-0.1289063,3.763359,18.93893,27.13741,-74.52,-77.28,-133.4
0.5148926,0.8547363,-0.1479492,15.42748,26.0458,18.86259,-72.68,-73.6,-134.32
0.5319824,0.8632813,-0.2128906,22.0,29.48092,18.22901,-72.68,-73.6,-134.32
0.5068359,0.8803711,-0.2072754,27.22137,26.96183,19.24427,-72.68,-73.6,-134.32
0.5124512,0.8823242,-0.1704102,28.67175,24.72519,19.01527,-67.16,-72.68,-136.16
0.4973145,0.9143066,-0.1589355,22.99237,25.32061,12.37405,-67.16,-72.68,-136.16
0.4821777,0.9138184,-0.1333008,11.48855,27.54962,11.22137,-67.16,-72.68,-136.16
0.4782715,0.9104004,-0.1508789,10.61832,27.69466,13.71756,-63.48,-70.84,-137.08
0.486084,0.8981934,-0.1774902,23.59542,29.67175,16.9084,-63.48,-70.84,-137.08
0.4785156,0.8793945,-0.1955566,30.22901,27.37405,25.86259,-59.8,-68.08,-137.08
0.4467773,0.9597168,-0.1984863,14.87023,19.9771,26.05343,-59.8,-68.08,-137.08
0.4384766,0.9641113,-0.1804199,0.8244275,19.75573,23.41221,-59.8,-68.08,-137.08
0.4589844,0.9216309,-0.2272949,1.770992,20.64122,17.45038,-56.12,-66.24,-138.0
0.4199219,0.8774414,-0.2692871,-2.564885,15.54962,14.29008,-56.12,-66.24,-138.0
0.4333496,0.9111328,-0.2749023,-10.72519,0.7328244,24.18321,-56.12,-66.24,-138.0
0.4467773,0.9187012,-0.2424316,-14.56489,-9.465649,25.93893,-55.2,-65.32,-138.0
0.4074707,0.970459,-0.2446289,-17.43511,-12.25954,25.81679,-55.2,-65.32,-138.0
0.3979492,0.9580078,-0.2084961,-16.62595,-11.39695,20.92366,-55.2,-65.32,-138.0
0.3937988,0.9282227,-0.2126465,-6.320611,2.89313,20.00763,-56.12,-66.24,-137.08
0.3840332,0.9509277,-0.2529297,-4.015267,6.038168,17.22901,-56.12,-66.24,-137.08
0.3913574,0.9748535,-0.2565918,-5.503817,4.656488,8.992367,-55.2,-65.32,-136.16
0.3989258,0.9528809,-0.2619629,-1.877863,5.221374,1.908397,-55.2,-65.32,-136.16
0.3894043,0.9475098,-0.2495117,3.465649,3.656489,-3.572519,-55.2,-65.32,-136.16
0.388916,0.9682617,-0.229248,-0.4198473,0.1984733,-6.664122,-56.12,-65.32,-137.08
0.4140625,0.9794922,-0.2148438,-10.22137,0.1755725,-11.9084,-56.12,-65.32,-137.08
0.4228516,0.9699707,-0.1953125,-6.770992,2.351145,-15.10687,-56.12,-65.32,-137.08
0.4526367,0.9711914,-0.2189941,8.40458,7.358778,-17.92366,-57.04,-64.4,-137.08
0.4782715,0.9675293,-0.2382813,12.00763,9.854961,-19.54962,-57.04,-64.4,-137.08
0.5178223,0.9360352,-0.2084961,-1.900763,-8.839695,-31.30534,-57.96,-65.32,-138.0
0.529541,0.9133301,-0.1757813,-2.961832,-10.38931,-31.0916,-61.64,-66.24,-138.0
0.5458984,0.9020996,-0.1789551,-14.60305,-12.98473,-31.94657,-61.64,-66.24,-138.0
0.5476074,0.8942871,-0.1989746,-17.66412,-18.72519,-33.58779,-61.64,-66.24,-138.0
0.5373535,0.8754883,-0.1591797,-7.931298,-20.80153,-35.16031,-65.32,-69.0,-136.16
0.5354004,0.8796387,-0.1184082,-2.030534,-15.12214,-35.90076,-65.32,-69.0,-136.16
0.5935059,0.8405762,-0.1152344,-2.725191,-11.08397,-37.48092,-65.32,-69.0,-136.16
0.5559082,0.7727051,-0.1416016,-2.580153,-11.12977,-38.74809,-69.92,-71.76,-135.24
0.5620117,0.7402344,-0.1259766,-1.854962,-9.839695,-31.0229,-69.92,-71.76,-135.24
0.5541992,0.7404785,-0.1152344,-6.435114,-12.0687,-26.28244,-73.6,-75.44,-134.32
0.5620117,0.7072754,-0.119873,-8.167939,-7.91603,-21.61832,-73.6,-75.44,-134.32
0.5664063,0.6948242,-0.1171875,-1.694656,-7.343512,-17.1145,-73.6,-75.44,-134.32
0.5664063,0.677002,-0.1098633,4.625954,-3.885496,-9.229008,-75.44,-78.2,-132.48
0.5615234,0.6557617,-0.1179199,6.473282,-1.503817,-1.923664,-75.44,-78.2,-132.48
0.5515137,0.6501465,-0.1071777,6.419847,1.19084,6.48855,-75.44,-78.2,-132.48
0.5407715,0.6625977,-0.09057617,6.358778,1.21374,13.01527,-75.44,-79.12,-131.56
0.5344238,0.7492676,-0.05102539,1.068702,4.137404,17.86259,-75.44,-79.12,-131.56
0.5170898,0.784668,-0.07495117,2.900763,15.16794,19.67939,-74.52,-77.28,-132.48
0.5183105,0.8061523,-0.1474609,4.328244,9.053435,21.48855,-74.52,-77.28,-132.48
0.5219727,0.8530273,-0.1503906,9.938931,9.053435,24.58015,-74.52,-77.28,-132.48
0.5078125,0.9138184,-0.1022949,6.458015,11.0458,21.03817,-72.68,-75.44,-134.32
0.5095215,0.9343262,-0.1247559,9.488549,20.78626,14.43511,-72.68,-75.44,-134.32
0.5063477,0.880127,-0.1774902,24.73282,23.14504,11.38168,-72.68,-75.44,-134.32
0.512207,0.8498535,-0.2050781,31.57252,21.70992,10.64122,-69.92,-73.6,-134.32
0.505127,0.8710938,-0.1914063,23.30534,18.58779,9.244275,-69.92,-73.6,-134.32
0.5083008,0.8979492,-0.1508789,23.41221,19.22901,9.78626,-65.32,-73.6,-135.24
0.5068359,0.8618164,-0.1547852,28.49618,25.33588,11.46565,-65.32,-73.6,-135.24
0.5009766,0.826416,-0.2062988,30.49618,27.24427,14.8626,-65.32,-73.6,-135.24
0.4951172,0.8312988,-0.2211914,27.84733,23.77863,18.08397,-59.8,-71.76,-137.08
0.4848633,0.8671875,-0.1953125,28.32825,23.66412,20.27481,-59.8,-71.76,-137.08
0.4729004,0.8457031,-0.203125,34.1145,30.12977,18.47328,-59.8,-71.76,-137.08
0.4594727,0.8449707,-0.2790527,42.90076,34.46565,22.0,-54.28,-69.92,-138.0
0.4487305,0.8730469,-0.3032227,29.0687,28.38931,23.54962,-54.28,-69.92,-138.0
0.4389648,0.9016113,-0.2929688,7.282443,21.05343,21.25954,-54.28,-69.92,-138.0
0.4404297,0.8764648,-0.3227539,0.2137404,18.64886,20.22901,-48.76,-69.0,-139.84
0.4118652,0.9123535,-0.3210449,7.305344,15.22137,19.09924,-48.76,-69.0,-139.84
0.3994141,0.9484863,-0.3010254,3.946565,14.98473,13.9084,-47.84,-67.16,-140.76
0.4001465,0.9267578,-0.3066406,1.259542,15.8626,9.427481,-47.84,-67.16,-140.76
0.3996582,0.9099121,-0.3088379,3.832061,12.9313,8.221375,-47.84,-67.16,-140.76
0.4025879,0.9104004,-0.3049316,4.801527,8.442748,9.282443,-46.92,-66.24,-140.76
0.3764648,0.9362793,-0.3083496,0.7099237,9.603053,4.549618,-46.92,-66.24,-140.76
0.3979492,0.9060059,-0.279541,-1.80916,10.96947,-0.6870229,-46.92,-66.24,-140.76
0.407959,0.9116211,-0.3178711,-5.847328,7.51145,-0.3587786,-46.92,-64.4,-140.76
0.4157715,0.9035645,-0.3144531,-12.0687,-2.29771,-0.5114504,-46.92,-64.4,-140.76
0.4238281,0.9204102,-0.3137207,-14.22137,-2.824427,-1.572519,-47.84,-64.4,-139.84
0.4282227,0.9074707,-0.265625,-15.19084,-4.007634,-5.099236,-47.84,-64.4,-139.84
0.4433594,0.9152832,-0.2697754,-18.73282,-2.519084,-7.91603,-47.84,-64.4,-139.84
0.4550781,0.9089355,-0.2692871,-23.53435,-3.89313,-9.648855,-49.68,-64.4,-139.84
0.4777832,0.9162598,-0.246582,-24.75573,-4.78626,-11.73282,-49.68,-64.4,-139.84
0.4902344,0.9260254,-0.2519531,-20.67939,-0.2519084,-16.16794,-49.68,-64.4,-139.84
0.5012207,0.9143066,-0.244873,-22.54198,-1.259542,-17.58015,-53.36,-64.4,-139.84
0.5178223,0.9169922,-0.2426758,-26.89313,-8.351145,-18.15267,-53.36,-64.4,-139.84
0.5566406,0.9648438,-0.2502441,-12.35114,-11.72519,-32.0916,-58.88,-64.4,-139.84
0.5654297,0.9099121,-0.2463379,-11.01527,-15.90076,-34.54962,-63.48,-66.24,-138.92
0.5683594,0.9020996,-0.2097168,-10.59542,-25.80153,-36.9313,-63.48,-66.24,-138.92
0.5610352,0.8623047,-0.1738281,-8.335877,-29.77099,-38.28244,-63.48,-66.24,-138.92
0.565918,0.8195801,-0.1386719,-8.969465,-30.19084,-36.59542,-67.16,-69.92,-138.0
0.5678711,0.777832,-0.1166992,-11.37405,-29.75573,-34.53435,-67.16,-69.92,-138.0
0.5617676,0.7717285,-0.09936523,-11.08397,-30.37405,-32.94656,-67.16,-69.92,-138.0
0.5615234,0.723877,-0.08398438,-7.473282,-27.25191,-26.43511,-71.76,-75.44,-134.32
0.5524902,0.6921387,-0.05639648,-1.961832,-21.92366,-16.67175,-71.76,-75.44,-134.32
0.5603027,0.675293,-0.05078125,-3.633588,-16.08397,-10.1374,-74.52,-79.12,-132.48
0.5568848,0.6699219,-0.06396484,-6.274809,-9.908397,-3.854962,-74.52,-79.12,-132.48
0.5500488,0.6740723,-0.0546875,-4.541985,-3.633588,2.442748,-74.52,-79.12,-132.48
0.5461426,0.6879883,-0.0637207,1.900763,2.267176,6.0,-76.36,-80.96,-130.64
0.5310059,0.7097168,-0.07006836,2.045802,8.725191,10.49618,-76.36,-80.96,-130.64
0.5170898,0.7373047,-0.09008789,2.656489,9.954199,18.91603,-76.36,-80.96,-130.64
0.5227051,0.7861328,-0.1152344,1.503817,10.9313,22.45802,-75.44,-79.12,-131.56
0.5134277,0.829834,-0.1313477,2.053435,12.33588,21.80916,-75.44,-79.12,-131.56
0.5141602,0.8723145,-0.157959,5.290076,11.80916,20.50382,-73.6,-77.28,-133.4
0.5229492,0.8896484,-0.1772461,18.21374,16.42748,19.23664,-73.6,-77.28,-133.4
0.5200195,0.895752,-0.2160645,30.56489,18.64886,17.06107,-73.6,-77.28,-133.4
0.5061035,0.8920898,-0.2207031,30.73282,12.24428,13.94656,-69.0,-75.44,-134.32
0.4943848,0.9423828,-0.1821289,22.62595,9.862596,9.648855,-69.0,-75.44,-134.32
0.4968262,0.9238281,-0.1831055,10.57252,10.43511,5.099236,-69.0,-75.44,-134.32
0.4880371,0.8989258,-0.203125,18.07634,13.0458,3.29771,-65.32,-75.44,-134.32
0.4562988,0.8688965,-0.1918945,31.91603,16.61069,6.320611,-65.32,-75.44,-134.32
0.4462891,0.9125977,-0.2004395,20.01527,15.71756,7.969466,-61.64,-75.44,-135.24
0.4438477,0.909668,-0.2246094,4.450382,11.80916,8.183207,-61.64,-75.44,-135.24
0.4262695,0.9226074,-0.2182617,1.687023,9.511451,7.526718,-61.64,-75.44,-135.24
0.4138184,0.916748,-0.206543,7.923664,14.40458,3.961832,-59.8,-75.44,-134.32
0.4130859,0.9035645,-0.222168,18.16031,24.9771,3.748092,-59.8,-75.44,-134.32
0.401123,0.8735352,-0.2885742,20.70992,26.78626,4.908397,-59.8,-75.44,-134.32
0.3820801,0.8583984,-0.3210449,16.80916,23.64886,4.274809,-57.96,-74.52,-134.32
0.3615723,0.8491211,-0.3029785,8.770992,14.45802,7.015267,-57.96,-74.52,-134.32
0.3583984,0.8603516,-0.3088379,3.908397,13.93893,5.748092,-56.12,-73.6,-135.24
0.3530273,0.8669434,-0.3137207,5.541985,12.9771,9.900764,-56.12,-73.6,-135.24
0.3415527,0.8918457,-0.309082,4.992366,10.84733,12.16794,-56.12,-73.6,-135.24
0.340332,0.9240723,-0.3186035,1.305344,5.038168,11.01527,-55.2,-72.68,-135.24
0.3459473,0.939209,-0.3100586,-1.358779,3.427481,9.893129,-55.2,-72.68,-135.24
0.340332,0.9685059,-0.3151855,-3.908397,-2.625954,6.755725,-55.2,-72.68,-135.24
0.331543,0.9694824,-0.2783203,1.129771,-1.59542,3.473282,-54.28,-71.76,-135.24
0.3391113,0.9782715,-0.2548828,-1.0,-5.366412,0.3129771,-54.28,-71.76,-135.24
0.357666,0.9567871,-0.2416992,-13.89313,-7.923664,-1.496183,-55.2,-71.76,-136.16
0.369873,0.9467773,-0.2546387,-17.21374,-7.236641,-2.145038,-55.2,-71.76,-136.16
0.3764648,0.9628906,-0.2382813,-6.549618,-2.320611,-4.687023,-55.2,-71.76,-136.16
0.3984375,0.9643555,-0.21875,-9.526717,1.564886,-7.80916,-57.04,-72.68,-135.24
0.4228516,0.9448242,-0.2302246,-20.61069,1.694656,-8.832061,-57.04,-72.68,-135.24
0.4509277,0.9372559,-0.2509766,-20.83206,0.8167939,-10.0687,-57.04,-72.68,-135.24
0.4819336,0.9375,-0.2502441,-8.549619,3.251908,-11.0687,-60.72,-71.76,-136.16
0.496582,0.9284668,-0.2553711,-13.83206,-1.335878,-16.85496,-60.72,-71.76,-136.16
0.5229492,0.8867188,-0.2568359,-19.75573,-3.19084,-16.52672,-63.48,-70.84,-137.08
0.5168457,0.8769531,-0.215332,-18.0,-4.938931,-16.49618,-63.48,-70.84,-137.08
0.5380859,0.90625,-0.2302246,-11.65649,-4.969466,-26.06107,-68.08,-71.76,-136.16
0.5383301,0.8811035,-0.2321777,-4.076336,-13.08397,-27.52672,-68.08,-71.76,-136.16
0.5483398,0.8669434,-0.2102051,-8.832061,-21.22901,-30.54962,-71.76,-74.52,-135.24
0.5351563,0.8408203,-0.1394043,-5.549618,-24.82443,-32.8855,-71.76,-74.52,-135.24
0.5292969,0.8168945,-0.08959961,-5.412214,-23.23664,-29.83206,-71.76,-74.52,-135.24
0.545166,0.767334,-0.0625,-3.236641,-19.48855,-27.28244,-75.44,-79.12,-131.56
0.5368652,0.75,-0.0378418,-6.534351,-15.03053,-22.83206,-75.44,-79.12,-131.56
0.5251465,0.7172852,-0.03027344,-7.160306,-9.412213,-15.94656,-79.12,-82.8,-129.72
0.5236816,0.7160645,-0.02636719,-0.08396947,-4.091603,-9.908397,-79.12,-82.8,-129.72
0.5112305,0.6918945,-0.05126953,1.916031,4.320611,-3.900763,-79.12,-82.8,-129.72
0.5100098,0.690918,-0.05932617,-0.5419847,6.358778,4.748092,-79.12,-83.72,-128.8
0.5061035,0.7177734,-0.04663086,-0.2824428,12.22901,11.96947,-79.12,-83.72,-128.8
0.5124512,0.7316895,-0.08935547,3.832061,18.03053,17.65649,-79.12,-83.72,-128.8
0.5024414,0.7790527,-0.1154785,5.755725,20.74046,22.19084,-79.12,-81.88,-128.8
0.5036621,0.8261719,-0.1533203,7.91603,20.67939,22.18321,-79.12,-81.88,-128.8
0.501709,0.8618164,-0.1696777,12.70992,21.66412,20.09924,-76.36,-78.2,-131.56
0.5026855,0.8464355,-0.1831055,20.65649,22.24427,20.21374,-76.36,-78.2,-131.56
0.5036621,0.847168,-0.177002,14.16031,17.50382,20.01527,-76.36,-78.2,-131.56
0.4931641,0.8803711,-0.168457,10.01527,13.48855,21.81679,-72.68,-76.36,-132.48
0.4880371,0.9111328,-0.1704102,6.625954,13.38931,19.25954,-72.68,-76.36,-132.48
0.4841309,0.8820801,-0.1616211,21.46565,18.90076,18.25954,-72.68,-76.36,-132.48
0.4682617,0.8835449,-0.1257324,35.83969,22.21374,20.68702,-69.0,-75.44,-133.4
0.4648438,0.8642578,-0.105957,25.45038,25.72519,22.07634,-69.0,-75.44,-133.4
0.4680176,0.8920898,-0.111084,19.70992,30.9771,21.89313,-63.48,-73.6,-135.24
0.4780273,0.9084473,-0.1850586,23.51908,34.8855,22.70229,-63.48,-73.6,-135.24
0.4626465,0.9191895,-0.2331543,26.47328,35.98473,21.73282,-63.48,-73.6,-135.24
0.4504395,0.9130859,-0.262207,20.44275,35.83206,18.75573,-57.96,-70.84,-137.08
0.4431152,0.8930664,-0.2883301,6.679389,29.80153,16.1145,-57.96,-70.84,-137.08
0.4541016,0.8901367,-0.3212891,-3.48855,21.08397,19.09924,-57.96,-70.84,-137.08
0.4384766,0.888916,-0.3293457,-8.312977,15.27481,18.07634,-56.12,-69.0,-138.0
0.4289551,0.9165039,-0.3198242,-7.351145,9.030535,17.17557,-56.12,-69.0,-138.0
0.411377,0.9333496,-0.2990723,-7.038168,6.236641,11.16794,-56.12,-69.0,-138.0
0.3984375,0.8964844,-0.2910156,-1.427481,7.977099,11.05344,-57.04,-67.16,-137.08
0.3864746,0.9050293,-0.2856445,2.458015,8.251908,14.14504,-57.04,-67.16,-137.08
0.3798828,0.9638672,-0.2998047,1.305344,3.923664,11.45802,-56.12,-66.24,-137.08
0.3735352,0.9931641,-0.2685547,-7.435114,-4.08397,5.877862,-56.12,-66.24,-137.08
0.3640137,0.9851074,-0.234375,-10.44275,-2.877863,2.839695,-56.12,-66.24,-137.08
0.3859863,0.9902344,-0.2446289,-0.870229,-1.534351,-0.8244275,-57.04,-66.24,-136.16
0.3952637,1.022461,-0.2314453,-0.9694656,-1.358779,-3.48855,-57.04,-66.24,-136.16
0.4030762,1.00293,-0.2277832,-6.969466,-3.587786,-10.67939,-57.04,-66.24,-136.16
0.4321289,0.9770508,-0.2492676,-8.251908,-6.862596,-16.67175,-57.96,-66.24,-136.16
0.4567871,0.9604492,-0.2475586,-1.564886,-7.534351,-18.63359,-57.96,-66.24,-136.16
0.4709473,0.9689941,-0.2199707,-5.419847,-11.48092,-23.65649,-59.8,-67.16,-135.24
0.4951172,0.9411621,-0.2167969,-16.0,-14.78626,-27.84733,-59.8,-67.16,-135.24
0.5056152,0.920166,-0.2053223,-16.15267,-17.70992,-29.22137,-59.8,-67.16,-135.24
0.5117188,0.9333496,-0.1730957,-19.26718,-21.64122,-30.90076,-63.48,-69.0,-134.32
0.5175781,0.9282227,-0.1577148,-16.96947,-18.08397,-35.64885,-63.48,-69.0,-134.32
0.5227051,0.8781738,-0.144043,-0.9236641,-7.38168,-38.19084,-63.48,-72.68,-133.4
0.5375977,0.854248,-0.1599121,8.870229,-5.832061,-36.8855,-69.0,-72.68,-133.4
0.5361328,0.8269043,-0.1730957,1.80916,-10.75572,-33.22137,-69.0,-72.68,-133.4
0.5378418,0.8305664,-0.1723633,-2.206107,-13.01527,-31.38931,-71.76,-75.44,-132.48
0.5141602,0.7944336,-0.1032715,-0.961832,-10.09924,-27.82443,-74.52,-79.12,-130.64
0.5219727,0.7485352,-0.1013184,-0.7251908,-8.129771,-22.13741,-74.52,-79.12,-130.64
0.5219727,0.7265625,-0.1174316,-0.7175572,-6.450382,-15.07634,-74.52,-79.12,-130.64
0.5146484,0.7092285,-0.1193848,-1.183206,-5.480916,-8.022901,-76.36,-81.88,-129.72
0.5202637,0.729248,-0.1057129,-1.198473,0.9160305,-3.038168,-76.36,-81.88,-129.72
0.5148926,0.7224121,-0.1005859,0.9541985,3.038168,-0.1832061,-76.36,-81.88,-129.72
0.505127,0.7124023,-0.123291,7.412214,9.503817,6.564886,-77.28,-81.88,-128.8
0.5070801,0.7114258,-0.1333008,2.770992,7.473282,13.63359,-77.28,-81.88,-128.8
0.5183105,0.7351074,-0.1142578,0.4961832,6.374046,19.15267,-75.44,-80.96,-128.8
0.5061035,0.7814941,-0.1030273,4.290076,12.9542,23.0458,-75.44,-80.96,-128.8
0.5041504,0.8000488,-0.1303711,5.778626,15.78626,24.35878,-75.44,-80.96,-128.8
0.5334473,0.7937012,-0.1489258,6.053435,17.40458,26.59542,-74.52,-80.04,-130.64
0.5375977,0.8049316,-0.1923828,11.67939,18.16031,29.0916,-74.52,-80.04,-130.64
0.5336914,0.8374023,-0.1755371,9.389313,11.0916,30.19084,-74.52,-80.04,-130.64
0.5327148,0.8586426,-0.1586914,1.290076,7.412214,29.80153,-70.84,-77.28,-131.56
0.5498047,0.842041,-0.1477051,5.572519,10.26718,30.74809,-70.84,-77.28,-131.56
0.5544434,0.8339844,-0.1577148,12.44275,18.42748,33.03817,-67.16,-74.52,-132.48
0.5407715,0.8530273,-0.1584473,2.80916,13.40458,35.47328,-67.16,-74.52,-132.48
0.5236816,0.9035645,-0.1604004,-4.717557,14.41985,32.49618,-67.16,-74.52,-132.48
0.5251465,0.8911133,-0.1821289,-10.31298,14.20611,30.57252,-64.4,-72.68,-133.4
0.5126953,0.8959961,-0.1955566,-6.51145,14.69466,31.16794,-64.4,-72.68,-133.4
0.4890137,0.9279785,-0.1918945,-3.29771,11.9771,31.30534,-64.4,-72.68,-133.4
0.4729004,0.9633789,-0.1374512,-5.122138,9.091603,28.75573,-62.56,-70.84,-132.48
0.472168,0.9345703,-0.1254883,-9.167939,17.51145,24.41985,-62.56,-70.84,-132.48
0.4694824,0.8959961,-0.1682129,-4.290076,19.93893,26.51145,-61.64,-68.08,-132.48
0.4692383,0.9077148,-0.1962891,5.961832,21.61832,28.17557,-61.64,-68.08,-132.48
0.4543457,0.9555664,-0.177002,-4.694656,15.51908,26.86259,-61.64,-68.08,-132.48
0.4560547,0.9533691,-0.1787109,-11.87023,12.38168,20.17557,-60.72,-66.24,-133.4
0.4680176,0.9123535,-0.1804199,-5.519084,14.38931,18.62595,-60.72,-66.24,-133.4
0.4599609,0.9321289,-0.1960449,3.152672,12.03053,16.9313,-60.72,-66.24,-133.4
0.4633789,0.9411621,-0.197998,5.21374,8.984733,13.52672,-60.72,-65.32,-133.4
0.4729004,0.9013672,-0.223877,7.251908,9.251908,8.496183,-60.72,-65.32,-133.4
0.4750977,0.8981934,-0.2219238,3.59542,8.351145,7.740458,-58.88,-65.32,-134.32
0.4765625,0.9277344,-0.2268066,-12.41221,2.114504,1.824428,-58.88,-65.32,-134.32
0.4709473,0.9155273,-0.2133789,-10.29771,0.1526718,-0.9312977,-58.88,-65.32,-134.32
0.4638672,0.9240723,-0.1955566,-2.061069,-4.267176,-6.038168,-59.8,-64.4,-133.4
0.4609375,0.9267578,-0.1557617,-11.70992,-6.816794,-8.419847,-59.8,-64.4,-133.4
0.4675293,0.9396973,-0.1557617,-14.67176,-5.244275,-12.80153,-59.8,-64.4,-133.4
0.4770508,0.9616699,-0.1418457,-5.89313,-4.977099,-17.13741,-61.64,-65.32,-133.4
0.4831543,0.9873047,-0.1555176,5.664122,0.2290076,-21.51145,-61.64,-65.32,-133.4
0.4970703,0.9812012,-0.1484375,8.564885,2.778626,-28.19847,-61.64,-65.32,-132.48
0.5183105,0.9741211,-0.161377,10.32824,7.076336,-32.87023,-63.48,-65.32,-132.48
0.5336914,0.9665527,-0.171875,9.580153,1.412214,-37.12214,-63.48,-65.32,-132.48
0.5366211,0.9477539,-0.161377,13.99237,0.2366412,-41.51145,-64.4,-66.24,-133.4
0.5690918,0.9245605,-0.1938477,10.72519,-2.40458,-43.57252,-64.4,-66.24,-133.4
0.5671387,0.8996582,-0.1906738,-0.5648855,-10.77099,-43.00763,-64.4,-66.24,-133.4
0.5825195,0.9055176,-0.1813965,-10.40458,-19.78626,-42.77863,-67.16,-69.0,-133.4
0.5664063,0.8503418,-0.1342773,-13.51145,-22.76336,-43.29008,-67.16,-69.0,-133.4
0.557373,0.8549805,-0.09887695,-19.51908,-22.77099,-42.46565,-67.16,-69.0,-133.4
0.5444336,0.8359375,-0.08837891,-19.24427,-17.22137,-40.73283,-71.76,-72.68,-131.56
0.5385742,0.8054199,-0.08398438,-5.862596,-7.206107,-38.03053,-77.28,-75.44,-128.8
0.5383301,0.7651367,-0.09472656,-7.832061,-4.40458,-33.51145,-77.28,-75.44,-128.8
0.5419922,0.737793,-0.107666,-1.977099,-3.541985,-28.76336,-80.96,-78.2,-126.96
0.5256348,0.7087402,-0.1003418,-0.480916,-4.274809,-20.63359,-80.96,-78.2,-126.96
0.5334473,0.6799316,-0.07202148,-7.541985,-3.877863,-9.580153,-80.96,-78.2,-126.96
0.5339355,0.7011719,-0.09008789,-14.00763,-0.7938931,-0.8473283,-82.8,-80.96,-125.12
0.5263672,0.7038574,-0.1225586,-10.9313,-4.572519,3.763359,-82.8,-80.96,-125.12
0.5297852,0.6774902,-0.07128906,-4.435114,-4.21374,12.45038,-82.8,-80.96,-125.12
0.5324707,0.684082,-0.0847168,-5.267176,-3.015267,21.25954,-84.64,-80.96,-125.12
0.5197754,0.7390137,-0.07275391,-2.061069,1.625954,27.32061,-84.64,-80.96,-125.12
0.5170898,0.753418,-0.09448242,0.3358779,4.709924,30.0458,-83.72,-79.12,-126.04
0.5371094,0.7380371,-0.1132813,1.755725,2.687023,34.92366,-83.72,-79.12,-126.04
0.552002,0.7709961,-0.128418,5.099236,-1.625954,40.77863,-83.72,-79.12,-126.04
0.5444336,0.8310547,-0.08129883,-9.526717,-11.25191,39.96183,-80.96,-77.28,-127.88
0.5539551,0.8366699,-0.04174805,-11.07634,-7.763359,40.20611,-80.96,-77.28,-127.88
0.5690918,0.8286133,-0.05444336,0.09160305,0.5801527,39.44275,-80.96,-77.28,-127.88
0.5910645,0.7958984,-0.09326172,13.80153,9.320611,43.0229,-79.12,-74.52,-127.88
0.5908203,0.8103027,-0.1193848,7.977099,4.870229,45.9771,-79.12,-74.52,-127.88
0.5661621,0.8540039,-0.09887695,4.80916,2.015267,43.44275,-74.52,-72.68,-128.8
0.5695801,0.854248,-0.0793457,8.007633,13.54962,39.77863,-74.52,-72.68,-128.8
0.5834961,0.7988281,-0.1184082,16.96947,20.9771,38.86259,-74.52,-72.68,-128.8
0.5778809,0.8215332,-0.1794434,18.84733,17.0916,43.0,-70.84,-69.92,-130.64
0.5615234,0.8845215,-0.1286621,6.709924,15.0,40.29771,-70.84,-69.92,-130.64
0.5805664,0.8808594,-0.1520996,-3.770992,18.82443,36.9771,-70.84,-69.92,-130.64
0.5625,0.904541,-0.1567383,-2.305344,14.29008,34.67176,-67.16,-68.08,-131.56
0.5563965,0.9265137,-0.1481934,5.755725,17.87786,33.10687,-67.16,-68.08,-131.56
0.5375977,0.9365234,-0.1115723,7.267176,21.96947,23.61069,-65.32,-67.16,-131.56
0.5490723,0.9138184,-0.154541,12.81679,26.39695,22.54962,-65.32,-67.16,-131.56
0.5476074,0.9243164,-0.1652832,23.53435,26.10687,19.91603,-65.32,-67.16,-131.56
0.5444336,0.9245605,-0.1762695,22.48855,23.26718,15.96947,-62.56,-65.32,-132.48
0.5454102,0.9287109,-0.1745605,11.50382,16.82443,9.717557,-62.56,-65.32,-132.48
0.5344238,0.8901367,-0.145752,6.10687,12.77863,3.832061,-62.56,-65.32,-132.48
0.5512695,0.8884277,-0.1652832,5.175572,10.16031,6.099236,-61.64,-65.32,-132.48
0.5712891,0.8730469,-0.1347656,6.870229,4.274809,7.969466,-61.64,-65.32,-132.48
0.5507813,0.8547363,-0.1401367,6.770992,2.748092,6.21374,-60.72,-64.4,-132.48
0.5510254,0.8432617,-0.09692383,0.5954198,-4.564886,4.496183,-60.72,-64.4,-132.48
0.5476074,0.8557129,-0.07324219,-1.656489,-1.045802,2.519084,-60.72,-64.4,-132.48
0.5419922,0.861084,-0.06054688,1.633588,7.015267,1.19084,-59.8,-65.32,-133.4
0.5493164,0.8613281,-0.09887695,3.29771,9.908397,-3.160305,-59.8,-65.32,-133.4
0.5371094,0.8540039,-0.1201172,7.229008,12.01527,-5.59542,-59.8,-65.32,-133.4
0.5314941,0.875,-0.130127,1.29771,8.374045,-7.091603,-60.72,-64.4,-133.4
0.5227051,0.8837891,-0.1132813,5.541985,13.64886,-6.473282,-60.72,-64.4,-133.4
0.5446777,0.9211426,-0.109375,8.656488,12.64886,-9.625955,-59.8,-63.48,-134.32
0.5549316,0.9326172,-0.1352539,-0.09160305,12.22901,-15.83969,-59.8,-63.48,-134.32
0.546875,0.9414063,-0.1520996,-1.137405,14.50382,-21.9542,-59.8,-63.48,-134.32
0.572998,0.9267578,-0.1533203,6.70229,17.34351,-27.25954,-60.72,-62.56,-135.24
0.6022949,0.918457,-0.1872559,8.778625,14.23664,-31.19084,-60.72,-62.56,-135.24
0.6064453,0.8869629,-0.2263184,4.122138,8.198473,-32.25191,-60.72,-62.56,-135.24
0.6174316,0.8876953,-0.1975098,3.541985,1.824428,-36.54962,-62.56,-62.56,-135.24
0.6369629,0.8557129,-0.185791,4.877862,-1.80916,-41.67939,-62.56,-62.56,-135.24
0.6281738,0.8349609,-0.1657715,6.320611,-6.152672,-45.64122,-62.56,-62.56,-135.24
0.6296387,0.786377,-0.1430664,5.80916,-5.450382,-46.00763,-65.32,-63.48,-135.24
0.652832,0.7111816,-0.08691406,2.10687,-23.35878,-44.23664,-68.08,-66.24,-135.24
0.626709,0.7194824,-0.1069336,0.4045802,-12.0229,-36.25191,-68.08,-66.24,-135.24
0.6279297,0.7246094,-0.1152344,-3.648855,-13.47328,-30.15267,-70.84,-70.84,-133.4
0.614502,0.7207031,-0.09008789,-8.061069,-16.64122,-26.07634,-70.84,-70.84,-133.4
0.6137695,0.7075195,-0.08959961,-8.251908,-14.38931,-21.60305,-70.84,-70.84,-133.4
0.6118164,0.6733398,-0.08422852,-2.198473,-10.41221,-16.61832,-73.6,-72.68,-131.56
0.6125488,0.659668,-0.08154297,0.6335878,-9.709924,-11.64122,-73.6,-72.68,-131.56
0.6035156,0.6733398,-0.0546875,-5.38168,-10.29008,-4.053435,-73.6,-72.68,-131.56
0.6083984,0.6672363,-0.04882813,-5.10687,-6.59542,1.801527,-75.44,-74.52,-131.56
0.6101074,0.6555176,-0.06591797,-0.2137404,-1.870229,8.656488,-75.44,-74.52,-131.56
0.6079102,0.6645508,-0.06518555,1.129771,-1.709924,17.67939,-75.44,-74.52,-130.64
0.6037598,0.6975098,-0.06689453,-2.358779,2.19084,22.67175,-75.44,-74.52,-130.64
0.6040039,0.7363281,-0.1047363,-6.29771,1.465649,28.19847,-75.44,-74.52,-130.64
0.5932617,0.7617188,-0.1049805,-3.366412,1.80916,32.06107,-73.6,-73.6,-131.56
0.5874023,0.78125,-0.1057129,9.816793,19.98473,35.38931,-73.6,-73.6,-131.56
0.5859375,0.7844238,-0.08349609,4.89313,1.21374,38.07634,-70.84,-71.76,-131.56
0.6191406,0.7641602,-0.1147461,2.557252,9.641221,40.25954,-70.84,-71.76,-131.56
0.6201172,0.807373,-0.135498,-3.671756,7.78626,42.19084,-70.84,-71.76,-131.56
0.6074219,0.8286133,-0.09643555,-6.870229,6.458015,39.51908,-68.08,-69.92,-132.48
0.612793,0.8457031,-0.06420898,2.480916,17.98473,38.54198,-68.08,-69.92,-132.48
0.6279297,0.817627,-0.09716797,19.62595,29.06107,39.9542,-68.08,-69.92,-132.48
0.6367188,0.8117676,-0.1428223,22.0916,29.66412,42.32824,-65.32,-67.16,-133.4
0.6201172,0.8669434,-0.1523438,11.84733,20.73282,38.37405,-65.32,-67.16,-133.4
0.5849609,0.887207,-0.109375,12.23664,22.9542,33.28244,-65.32,-67.16,-133.4
0.5983887,0.8845215,-0.1115723,15.29008,26.68702,31.17557,-60.72,-65.32,-134.32
0.59375,0.8747559,-0.154541,15.81679,23.35878,29.22137,-60.72,-65.32,-134.32
0.5910645,0.875,-0.1782227,12.51908,18.56489,27.74809,-57.96,-64.4,-135.24
0.5754395,0.8898926,-0.1669922,11.35114,12.94656,25.08397,-57.96,-64.4,-135.24
0.5783691,0.9204102,-0.1416016,5.557252,7.458015,19.68702,-57.96,-64.4,-135.24
0.5668945,0.894043,-0.1464844,2.885496,12.17557,15.29008,-56.12,-62.56,-136.16
0.5720215,0.901123,-0.1572266,5.763359,8.183207,10.59542,-56.12,-62.56,-136.16
0.5695801,0.8686523,-0.145752,9.244275,9.496183,3.633588,-56.12,-62.56,-136.16
0.5603027,0.869873,-0.1269531,8.106871,11.03053,-0.5954198,-55.2,-62.56,-136.16
0.5529785,0.8793945,-0.1599121,9.59542,15.87786,-4.61832,-55.2,-62.56,-136.16
0.5515137,0.8562012,-0.1694336,7.419847,16.68702,-5.755725,-54.28,-61.64,-136.16
0.5610352,0.8676758,-0.1987305,5.80916,13.39695,-6.480916,-54.28,-61.64,-136.16
0.5541992,0.8847656,-0.1943359,4.267176,10.52672,-12.74046,-54.28,-61.64,-136.16
0.5471191,0.8774414,-0.197998,7.679389,9.763359,-17.64122,-54.28,-61.64,-137.08
0.5490723,0.8808594,-0.1938477,4.938931,9.0,-21.56489,-54.28,-61.64,-137.08
0.5495605,0.8930664,-0.2155762,-1.480916,3.877863,-24.21374,-54.28,-61.64,-137.08
0.5600586,0.8962402,-0.2255859,-0.9770992,-0.7709923,-29.42748,-55.2,-61.64,-137.08
0.5654297,0.9018555,-0.2055664,6.091603,0.1374046,-33.34351,-55.2,-61.64,-137.08
0.5822754,0.8881836,-0.2128906,5.770992,-2.160305,-36.90076,-57.04,-61.64,-137.08
0.6030273,0.8654785,-0.2119141,-3.129771,-10.29771,-39.38168,-57.04,-61.64,-137.08
0.6066895,0.8789063,-0.1931152,-17.63359,-17.81679,-43.58015,-57.04,-61.64,-137.08
0.6135254,0.8544922,-0.175293,-25.19847,-24.61832,-48.17557,-60.72,-64.4,-136.16
0.6262207,0.8095703,-0.130127,-12.20611,-19.58779,-45.54198,-60.72,-64.4,-136.16
0.6367188,0.8078613,-0.1081543,1.160305,-15.22137,-43.07634,-60.72,-64.4,-136.16
0.5969238,0.7827148,-0.07714844,-1.938931,-14.58015,-42.52672,-65.32,-67.16,-134.32
0.6176758,0.7751465,-0.1159668,-3.793893,-11.68702,-39.53435,-65.32,-67.16,-134.32
0.6120605,0.7929688,-0.1525879,-2.206107,-14.31298,-36.03053,-69.0,-69.92,-133.4
0.5930176,0.7692871,-0.09765625,-3.122137,-13.22901,-33.23664,-72.68,-73.6,-131.56
0.597168,0.7700195,-0.1186523,4.931298,-9.099236,-30.13741,-72.68,-73.6,-131.56
0.5820313,0.7407227,-0.09863281,5.206107,-10.25954,-27.44275,-72.68,-73.6,-131.56
0.578125,0.717041,-0.08154297,0.2290076,-9.717557,-22.64122,-74.52,-76.36,-129.72
0.5708008,0.6992188,-0.07470703,0.2366412,-6.740458,-15.56489,-74.52,-76.36,-129.72
0.5681152,0.7045898,-0.07495117,0.7099237,-4.374046,-9.305344,-74.52,-76.36,-129.72
0.5678711,0.6848145,-0.08325195,2.496183,0.6030535,-2.458015,-75.44,-78.2,-128.8
0.5661621,0.6879883,-0.07983398,2.854962,2.80916,4.992366,-75.44,-78.2,-128.8
0.5612793,0.6992188,-0.08203125,-3.045802,0.8167939,10.77099,-75.44,-78.2,-128.8
0.5581055,0.7192383,-0.09423828,-2.916031,5.564886,16.33588,-75.44,-79.12,-128.8
0.5593262,0.7519531,-0.08325195,-0.1832061,8.885496,22.0687,-75.44,-79.12,-128.8
0.5634766,0.748291,-0.09814453,-0.9160305,10.03053,25.74809,-74.52,-77.28,-128.8
0.5649414,0.7609863,-0.1140137,-0.3206107,7.748092,30.25954,-74.52,-77.28,-128.8
0.5681152,0.7995605,-0.1069336,-2.625954,9.671756,35.53435,-74.52,-77.28,-128.8
0.5849609,0.8242188,-0.1030273,-8.465649,7.21374,34.51145,-72.68,-74.52,-130.64
0.5961914,0.8493652,-0.1154785,-8.488549,7.251908,34.0687,-72.68,-74.52,-130.64
0.5893555,0.8583984,-0.09301758,-4.870229,8.557252,31.64122,-72.68,-74.52,-130.64
0.5974121,0.8366699,-0.07202148,6.694656,14.69466,30.27481,-70.84,-72.68,-130.64
0.6118164,0.8198242,-0.109375,18.09924,22.63359,29.89313,-70.84,-72.68,-130.64
0.6140137,0.8164063,-0.152832,23.84733,25.44275,30.22137,-68.08,-69.92,-132.48
0.6071777,0.8139648,-0.1450195,21.38931,20.67175,28.63359,-68.08,-69.92,-132.48
0.5998535,0.8088379,-0.1513672,16.12214,21.06107,30.33588,-68.08,-69.92,-132.48
0.5981445,0.822998,-0.1340332,18.00763,25.36641,31.28244,-63.48,-68.08,-133.4
0.5964355,0.8217773,-0.1560059,19.9771,27.85496,29.29008,-63.48,-68.08,-133.4
0.5793457,0.810791,-0.1936035,17.16794,26.56489,29.62595,-63.48,-68.08,-133.4
0.5605469,0.8288574,-0.1831055,14.35114,23.27481,29.91603,-59.8,-67.16,-135.24
0.5517578,0.8469238,-0.1601563,12.80916,25.41985,28.13741,-59.8,-67.16,-135.24
0.5437012,0.854248,-0.1811523,15.34351,26.48092,27.20611,-56.12,-65.32,-136.16
0.5249023,0.8642578,-0.1992188,15.80916,24.64886,24.65649,-56.12,-65.32,-136.16
0.501709,0.8952637,-0.2043457,6.503817,20.84733,23.96183,-56.12,-65.32,-136.16
0.5031738,0.9387207,-0.1804199,7.824428,19.37405,18.87786,-54.28,-62.56,-137.08
0.5009766,0.935791,-0.1901855,16.99237,23.83969,12.78626,-54.28,-62.56,-137.08
0.5039063,0.9284668,-0.2385254,12.21374,24.33588,8.511451,-53.36,-60.72,-137.08
0.5070801,0.9570313,-0.2475586,5.755725,14.96947,5.198473,-53.36,-60.72,-137.08
0.5209961,0.9470215,-0.2414551,-3.366412,5.374046,-3.48855,-53.36,-60.72,-137.08
0.5332031,0.9172363,-0.2260742,-3.083969,0.5801527,-7.251908,-53.36,-60.72,-138.0
0.545166,0.9047852,-0.2001953,-6.633588,-1.40458,-11.68702,-53.36,-60.72,-138.0
0.5527344,0.8798828,-0.1894531,-10.8626,-2.862595,-15.30534,-53.36,-60.72,-138.0
0.5681152,0.8684082,-0.1918945,-10.83969,-9.053435,-15.84733,-54.28,-60.72,-138.0
0.5742188,0.8759766,-0.1799316,-13.06107,-7.312977,-19.67175,-54.28,-60.72,-138.0
0.5852051,0.8752441,-0.1743164,-12.61069,-9.076336,-22.35114,-54.28,-60.72,-138.0
0.5913086,0.8850098,-0.1647949,-12.32061,-9.236641,-27.40458,-57.04,-60.72,-137.08
0.6037598,0.8862305,-0.1762695,-13.68702,-10.98473,-30.43511,-57.04,-60.72,-137.08
0.6137695,0.9018555,-0.1860352,-12.64122,-14.19847,-32.78626,-59.8,-61.64,-137.08
0.6118164,0.8974609,-0.152832,-13.58015,-16.54962,-37.8168,-59.8,-61.64,-137.08
0.625,0.8771973,-0.1374512,-14.49618,-19.00763,-40.35115,-59.8,-61.64,-137.08
0.6374512,0.8540039,-0.126709,-16.62595,-23.0916,-41.90076,-64.4,-63.48,-135.24
0.6376953,0.8452148,-0.1279297,-17.06107,-25.59542,-41.65649,-64.4,-63.48,-135.24
0.6677246,0.8486328,-0.08422852,-14.8626,-22.58015,-43.75573,-64.4,-63.48,-135.24
0.6296387,0.7966309,-0.1040039,-9.458015,-19.89313,-45.8168,-69.92,-67.16,-134.32
0.6311035,0.7226563,-0.07763672,-8.984733,-19.27481,-38.0,-75.44,-71.76,-131.56
0.6274414,0.703125,-0.06811523,-8.160305,-16.32825,-33.37405,-75.44,-71.76,-131.56
0.6240234,0.670166,-0.07128906,-5.61832,-14.99237,-27.09924,-79.12,-75.44,-128.8
0.619873,0.6384277,-0.06542969,-4.816794,-14.9084,-19.74809,-79.12,-75.44,-128.8
0.6105957,0.6516113,-0.04589844,-4.740458,-11.59542,-13.58015,-79.12,-75.44,-128.8
0.5966797,0.6647949,-0.03051758,-3.671756,-6.267176,-6.687023,-81.88,-77.28,-127.88
0.5952148,0.6625977,-0.01928711,-2.80916,-0.3358779,-0.06870229,-81.88,-77.28,-127.88
0.5957031,0.6689453,-0.01782227,3.541985,5.923664,7.045802,-81.88,-77.28,-127.88
0.5939941,0.6843262,-0.02661133,4.38168,11.37405,13.38168,-81.88,-77.28,-126.96
0.5898438,0.7089844,-0.02172852,3.885496,15.0229,18.42748,-81.88,-77.28,-126.96
0.5878906,0.7409668,-0.05834961,5.19084,17.03053,21.67175,-81.88,-77.28,-126.96
0.592041,0.7580566,-0.07592773,5.816794,15.53435,25.75573,-80.96,-75.44,-128.8
0.5986328,0.7797852,-0.07128906,7.198473,19.72519,27.68702,-80.96,-75.44,-128.8
0.6013184,0.795166,-0.06347656,12.16794,23.03817,25.96947,-77.28,-72.68,-130.64
0.6064453,0.7878418,-0.07739258,21.0229,28.41221,28.0916,-77.28,-72.68,-130.64
0.6044922,0.8171387,-0.1384277,23.12214,26.94657,28.16794,-77.28,-72.68,-130.64
0.6003418,0.838623,-0.1452637,23.0687,24.14504,26.86259,-72.68,-70.84,-131.56
0.5905762,0.8308105,-0.1481934,24.61832,24.58015,27.29771,-72.68,-70.84,-131.56
0.5852051,0.8757324,-0.1772461,22.24427,24.8855,26.76336,-72.68,-70.84,-131.56
0.5842285,0.8869629,-0.1799316,24.08397,23.89313,21.58779,-67.16,-69.0,-133.4
0.5808105,0.8752441,-0.1970215,30.15267,29.15267,18.89313,-67.16,-69.0,-133.4
0.5532227,0.8737793,-0.2121582,30.27481,24.48092,17.96183,-62.56,-68.08,-134.32
0.5249023,0.8754883,-0.1984863,23.41221,20.64122,16.48092,-62.56,-68.08,-134.32
0.5183105,0.8730469,-0.1911621,15.1145,17.80916,15.61832,-62.56,-68.08,-134.32
0.5,0.8601074,-0.171875,13.20611,17.35114,17.03817,-58.88,-67.16,-135.24
0.4938965,0.8640137,-0.1633301,8.419847,15.14504,17.29771,-58.88,-67.16,-135.24
0.487793,0.8601074,-0.1809082,7.267176,18.42748,19.31298,-58.88,-67.16,-135.24
0.4746094,0.8869629,-0.1772461,7.946565,17.26718,19.06107,-57.04,-66.24,-135.24
0.5009766,0.8930664,-0.2067871,8.450381,21.20611,17.91603,-57.04,-66.24,-135.24
0.4624023,0.9089355,-0.220459,3.122137,17.68702,15.92366,-56.12,-64.4,-136.16
0.4785156,0.9155273,-0.2224121,1.19084,13.63359,14.9313,-56.12,-64.4,-136.16
0.4787598,0.9382324,-0.239502,-1.946565,11.61069,11.58015,-56.12,-64.4,-136.16
0.484375,0.9572754,-0.2314453,-2.847328,7.557252,5.755725,-55.2,-62.56,-136.16
0.4970703,0.9304199,-0.2297363,-7.587786,5.824428,0.9007633,-55.2,-62.56,-136.16
0.5168457,0.9030762,-0.2287598,-5.40458,5.053435,-1.900763,-55.2,-62.56,-136.16
0.5307617,0.8894043,-0.2216797,-11.48092,0.5877862,-4.870229,-56.12,-62.56,-136.16
0.5478516,0.8742676,-0.2180176,-7.076336,0.8549618,-8.954199,-56.12,-62.56,-136.16
0.5549316,0.8588867,-0.2229004,-1.969466,-2.053435,-11.99237,-57.04,-61.64,-137.08
0.5561523,0.859375,-0.2026367,0.1068702,-3.816794,-13.54198,-57.04,-61.64,-137.08
0.5744629,0.8737793,-0.1757813,-9.725191,-8.854961,-16.71756,-57.04,-61.64,-137.08
0.572998,0.878418,-0.1428223,-14.01527,-11.83969,-19.00763,-58.88,-62.56,-136.16
0.6088867,0.90625,-0.1120605,-11.68702,-14.61069,-20.74046,-58.88,-62.56,-136.16
0.5939941,0.9245605,-0.08496094,-13.56489,-13.51908,-25.65649,-58.88,-62.56,-136.16
0.6003418,0.9233398,-0.05908203,-11.51145,-10.00763,-29.70229,-62.56,-63.48,-136.16
0.6184082,0.9104004,-0.06982422,-8.625955,-4.580153,-35.34351,-62.56,-63.48,-136.16
0.6330566,0.8852539,-0.1052246,0.7175572,-4.473282,-39.22901,-66.24,-65.32,-135.24
0.6298828,0.8415527,-0.1174316,1.290076,-7.473282,-39.1145,-66.24,-65.32,-135.24
0.6103516,0.847168,-0.137207,4.641222,-9.870229,-40.26717,-66.24,-65.32,-135.24
0.614502,0.8254395,-0.09765625,4.801527,-10.31298,-42.29008,-69.0,-67.16,-135.24
0.6186523,0.7827148,-0.09838867,5.816794,-8.984733,-43.49618,-69.0,-67.16,-135.24
0.6179199,0.7185059,-0.1115723,4.137404,-11.56489,-39.82443,-69.0,-67.16,-135.24
0.5908203,0.6967773,-0.06201172,-11.49618,-7.564886,-24.53435,-72.68,-71.76,-133.4
0.5856934,0.6726074,-0.06591797,-9.511451,-3.603053,-17.32825,-74.52,-73.6,-131.56
0.5822754,0.6660156,-0.0625,-9.671756,-0.8091603,-9.664123,-74.52,-73.6,-131.56
0.5705566,0.6782227,-0.05175781,-3.954198,2.328244,-1.717557,-74.52,-73.6,-131.56
0.5773926,0.6931152,-0.0703125,-0.5801527,11.00763,3.229008,-77.28,-74.52,-130.64
0.5805664,0.6813965,-0.07641602,2.40458,12.27481,8.732824,-77.28,-74.52,-130.64
0.5756836,0.6962891,-0.1037598,4.541985,14.30534,14.25954,-76.36,-73.6,-131.56
0.5769043,0.7145996,-0.109375,2.908397,14.1374,19.87023,-76.36,-73.6,-131.56
0.5805664,0.7387695,-0.1086426,2.343511,13.61832,23.03053,-76.36,-73.6,-131.56
0.5913086,0.7634277,-0.09912109,3.80916,12.63359,23.92366,-75.44,-71.76,-132.48
0.5961914,0.7607422,-0.1196289,10.16031,17.35114,24.0687,-75.44,-71.76,-132.48
0.5949707,0.7653809,-0.1499023,15.84733,15.84733,27.67175,-75.44,-71.76,-132.48
0.59375,0.7919922,-0.1247559,6.572519,9.916031,30.85496,-71.76,-69.92,-133.4
0.59375,0.8305664,-0.1057129,-2.366412,9.351145,29.96183,-71.76,-69.92,-133.4
0.5825195,0.8605957,-0.126709,1.954198,10.31298,30.54198,-69.0,-69.0,-133.4
0.5771484,0.8828125,-0.1064453,18.08397,16.47328,28.0,-69.0,-69.0,-133.4
0.5800781,0.8552246,-0.1403809,25.41221,22.32061,25.64122,-69.0,-69.0,-133.4
0.5869141,0.8325195,-0.1662598,22.00763,22.78626,25.50382,-64.4,-67.16,-135.24
0.5837402,0.8195801,-0.1833496,10.66412,21.55725,28.15267,-64.4,-67.16,-135.24
0.572998,0.8583984,-0.1901855,-3.969466,6.671756,25.32061,-64.4,-67.16,-135.24
0.5493164,0.8789063,-0.1657715,-11.0687,4.923664,23.28244,-61.64,-66.24,-135.24
0.5437012,0.8505859,-0.1442871,9.740458,12.34351,26.75573,-61.64,-66.24,-135.24
0.5380859,0.8840332,-0.1730957,27.08397,16.82443,26.19084,-59.8,-65.32,-135.24
0.534668,0.890625,-0.1865234,23.47328,13.52672,23.61069,-59.8,-65.32,-135.24
0.5102539,0.9077148,-0.1789551,16.71756,13.41221,17.61832,-59.8,-65.32,-135.24
0.5097656,0.8867188,-0.1945801,16.12214,13.8626,16.59542,-55.2,-64.4,-135.24
0.4975586,0.9084473,-0.1923828,19.12214,12.85496,13.62595,-55.2,-64.4,-135.24
0.5014648,0.9372559,-0.1960449,17.80916,11.22137,11.35878,-55.2,-64.4,-135.24
0.4775391,0.9401855,-0.1923828,6.832061,10.09924,5.068702,-53.36,-64.4,-136.16
0.4941406,0.9345703,-0.1940918,1.244275,4.580153,-0.1984733,-53.36,-64.4,-136.16
0.4816895,0.940918,-0.2145996,0.1068702,5.030534,-2.59542,-53.36,-64.4,-137.08
0.479248,0.9304199,-0.197998,-1.496183,5.259542,-5.839694,-53.36,-64.4,-137.08
0.4855957,0.9365234,-0.1992188,-5.847328,0.1068702,-10.41985,-53.36,-64.4,-137.08
0.4902344,0.9179688,-0.1901855,0.08396947,-0.7480916,-13.59542,-53.36,-64.4,-136.16
0.4863281,0.8955078,-0.1601563,-2.083969,-0.3053435,-14.68702,-53.36,-64.4,-136.16
0.5056152,0.8947754,-0.1643066,-15.60305,0.6259542,-15.70229,-53.36,-64.4,-136.16
0.5380859,0.9033203,-0.1772461,-23.52672,-2.78626,-17.58015,-55.2,-64.4,-136.16
0.5405273,0.9089355,-0.1831055,-11.43511,0.8396947,-20.85496,-55.2,-64.4,-136.16
0.5666504,0.8933105,-0.1791992,2.061069,6.343512,-23.91603,-57.96,-64.4,-136.16
0.5751953,0.8464355,-0.2092285,0.5343512,6.435114,-28.19084,-57.96,-64.4,-136.16
0.5983887,0.8222656,-0.2114258,-11.35114,-1.725191,-30.05343,-57.96,-64.4,-136.16
0.5974121,0.8098145,-0.2067871,-19.07634,-12.38168,-27.77863,-60.72,-63.48,-136.16
0.5944824,0.8452148,-0.1481934,-19.9771,-13.23664,-25.84733,-60.72,-63.48,-136.16
0.5964355,0.8615723,-0.1237793,-18.48855,-10.65649,-26.19847,-60.72,-63.48,-136.16
0.5979004,0.8486328,-0.1196289,-10.18321,-7.679389,-29.07634,-65.32,-64.4,-135.24
0.6062012,0.8327637,-0.1391602,-6.954198,-13.82443,-32.80916,-65.32,-64.4,-135.24
0.6096191,0.8156738,-0.1137695,-5.236641,-13.25954,-31.62595,-69.92,-67.16,-135.24
0.6088867,0.7978516,-0.1030273,-3.053435,-11.80153,-28.80153,-69.92,-67.16,-135.24
0.6218262,0.7783203,-0.09179688,-5.08397,-10.67939,-28.68702,-69.92,-67.16,-135.24
0.609375,0.7514648,-0.08300781,-1.877863,-9.251908,-26.61832,-72.68,-69.92,-133.4
0.6037598,0.7387695,-0.06274414,-1.557252,-9.877863,-23.72519,-72.68,-69.92,-133.4
0.6037598,0.6862793,-0.05566406,-4.656488,-5.458015,-8.984733,-74.52,-71.76,-132.48
0.5998535,0.6962891,-0.0612793,-4.053435,-6.725191,-4.038168,-74.52,-71.76,-132.48
0.5927734,0.6865234,-0.03979492,-4.396946,-3.0,2.51145,-77.28,-73.6,-130.64
0.5952148,0.6828613,-0.05053711,-3.145038,-0.5648855,9.374045,-77.28,-73.6,-130.64
0.5952148,0.6904297,-0.05175781,-0.480916,3.664122,14.41985,-77.28,-73.6,-130.64
0.5974121,0.7121582,-0.05712891,3.282443,8.801527,19.76336,-77.28,-73.6,-130.64
0.5998535,0.7182617,-0.07495117,4.80916,14.03053,23.80153,-77.28,-73.6,-130.64
0.6088867,0.734375,-0.08227539,7.900764,17.00763,26.64122,-75.44,-71.76,-131.56
0.6098633,0.737793,-0.1147461,15.47328,18.68702,28.65649,-75.44,-71.76,-131.56
0.6186523,0.7429199,-0.1403809,17.54198,19.53435,32.32061,-75.44,-71.76,-131.56
0.6225586,0.7646484,-0.1359863,9.450381,13.0687,33.56488,-70.84,-69.92,-133.4
0.6137695,0.8171387,-0.1418457,9.068703,12.87023,31.83969,-70.84,-69.92,-133.4
0.6044922,0.8330078,-0.1176758,11.54962,15.9542,30.13741,-70.84,-69.92,-133.4
0.6120605,0.8178711,-0.1430664,21.9313,23.68702,28.48855,-67.16,-68.08,-134.32
0.5983887,0.8508301,-0.2041016,26.54962,24.58779,29.50382,-67.16,-68.08,-134.32
0.5668945,0.920166,-0.229248,18.13741,15.35878,23.38931,-62.56,-66.24,-134.32
0.5444336,0.9484863,-0.1794434,8.21374,7.557252,16.60305,-62.56,-66.24,-134.32
0.5483398,0.9084473,-0.1774902,10.77099,9.80916,11.0687,-62.56,-66.24,-134.32
0.5498047,0.8937988,-0.1691895,24.87023,11.43511,14.22901,-59.8,-67.16,-134.32
0.5432129,0.8674316,-0.152832,23.12214,7.427481,14.79389,-59.8,-67.16,-134.32
0.5297852,0.8344727,-0.1730957,18.07634,6.610687,18.41221,-59.8,-67.16,-134.32
0.5437012,0.8486328,-0.1801758,13.61832,7.48855,22.63359,-57.04,-67.16,-135.24
0.519043,0.8601074,-0.1699219,10.38931,7.954198,20.23664,-57.04,-67.16,-135.24
0.5144043,0.8540039,-0.1379395,8.0,5.389313,17.49618,-55.2,-67.16,-135.24
0.5234375,0.8125,-0.1914063,9.519084,13.41985,17.61832,-55.2,-67.16,-135.24
0.5021973,0.7946777,-0.2614746,10.72519,9.396947,20.73282,-55.2,-67.16,-135.24
0.5124512,0.859375,-0.2561035,-4.633588,-0.9160305,23.66412,-53.36,-66.24,-135.24
0.5061035,0.9287109,-0.184082,-23.67175,-8.946565,15.33588,-53.36,-66.24,-135.24
0.5024414,0.9204102,-0.1945801,-18.06107,-2.473282,6.847328,-53.36,-66.24,-135.24
0.5100098,0.8937988,-0.1652832,-1.251908,5.229008,2.709924,-55.2,-67.16,-134.32
0.5200195,0.9030762,-0.1733398,0.5267176,6.244275,-2.40458,-55.2,-67.16,-134.32
0.5334473,0.8789063,-0.2038574,-0.3282443,6.358778,-7.038168,-55.2,-66.24,-134.32
0.5327148,0.871582,-0.1745605,-1.648855,0.4580153,-10.26718,-55.2,-66.24,-134.32
0.527832,0.8706055,-0.1320801,5.755725,1.167939,-11.96183,-55.2,-66.24,-134.32
0.5393066,0.8522949,-0.1220703,-1.519084,4.564886,-12.15267,-55.2,-67.16,-135.24
0.5476074,0.8640137,-0.1264648,-16.25191,5.603054,-12.1374,-55.2,-67.16,-135.24
0.5397949,0.8964844,-0.137207,-16.9542,7.80916,-14.19084,-55.2,-67.16,-135.24
0.5419922,0.9394531,-0.1403809,-7.854962,10.76336,-19.09924,-57.04,-65.32,-134.32
0.5537109,0.9387207,-0.1455078,-10.9313,12.29008,-24.00763,-57.04,-65.32,-134.32
0.5947266,0.9204102,-0.1916504,-15.30534,9.717557,-29.14504,-59.8,-64.4,-135.24
0.6062012,0.8776855,-0.2290039,-18.16794,3.022901,-29.85496,-59.8,-64.4,-135.24
0.6115723,0.8547363,-0.2485352,-29.72519,-10.74046,-28.92366,-59.8,-64.4,-135.24
0.6032715,0.8989258,-0.1816406,-37.17557,-20.21374,-29.52672,-64.4,-64.4,-134.32
0.6152344,0.9003906,-0.1489258,-33.9771,-21.36641,-36.38931,-64.4,-64.4,-134.32
0.6096191,0.8498535,-0.1313477,-24.43511,-18.58015,-38.89313,-64.4,-64.4,-134.32
0.6037598,0.8220215,-0.1279297,-16.45802,-19.99237,-38.82443,-70.84,-66.24,-132.48
0.6098633,0.8181152,-0.09790039,-13.48855,-15.98473,-39.19847,-70.84,-66.24,-132.48
0.6081543,0.8046875,-0.06884766,-8.916031,-11.68702,-41.8855,-76.36,-69.0,-130.64
0.6022949,0.7570801,-0.07739258,-7.977099,-8.793893,-39.29771,-76.36,-69.0,-130.64
0.6032715,0.7421875,-0.05737305,-7.022901,-6.862596,-35.22137,-76.36,-69.0,-130.64
0.6083984,0.7287598,-0.06835938,-5.160306,-5.625954,-31.29008,-80.96,-71.76,-127.88
0.5991211,0.6901855,-0.06689453,4.961832,-1.381679,-16.33588,-83.72,-73.6,-126.96
0.5915527,0.6921387,-0.03393555,7.29771,0.740458,-10.48092,-83.72,-73.6,-126.96
0.5854492,0.6665039,-0.06103516,6.91603,4.290076,-6.70229,-83.72,-73.6,-126.96
0.5808105,0.673584,-0.06518555,5.236641,2.931298,2.458015,-83.72,-74.52,-126.96
0.5849609,0.706543,-0.05712891,4.38168,3.519084,8.427481,-83.72,-74.52,-126.96
0.574707,0.7167969,-0.04516602,6.221374,2.21374,13.35114,-83.72,-74.52,-126.96
0.5673828,0.7224121,-0.05932617,8.80916,9.61832,19.9084,-82.8,-74.52,-127.88
0.5693359,0.7539063,-0.07006836,6.610687,7.358778,23.85496,-82.8,-74.52,-127.88
0.5791016,0.776123,-0.06079102,5.450382,10.0229,27.0916,-80.96,-73.6,-128.8
0.5898438,0.7858887,-0.07080078,11.0458,13.46565,27.01527,-80.96,-73.6,-128.8
0.5869141,0.7890625,-0.07275391,21.38931,19.42748,27.32825,-80.96,-73.6,-128.8
0.5969238,0.7702637,-0.1025391,30.34351,22.84733,28.84733,-76.36,-70.84,-129.72
0.5942383,0.7583008,-0.1132813,27.9084,20.63359,31.48855,-76.36,-70.84,-129.72
0.5998535,0.7788086,-0.1386719,29.8855,23.09924,35.45802,-76.36,-70.84,-129.72
0.5817871,0.8679199,-0.1242676,26.15267,19.86259,33.58015,-70.84,-69.92,-132.48
0.5756836,0.8840332,-0.1291504,23.74809,19.80153,30.29771,-70.84,-69.92,-132.48
0.5661621,0.8935547,-0.1621094,31.51908,24.96183,26.25191,-64.4,-69.0,-133.4
0.5512695,0.9111328,-0.2443848,38.0458,24.77099,24.57252,-64.4,-69.0,-133.4
0.548584,0.9655762,-0.2478027,36.73283,16.70992,22.07634,-64.4,-69.0,-133.4
0.5373535,0.9675293,-0.2224121,14.91603,3.946565,16.24427,-58.88,-68.08,-135.24
0.527832,0.9606934,-0.1757813,6.954198,-0.6717557,10.28244,-58.88,-68.08,-135.24
0.5231934,0.8935547,-0.1308594,25.18321,11.83969,7.10687,-58.88,-68.08,-135.24
0.5258789,0.8447266,-0.1486816,31.30534,20.03053,9.473283,-57.04,-69.0,-134.32
0.5114746,0.8083496,-0.1855469,29.0229,19.67175,12.07634,-57.04,-69.0,-134.32
0.505127,0.7827148,-0.1914063,29.84733,18.74809,16.72519,-53.36,-69.0,-135.24
0.4924316,0.8046875,-0.1914063,20.56489,16.61069,19.41221,-53.36,-69.0,-135.24
0.4812012,0.8745117,-0.201416,5.335878,14.0458,16.70992,-53.36,-69.0,-135.24
0.4711914,0.9069824,-0.1811523,0.9541985,17.9771,14.62595,-50.6,-68.08,-137.08
0.4685059,0.9257813,-0.2290039,2.030534,21.40458,11.63359,-50.6,-68.08,-137.08
0.4794922,0.9458008,-0.2404785,0.5114504,17.40458,7.38168,-50.6,-68.08,-137.08
0.4760742,0.9575195,-0.2766113,-6.526718,14.62595,3.503817,-50.6,-65.32,-136.16
0.4841309,0.970459,-0.2675781,-14.62595,10.29008,-1.603053,-50.6,-65.32,-136.16
0.4987793,0.9606934,-0.2712402,-11.19084,6.885496,-8.206107,-52.44,-64.4,-137.08
0.5068359,0.9265137,-0.2629395,-8.244275,3.458015,-13.58779,-52.44,-64.4,-137.08
0.5314941,0.9196777,-0.2661133,-10.89313,-2.641221,-18.52672,-52.44,-64.4,-137.08
0.5795898,0.8847656,-0.2355957,-12.52672,-9.526717,-22.58779,-53.36,-63.48,-138.0
0.5646973,0.8791504,-0.253418,-9.977099,-7.526718,-26.51145,-53.36,-63.48,-138.0
0.5563965,0.8774414,-0.2155762,-12.77863,-9.366412,-32.16794,-53.36,-63.48,-138.0
0.5720215,0.8354492,-0.1896973,-14.12214,-8.748092,-34.98473,-56.12,-64.4,-137.08
0.5878906,0.8481445,-0.173584,-12.70992,-12.32824,-32.87786,-56.12,-64.4,-137.08
0.5830078,0.8710938,-0.1435547,-14.9084,-14.67176,-33.35115,-60.72,-66.24,-135.24
0.607666,0.8837891,-0.1052246,-12.10687,-9.80916,-33.59542,-60.72,-66.24,-135.24
0.6096191,0.8601074,-0.1086426,-6.229008,-2.694656,-37.23664,-60.72,-66.24,-135.24
0.6220703,0.8190918,-0.1450195,-8.496183,-2.80916,-36.74046,-64.4,-68.08,-135.24
0.6032715,0.8212891,-0.1416016,-6.328244,-5.068702,-37.74809,-64.4,-68.08,-135.24
0.5930176,0.8188477,-0.1254883,-2.320611,-2.312977,-37.73283,-64.4,-68.08,-135.24
0.5996094,0.7841797,-0.1418457,1.40458,-1.251908,-34.45038,-69.0,-69.92,-134.32
0.5913086,0.7614746,-0.1333008,2.877863,-4.328244,-30.77099,-69.0,-69.92,-134.32
0.5957031,0.7631836,-0.137207,-2.519084,-9.664123,-26.9542,-71.76,-71.76,-133.4
0.5866699,0.7314453,-0.1035156,-6.854962,-8.38168,-24.41985,-71.76,-71.76,-133.4
0.5881348,0.7131348,-0.09350586,-6.801527,-9.335877,-20.45802,-71.76,-71.76,-133.4
0.5791016,0.6704102,-0.09936523,-4.961832,-3.396947,-3.312977,-74.52,-73.6,-131.56
0.5705566,0.6774902,-0.08325195,-5.534351,0.9847328,3.969466,-76.36,-74.52,-131.56
0.564209,0.6875,-0.08251953,-0.1679389,5.564886,7.908397,-76.36,-74.52,-131.56
0.557373,0.6989746,-0.1057129,4.931298,10.43511,14.09924,-76.36,-74.52,-131.56
0.5646973,0.7189941,-0.1237793,2.282443,8.679389,18.32825,-75.44,-74.52,-131.56
0.5698242,0.7390137,-0.1315918,1.068702,9.496183,20.22137,-75.44,-74.52,-131.56
0.579834,0.7553711,-0.1242676,0.3969466,10.78626,23.53435,-75.44,-74.52,-131.56
0.5776367,0.7963867,-0.1286621,1.992366,10.57252,25.74046,-74.52,-72.68,-131.56
0.5664063,0.8027344,-0.1560059,4.328244,11.20611,25.91603,-74.52,-72.68,-131.56
0.5634766,0.8427734,-0.1577148,4.80916,9.328244,25.45038,-71.76,-70.84,-132.48
0.5634766,0.8647461,-0.1564941,9.19084,10.46565,24.31298,-71.76,-70.84,-132.48
0.5664063,0.8945313,-0.1484375,10.94656,8.068703,22.87786,-71.76,-70.84,-132.48
0.5578613,0.8691406,-0.1286621,12.59542,7.053435,17.45802,-68.08,-69.92,-132.48
0.6345215,0.8532715,-0.2260742,27.63359,18.0687,25.45038,-68.08,-69.92,-132.48
0.5458984,0.8132324,-0.1188965,22.73282,12.64886,25.48855,-68.08,-69.92,-132.48
0.5490723,0.8117676,-0.1323242,12.58015,9.297709,29.16031,-64.4,-69.0,-133.4
0.5175781,0.8251953,-0.06396484,10.79389,5.412214,33.63359,-64.4,-69.0,-133.4
0.5302734,0.8232422,-0.07128906,26.9542,14.19084,39.90076,-60.72,-69.0,-133.4
0.5444336,0.8942871,-0.1245117,24.52672,28.77099,40.22137,-60.72,-69.0,-133.4
0.5205078,0.9089355,-0.1796875,15.75572,27.10687,31.54962,-60.72,-69.0,-133.4
0.5163574,0.9204102,-0.215332,16.27481,23.08397,26.65649,-55.2,-67.16,-135.24
0.5100098,0.9160156,-0.2314453,23.58779,21.03817,25.59542,-55.2,-67.16,-135.24
0.4924316,0.9064941,-0.2087402,30.29771,21.33588,21.03817,-55.2,-67.16,-135.24
0.4963379,0.9150391,-0.2595215,21.84733,21.12977,17.35114,-52.44,-66.24,-136.16
0.4953613,0.8999023,-0.2578125,10.55725,18.70229,15.10687,-52.44,-66.24,-136.16
0.4973145,0.8847656,-0.2832031,5.969466,13.8855,13.0458,-49.68,-64.4,-137.08
0.5002441,0.8947754,-0.2546387,9.259542,9.099236,13.41985,-49.68,-64.4,-137.08
0.503418,0.920166,-0.2253418,2.343511,16.67939,7.160306,-49.68,-64.4,-137.08
0.517334,0.8842773,-0.2429199,-6.847328,11.93893,-2.351145,-48.76,-63.48,-138.0
0.5368652,0.8554688,-0.2541504,-7.320611,6.625954,-3.091603,-48.76,-63.48,-138.0
0.5446777,0.8457031,-0.2375488,-3.923664,2.038168,-2.778626,-48.76,-63.48,-138.0
0.5483398,0.8505859,-0.2358398,-6.282443,0.04580153,-2.229008,-49.68,-62.56,-138.0
0.536377,0.8886719,-0.1989746,-16.13741,-1.610687,-8.145039,-49.68,-62.56,-138.0
0.5661621,0.8808594,-0.2419434,-17.86259,-1.221374,-14.03817,-51.52,-62.56,-138.0
0.5625,0.8684082,-0.2468262,-8.106871,-3.832061,-16.70229,-51.52,-62.56,-138.0
0.5749512,0.9001465,-0.2199707,-7.824428,-5.183206,-20.60305,-51.52,-62.56,-138.0
0.5925293,0.8947754,-0.2172852,-17.20611,-8.206107,-27.06107,-54.28,-62.56,-138.0
0.6000977,0.8850098,-0.1938477,-18.24427,-13.15267,-30.25191,-54.28,-62.56,-138.0
0.6013184,0.8835449,-0.1809082,-14.94656,-15.9313,-31.83206,-54.28,-62.56,-138.0
0.5964355,0.8833008,-0.1733398,-21.67175,-18.50382,-32.17557,-57.96,-63.48,-137.08
0.5983887,0.890625,-0.1589355,-19.33588,-16.00763,-35.93893,-57.96,-63.48,-137.08
0.6083984,0.8791504,-0.1569824,-10.41221,-15.53435,-39.26717,-62.56,-65.32,-136.16
0.6118164,0.840332,-0.1774902,-10.54198,-16.10687,-40.9542,-62.56,-65.32,-136.16
0.6140137,0.8237305,-0.1496582,-14.61832,-20.92366,-41.16794,-62.56,-65.32,-136.16
0.625,0.8078613,-0.1416016,-13.74046,-18.32061,-38.64122,-68.08,-69.0,-134.32
0.6140137,0.7841797,-0.1210938,-11.32061,-18.87786,-39.40458,-68.08,-69.0,-134.32
0.6113281,0.7575684,-0.1240234,-7.938931,-12.05344,-38.54962,-68.08,-69.0,-134.32
0.6113281,0.7412109,-0.1274414,-5.358778,-12.77863,-35.07634,-72.68,-71.76,-132.48
0.5986328,0.706543,-0.09716797,-1.335878,-13.44275,-30.34351,-72.68,-71.76,-132.48
0.5888672,0.6755371,-0.1003418,0.09923664,-13.87786,-24.38168,-76.36,-75.44,-130.64
0.5947266,0.6733398,-0.09350586,-2.725191,-9.236641,-19.16794,-76.36,-75.44,-130.64
0.5756836,0.6760254,-0.04711914,-0.6870229,-3.969466,-0.3816794,-78.2,-77.28,-128.8
0.5766602,0.6796875,-0.0390625,-0.3969466,1.824428,6.755725,-78.2,-77.28,-128.8
0.5708008,0.6975098,-0.04370117,3.419847,10.20611,12.75572,-78.2,-78.2,-128.8
0.5581055,0.715332,-0.0847168,5.282443,14.56489,18.48092,-78.2,-78.2,-128.8
0.565918,0.737793,-0.1162109,1.557252,15.26718,22.79389,-78.2,-78.2,-128.8
0.5593262,0.7814941,-0.1235352,1.061069,11.23664,22.01527,-76.36,-76.36,-129.72
0.546875,0.8269043,-0.09008789,1.19084,13.58015,27.23664,-76.36,-76.36,-129.72
0.5639648,0.8457031,-0.1357422,6.862596,21.52672,24.79389,-73.6,-72.68,-130.64
0.5759277,0.8251953,-0.1733398,12.0458,16.87786,26.19847,-73.6,-72.68,-130.64
0.5834961,0.7993164,-0.1755371,13.44275,11.8626,31.77099,-73.6,-72.68,-130.64
0.5786133,0.8100586,-0.1950684,5.29771,3.992366,34.35115,-69.92,-71.76,-132.48
0.5617676,0.8571777,-0.1569824,0.5496183,3.412214,27.46565,-69.92,-71.76,-132.48
0.5620117,0.8806152,-0.1464844,6.236641,9.969465,24.49618,-69.92,-71.76,-132.48
0.5739746,0.848877,-0.1574707,28.66412,23.38931,21.34351,-67.16,-70.84,-132.48
0.5700684,0.7902832,-0.182373,37.55725,26.16794,22.64122,-67.16,-70.84,-132.48
0.5471191,0.7922363,-0.223877,25.0,16.96183,28.22137,-67.16,-70.84,-132.48
0.5332031,0.8579102,-0.1916504,8.931297,11.36641,28.12214,-61.64,-69.92,-133.4
0.5112305,0.9228516,-0.1589355,-2.160305,10.19084,23.38168,-61.64,-69.92,-133.4
0.5217285,0.9335938,-0.1848145,1.977099,15.82443,21.55725,-58.88,-69.92,-133.4
0.5080566,0.9140625,-0.2055664,15.58015,17.52672,16.93893,-58.88,-69.92,-133.4
0.5036621,0.9130859,-0.2353516,27.00763,22.49618,15.79389,-58.88,-69.92,-133.4
0.5024414,0.8842773,-0.2575684,23.96183,21.85496,11.69466,-56.12,-68.08,-134.32
0.5095215,0.8601074,-0.3115234,25.63359,18.16031,11.81679,-56.12,-68.08,-134.32
0.4836426,0.8994141,-0.2775879,21.22901,7.778626,9.702291,-56.12,-68.08,-134.32
0.4587402,0.9155273,-0.223877,9.938931,7.78626,0.6030535,-53.36,-68.08,-135.24
0.4733887,0.8850098,-0.2485352,8.847328,10.36641,-3.793893,-53.36,-68.08,-135.24
0.4702148,0.8562012,-0.2404785,11.60305,7.51145,-0.2290076,-53.36,-68.08,-135.24
0.467041,0.8955078,-0.2226563,-2.076336,-1.198473,0.5496183,-53.36,-68.08,-135.24
0.4794922,0.9177246,-0.2124023,-7.206107,-5.442748,-0.961832,-53.36,-68.08,-135.24
0.4609375,0.9606934,-0.1669922,-8.297709,-3.137405,-7.664122,-53.36,-68.08,-135.24
0.4765625,0.942627,-0.1474609,-9.946565,0.7938931,-10.58779,-53.36,-68.08,-135.24
0.4851074,0.9077148,-0.1850586,-10.19084,2.770992,-8.496183,-53.36,-68.08,-135.24
0.4831543,0.9433594,-0.1616211,-23.30534,0.5114504,-11.12977,-55.2,-68.08,-135.24
0.4924316,0.9631348,-0.1801758,-21.10687,6.38168,-15.42748,-55.2,-68.08,-135.24
0.5144043,0.9709473,-0.1938477,-9.885496,12.0687,-23.32825,-57.96,-66.24,-135.24
0.5319824,0.9458008,-0.2463379,-7.48855,10.35114,-27.89313,-57.96,-66.24,-135.24
0.5476074,0.9182129,-0.2451172,-9.610687,4.10687,-30.8855,-57.96,-66.24,-135.24
0.5612793,0.9248047,-0.237793,-12.98473,-0.3587786,-35.20611,-60.72,-66.24,-135.24
0.579834,0.8989258,-0.2324219,-14.25954,-5.656488,-37.39695,-60.72,-66.24,-135.24
0.5915527,0.8991699,-0.2167969,-15.68702,-10.70229,-39.38931,-60.72,-66.24,-135.24
0.5915527,0.876709,-0.190918,-5.534351,-11.80153,-44.48855,-66.24,-67.16,-135.24
0.5842285,0.8359375,-0.2028809,1.816794,-12.38931,-45.07634,-66.24,-67.16,-135.24
0.5961914,0.7919922,-0.1782227,-2.687023,-17.38168,-43.90076,-69.0,-70.84,-133.4
0.5883789,0.7746582,-0.1469727,-9.320611,-19.20611,-42.50382,-69.0,-70.84,-133.4
0.5739746,0.7546387,-0.1015625,-9.236641,-19.1145,-39.42748,-69.0,-70.84,-133.4
0.5817871,0.7285156,-0.09228516,-5.603054,-16.81679,-34.19084,-74.52,-74.52,-131.56
0.5817871,0.7080078,-0.0925293,-7.076336,-11.78626,-29.0687,-74.52,-74.52,-131.56
0.5644531,0.7023926,-0.1022949,-11.10687,-12.32824,-22.64122,-74.52,-74.52,-131.56
0.5561523,0.7109375,-0.08862305,-8.106871,-13.29771,-14.81679,-78.2,-78.2,-128.8
0.5454102,0.732666,-0.06323242,-9.625955,-9.900764,-7.923664,-78.2,-78.2,-128.8
0.5375977,0.7294922,-0.0534668,-10.34351,-6.137404,-4.244275,-80.04,-80.04,-127.88
0.5407715,0.6970215,-0.06762695,3.816794,6.251908,9.59542,-81.88,-79.12,-126.96
0.5449219,0.7043457,-0.07910156,1.038168,8.412213,16.51908,-81.88,-79.12,-126.96
0.5476074,0.7365723,-0.09057617,1.519084,11.15267,21.20611,-81.88,-79.12,-126.96
0.5429688,0.7587891,-0.1010742,2.129771,11.72519,24.46565,-80.04,-78.2,-127.88
0.5527344,0.7871094,-0.09375,8.603053,16.51145,26.0458,-80.04,-78.2,-127.88
0.5715332,0.7961426,-0.1296387,14.14504,17.83206,25.67175,-80.04,-78.2,-127.88
0.5754395,0.7841797,-0.1391602,23.64886,23.71756,28.16794,-78.2,-75.44,-128.8
0.5686035,0.7861328,-0.1569824,16.38931,18.01527,30.15267,-78.2,-75.44,-128.8
0.564209,0.8181152,-0.1274414,-6.29771,6.885496,32.16794,-72.68,-73.6,-130.64
0.5700684,0.8547363,-0.08203125,-19.38168,3.335878,34.57252,-72.68,-73.6,-130.64
0.5532227,0.8427734,-0.06860352,-22.60305,5.908397,34.16794,-72.68,-73.6,-130.64
0.5397949,0.8457031,-0.05786133,-7.061069,16.91603,36.1145,-71.76,-70.84,-129.72
0.5258789,0.9211426,-0.06347656,17.0,30.41221,37.12214,-71.76,-70.84,-129.72
0.520752,0.9511719,-0.08496094,25.40458,42.73283,33.38931,-71.76,-70.84,-129.72
0.5234375,0.9238281,-0.1484375,26.19084,45.74809,28.90076,-67.16,-68.08,-131.56
0.548584,0.9135742,-0.2021484,31.38168,44.70229,25.53435,-67.16,-68.08,-131.56
0.5493164,0.9069824,-0.2436523,33.25954,39.23664,23.93893,-67.16,-68.08,-131.56
0.5270996,0.8911133,-0.2685547,24.29008,25.16794,21.30534,-62.56,-65.32,-134.32
0.5180664,0.8999023,-0.2463379,17.25954,21.45802,20.77863,-62.56,-65.32,-134.32
0.5153809,0.8869629,-0.25,16.83206,15.40458,18.54198,-58.88,-63.48,-135.24
0.5163574,0.875,-0.2397461,11.77863,9.38168,18.9771,-58.88,-63.48,-135.24
0.5119629,0.8586426,-0.2587891,4.862596,1.389313,19.54198,-58.88,-63.48,-135.24
0.4921875,0.9025879,-0.2009277,4.946565,-2.534351,18.61069,-56.12,-64.4,-136.16
0.4746094,0.9060059,-0.185791,5.961832,-3.183206,15.67176,-56.12,-64.4,-136.16
0.4567871,0.8996582,-0.1689453,-2.908397,-6.015267,13.96947,-56.12,-64.4,-136.16
0.4450684,0.9638672,-0.1394043,-8.412213,-6.541985,9.61832,-57.04,-64.4,-135.24
0.4562988,1.005615,-0.1162109,-2.312977,1.587786,-0.09160305,-57.04,-64.4,-135.24
0.46875,1.000732,-0.130127,1.633588,7.641222,-6.740458,-57.96,-64.4,-134.32
0.4868164,0.9724121,-0.1706543,-0.7480916,9.916031,-11.65649,-57.96,-64.4,-134.32
0.5053711,0.9555664,-0.2080078,-2.320611,6.885496,-15.03817,-57.96,-64.4,-134.32
0.5124512,0.9528809,-0.2121582,-4.793893,-0.6717557,-19.12977,-57.96,-63.48,-134.32
0.5112305,0.9558105,-0.1723633,-4.931298,2.282443,-25.22901,-57.96,-63.48,-134.32
0.5275879,0.9306641,-0.1940918,-7.51145,0.648855,-30.9542,-57.96,-63.48,-134.32
0.5461426,0.8989258,-0.1967773,-4.51145,0.08396947,-33.12977,-60.72,-63.48,-135.24
0.5595703,0.8798828,-0.1911621,1.526718,-1.412214,-35.67176,-60.72,-63.48,-135.24
0.565918,0.8769531,-0.1765137,-2.679389,-4.59542,-35.65649,-63.48,-64.4,-134.32
0.5791016,0.8869629,-0.1333008,-12.94656,-7.160306,-40.50382,-63.48,-64.4,-134.32
0.5808105,0.8618164,-0.1201172,-2.137405,-5.480916,-40.58015,-63.48,-64.4,-134.32
0.5908203,0.8334961,-0.1052246,2.80916,-2.251908,-38.72519,-67.16,-66.24,-133.4
0.5905762,0.8317871,-0.1203613,-7.076336,-4.450382,-38.49618,-67.16,-66.24,-133.4
0.5817871,0.8408203,-0.1149902,-8.282443,-4.38168,-37.35115,-67.16,-66.24,-133.4
0.581543,0.8286133,-0.1271973,-5.923664,-4.38168,-35.60305,-70.84,-68.08,-133.4
0.5871582,0.7954102,-0.1398926,-4.412214,-8.748092,-31.66412,-70.84,-68.08,-133.4
0.5627441,0.8085938,-0.112793,-10.0,-12.23664,-31.32061,-74.52,-70.84,-132.48
0.5708008,0.7941895,-0.07885742,-13.61069,-10.35878,-31.45802,-74.52,-70.84,-132.48
0.5700684,0.7346191,-0.08276367,-13.01527,-6.335878,-27.00763,-74.52,-70.84,-132.48
0.5649414,0.7026367,-0.08544922,-6.534351,-5.70229,-21.22901,-79.12,-72.68,-130.64
0.560791,0.7126465,-0.09423828,-5.877862,-6.633588,-13.83969,-79.12,-72.68,-130.64
0.5522461,0.6943359,-0.1013184,0.04580153,-1.854962,-7.648855,-79.12,-72.68,-130.64
0.5380859,0.6594238,-0.1159668,5.175572,-0.3129771,-1.167939,-80.96,-74.52,-128.8
0.5373535,0.6650391,-0.105957,2.549618,1.045802,3.503817,-80.96,-74.52,-128.8
0.5546875,0.6916504,-0.09326172,7.122138,2.740458,20.60305,-80.04,-74.52,-128.8
0.5537109,0.7241211,-0.09057617,7.748092,6.725191,26.50382,-79.12,-73.6,-129.72
0.5678711,0.7392578,-0.1013184,2.603053,7.251908,29.25954,-79.12,-73.6,-129.72
0.5715332,0.7807617,-0.08911133,-8.412213,2.709924,31.03053,-79.12,-73.6,-129.72
0.5554199,0.8193359,-0.05810547,-3.664122,0.4122138,33.64885,-77.28,-71.76,-130.64
0.5900879,0.817627,-0.06103516,12.84733,11.15267,34.22137,-77.28,-71.76,-130.64
0.5852051,0.7946777,-0.0703125,21.22137,16.41221,33.07634,-77.28,-71.76,-130.64
0.5913086,0.8156738,-0.08276367,11.48092,15.61832,34.53435,-73.6,-69.92,-130.64
0.5952148,0.84375,-0.07861328,10.50382,19.0,39.70992,-73.6,-69.92,-130.64
0.5900879,0.8771973,-0.1298828,16.82443,23.38168,41.08397,-69.0,-68.08,-132.48
0.5861816,0.8989258,-0.1513672,14.77863,22.98473,38.19847,-69.0,-68.08,-132.48
0.5949707,0.9016113,-0.2053223,18.03817,17.83206,33.56488,-69.0,-68.08,-132.48
0.5830078,0.8918457,-0.1772461,23.64886,16.96183,27.66412,-63.48,-65.32,-133.4
0.5812988,0.8483887,-0.1586914,28.01527,21.39695,27.27481,-63.48,-65.32,-133.4
0.588623,0.8830566,-0.1899414,28.37405,19.60305,27.07634,-63.48,-65.32,-133.4
0.5710449,0.888916,-0.2043457,28.00763,12.0,23.27481,-58.88,-65.32,-135.24
0.5532227,0.8825684,-0.1865234,29.91603,15.25191,19.76336,-58.88,-65.32,-135.24
0.5476074,0.8640137,-0.2004395,26.83969,15.70229,18.1145,-58.88,-65.32,-135.24
0.546875,0.8679199,-0.1962891,20.85496,14.35878,20.40458,-54.28,-65.32,-135.24
0.5205078,0.887207,-0.2070313,15.80153,9.503817,18.38168,-54.28,-65.32,-135.24
0.5080566,0.8764648,-0.220459,17.69466,6.114504,15.07634,-52.44,-65.32,-136.16
0.4997559,0.8637695,-0.1831055,16.10687,9.282443,14.36641,-52.44,-65.32,-136.16
0.4919434,0.8874512,-0.2089844,9.030535,10.1145,12.41221,-52.44,-65.32,-136.16
0.4899902,0.8974609,-0.2392578,5.656488,13.32061,9.969465,-49.68,-64.4,-137.08
0.4880371,0.9265137,-0.239502,5.51145,14.66412,5.374046,-49.68,-64.4,-137.08
0.4858398,0.9106445,-0.2512207,6.839694,16.38168,1.343511,-49.68,-64.4,-137.08
0.4936523,0.9050293,-0.262207,6.442748,12.85496,-2.045802,-49.68,-64.4,-137.08
0.5056152,0.9128418,-0.2770996,1.015267,8.549619,-5.305344,-49.68,-64.4,-137.08
0.505127,0.9064941,-0.2648926,-9.091603,3.717557,-7.061069,-48.76,-62.56,-138.0
0.5061035,0.9248047,-0.2468262,-16.43511,-1.358779,-11.08397,-48.76,-62.56,-138.0
0.5124512,0.9299316,-0.265625,-17.41221,-4.862596,-15.54962,-48.76,-62.56,-138.0
0.5187988,0.925293,-0.2324219,-11.96947,-4.519084,-19.89313,-51.52,-63.48,-137.08
0.5410156,0.9326172,-0.2324219,-12.0916,-1.427481,-25.82443,-51.52,-63.48,-137.08
0.564209,0.9294434,-0.2587891,-13.9542,-1.862595,-28.22137,-51.52,-63.48,-137.08
0.5827637,0.9362793,-0.2512207,-16.1145,-11.9542,-34.8855,-53.36,-62.56,-137.08
0.5773926,0.9311523,-0.2399902,-13.16031,-11.9771,-38.85496,-53.36,-62.56,-137.08
0.5878906,0.9035645,-0.2451172,-13.49618,-12.64122,-41.76336,-58.88,-64.4,-136.16
0.6035156,0.9382324,-0.2446289,-17.62595,-24.9771,-47.87023,-58.88,-64.4,-136.16
0.5952148,0.8806152,-0.1918945,-16.98473,-26.74809,-50.36641,-58.88,-64.4,-136.16
0.6027832,0.8828125,-0.1674805,-14.87786,-27.53435,-54.06107,-64.4,-67.16,-136.16
0.612793,0.8566895,-0.1496582,-12.9084,-24.03053,-54.92366,-64.4,-67.16,-136.16
0.6079102,0.8217773,-0.1218262,-14.52672,-26.18321,-52.56488,-64.4,-67.16,-136.16
0.6171875,0.7932129,-0.1257324,-12.10687,-25.05343,-50.90076,-70.84,-71.76,-132.48
0.5957031,0.7556152,-0.1206055,-12.45038,-24.35878,-45.00763,-70.84,-71.76,-132.48
0.5952148,0.7280273,-0.06787109,-18.92366,-22.0916,-39.36641,-77.28,-76.36,-128.8
0.5844727,0.7106934,-0.07519531,-10.65649,-9.763359,-31.13741,-77.28,-76.36,-128.8
0.5625,0.6782227,-0.06274414,-2.870229,-10.58015,-28.06107,-77.28,-76.36,-128.8
0.5698242,0.6503906,-0.07983398,-8.122137,-7.114504,-21.41221,-80.96,-80.04,-126.96
0.5605469,0.6450195,-0.08032227,-11.80153,-6.053435,-13.07634,-80.96,-80.04,-126.96
0.5546875,0.651123,-0.05126953,-13.22901,-5.068702,-3.465649,-80.96,-80.04,-126.96
0.5610352,0.6391602,-0.07617188,-0.3206107,-1.038168,5.992366,-82.8,-80.96,-125.12
0.5532227,0.6516113,-0.1115723,0.2442748,6.564886,24.0,-82.8,-80.04,-125.12
0.5476074,0.6845703,-0.1118164,1.51145,6.70229,31.39695,-82.8,-80.04,-125.12
0.5522461,0.7346191,-0.1328125,1.496183,7.564886,36.32824,-82.8,-80.04,-125.12
0.5681152,0.7905273,-0.1218262,6.076336,5.725191,35.03053,-80.96,-78.2,-126.96
0.581543,0.8093262,-0.1203613,11.17557,13.19084,33.25954,-80.96,-78.2,-126.96
0.5898438,0.7802734,-0.1044922,22.79389,17.16794,31.94657,-77.28,-75.44,-127.88
0.5996094,0.7685547,-0.1416016,21.99237,18.34351,40.48092,-77.28,-75.44,-127.88
0.5791016,0.838623,-0.1665039,13.81679,12.03053,42.92366,-77.28,-75.44,-127.88
0.5671387,0.9052734,-0.09326172,16.35878,13.30534,37.9084,-71.76,-73.6,-130.64
0.5874023,0.8864746,-0.1010742,33.70992,28.87023,32.73283,-71.76,-73.6,-130.64
0.576416,0.807373,-0.1149902,46.8855,39.93893,33.79389,-71.76,-73.6,-130.64
0.5620117,0.8410645,-0.2016602,31.31298,27.96947,39.25954,-65.32,-71.76,-132.48
0.5532227,0.9140625,-0.1977539,25.44275,25.96947,41.25191,-65.32,-71.76,-132.48
0.5354004,0.9863281,-0.177002,24.0229,27.57252,34.00763,-58.88,-69.92,-134.32
0.5280762,0.9465332,-0.157959,20.23664,30.73282,29.89313,-58.88,-69.92,-134.32
0.5471191,0.9023438,-0.1904297,23.22901,34.26717,24.94657,-58.88,-69.92,-134.32
0.5334473,0.885498,-0.2685547,30.92366,37.70229,26.03053,-55.2,-68.08,-134.32
0.5046387,0.9052734,-0.2807617,22.92366,31.48092,20.06107,-55.2,-68.08,-134.32
0.4873047,0.8959961,-0.2683105,18.9771,25.41221,15.72519,-55.2,-68.08,-134.32
0.510498,0.8859863,-0.2578125,15.9313,23.76336,15.96183,-50.6,-66.24,-136.16
0.4941406,0.8903809,-0.2858887,9.022901,20.36641,13.16794,-50.6,-66.24,-136.16
0.4790039,0.888916,-0.2475586,10.0687,19.92366,11.71756,-49.68,-64.4,-137.08
0.484375,0.9006348,-0.298584,10.08397,19.21374,10.12977,-49.68,-64.4,-137.08
0.4875488,0.911377,-0.2888184,9.702291,15.65649,8.297709,-49.68,-64.4,-137.08
0.4819336,0.9094238,-0.2941895,4.91603,13.87786,5.801527,-48.76,-62.56,-138.0
0.4934082,0.9191895,-0.2907715,-3.10687,6.824428,-1.0,-48.76,-62.56,-138.0
0.4924316,0.8771973,-0.2800293,-7.221374,4.954198,-5.51145,-48.76,-62.56,-138.0
0.5004883,0.8820801,-0.2478027,-11.41221,-0.3129771,-4.091603,-48.76,-62.56,-138.92
0.5224609,0.9086914,-0.25,-18.77099,-2.068702,-5.931298,-48.76,-62.56,-138.92
0.5239258,0.9084473,-0.2724609,-18.15267,-4.78626,-10.29771,-50.6,-61.64,-138.0
0.5412598,0.9077148,-0.2661133,-18.70992,-5.748092,-15.60305,-50.6,-61.64,-138.0
0.5556641,0.9135742,-0.2619629,-19.29771,-8.152672,-20.48855,-50.6,-61.64,-138.0
0.579834,0.9238281,-0.2792969,-20.83969,-11.9542,-25.46565,-52.44,-61.64,-138.0
0.5834961,0.9216309,-0.2644043,-20.05343,-17.9313,-31.29008,-52.44,-61.64,-138.0
0.5908203,0.9279785,-0.2260742,-19.03817,-24.61069,-37.76336,-52.44,-61.64,-138.0
0.6057129,0.9226074,-0.2094727,-19.98473,-28.64886,-44.74809,-57.96,-62.56,-138.0
0.6254883,0.9177246,-0.1772461,-18.45038,-31.90076,-49.63359,-57.96,-62.56,-138.0
0.6315918,0.8820801,-0.130127,-18.0916,-27.71756,-52.30534,-63.48,-67.16,-135.24
0.6269531,0.8522949,-0.1149902,-15.07634,-26.47328,-52.43512,-63.48,-67.16,-135.24
0.6225586,0.8308105,-0.1108398,-10.89313,-25.83206,-50.35878,-63.48,-67.16,-135.24
0.6271973,0.7866211,-0.109375,-8.938931,-24.60305,-48.29008,-70.84,-71.76,-132.48
0.619873,0.7600098,-0.1054688,-9.732824,-25.39695,-46.29008,-70.84,-71.76,-132.48
0.6025391,0.7524414,-0.09423828,-10.80153,-22.9771,-42.26717,-70.84,-71.76,-132.48
0.5961914,0.7236328,-0.07080078,-8.534351,-13.49618,-36.37405,-75.44,-75.44,-129.72
0.5932617,0.7019043,-0.078125,-7.236641,-11.22137,-30.98473,-75.44,-75.44,-129.72
0.5766602,0.6804199,-0.06738281,-6.038168,-9.137404,-25.12977,-79.12,-79.12,-126.96
0.5715332,0.6733398,-0.07617188,-2.656489,-1.526718,-19.43511,-79.12,-79.12,-126.96
0.5681152,0.657959,-0.08007813,-0.8015267,5.091603,-11.8855,-79.12,-79.12,-126.96
0.5615234,0.6489258,-0.09106445,-0.2290076,7.931298,-4.076336,-80.04,-80.96,-126.04
0.565918,0.6630859,-0.1130371,9.427481,10.35878,4.335878,-80.04,-80.96,-126.04
0.5620117,0.6726074,-0.1396484,16.31298,12.62595,10.82443,-80.04,-80.96,-126.04
0.548584,0.730957,-0.1259766,8.526717,15.94656,22.32825,-80.04,-80.04,-127.88
0.5446777,0.7602539,-0.1484375,23.01527,18.27481,25.74046,-77.28,-78.2,-128.8
0.5527344,0.8017578,-0.1833496,31.09924,20.32825,27.64122,-77.28,-78.2,-128.8
0.5610352,0.8081055,-0.1777344,22.77099,15.40458,26.41221,-77.28,-78.2,-128.8
0.5761719,0.8068848,-0.1887207,16.0229,14.84733,25.08397,-71.76,-76.36,-131.56
0.5629883,0.8081055,-0.1826172,17.99237,15.32061,25.34351,-71.76,-76.36,-131.56
0.5739746,0.8059082,-0.1791992,21.51908,13.45038,28.06107,-66.24,-75.44,-132.48
0.5576172,0.831543,-0.197998,17.16794,12.87023,30.32825,-66.24,-75.44,-132.48
0.5717773,0.8398438,-0.1906738,-2.931298,4.099236,30.48855,-66.24,-75.44,-132.48
0.5717773,0.8425293,-0.1755371,-12.0916,2.167939,31.66412,-62.56,-73.6,-133.4
0.5515137,0.8837891,-0.1491699,-12.69466,0.519084,32.63359,-62.56,-73.6,-133.4
0.5358887,0.8928223,-0.1123047,-5.374046,9.832061,31.91603,-62.56,-73.6,-133.4
0.5383301,0.8776855,-0.1318359,7.374046,23.64122,32.42748,-61.64,-73.6,-131.56
0.5310059,0.862793,-0.1806641,17.81679,31.72519,33.25191,-61.64,-73.6,-131.56
0.4978027,0.9311523,-0.2084961,12.17557,24.08397,30.89313,-58.88,-70.84,-132.48
0.4763184,0.9667969,-0.2272949,7.793893,25.10687,26.39695,-58.88,-70.84,-132.48
0.4626465,0.9599609,-0.2585449,10.05344,24.41221,21.53435,-58.88,-70.84,-132.48
