ax,ay,az,gx,gy,gz,mx,my,mz
0.06567383,0.3696289,-0.9121094,0.5954198,0.9007633,-0.3206107,25.76,-136.16,-112.24
0.07324219,0.3691406,-0.9086914,-0.7328244,2.221374,-1.938931,25.76,-136.16,-112.24
0.07788086,0.3710938,-0.9108887,3.129771,4.412214,-1.083969,25.76,-135.24,-112.24
0.07836914,0.3742676,-0.9118652,1.145038,2.167939,-2.114504,25.76,-135.24,-112.24
0.07470703,0.361084,-0.9140625,4.045802,6.091603,-3.061069,25.76,-136.16,-112.24
0.0715332,0.3666992,-0.9213867,3.541985,5.496183,-1.648855,25.76,-136.16,-112.24
0.07495117,0.3735352,-0.9206543,2.89313,3.984733,-0.1450382,25.76,-136.16,-112.24
0.07275391,0.3740234,-0.9069824,0.9083969,0.480916,-2.961832,25.76,-136.16,-112.24
0.07348633,0.3684082,-0.9060059,1.206107,3.068702,-2.251908,25.76,-136.16,-112.24
0.07641602,0.3676758,-0.9189453,0.9236641,3.816794,-0.03816794,25.76,-136.16,-112.24
0.06811523,0.3728027,-0.9143066,2.061069,2.862595,-0.2748091,25.76,-135.24,-112.24
0.06738281,0.3618164,-0.9172363,3.473282,5.435114,-0.4122138,25.76,-135.24,-112.24
0.06787109,0.3564453,-0.9255371,0.7328244,4.763359,0.2061069,25.76,-135.24,-112.24
0.06591797,0.362793,-0.921875,1.740458,4.862596,-0.2290076,25.76,-135.24,-112.24
0.07836914,0.3618164,-0.911377,1.068702,3.916031,0.05343511,25.76,-135.24,-112.24
0.07348633,0.3632813,-0.9169922,2.458015,3.19084,-1.641221,26.68,-136.16,-112.24
0.07250977,0.3557129,-0.9182129,2.358779,3.427481,-0.3816794,26.68,-136.16,-112.24
0.07397461,0.3701172,-0.9089355,0.1145038,3.038168,-0.2061069,26.68,-136.16,-112.24
0.07421875,0.3649902,-0.9111328,1.412214,3.389313,0.1603053,26.68,-135.24,-112.24
0.06835938,0.3652344,-0.9155273,2.496183,2.984733,-1.160305,26.68,-135.24,-112.24
0.07446289,0.3725586,-0.9155273,1.580153,4.335878,0.05343511,25.76,-135.24,-112.24
0.07983398,0.3654785,-0.9174805,1.862595,5.847328,0.4656488,25.76,-135.24,-112.24
0.07592773,0.3686523,-0.9108887,-0.03816794,3.656489,-0.4580153,25.76,-135.24,-112.24
0.07202148,0.3669434,-0.9086914,0.6946565,4.816794,-1.351145,26.68,-136.16,-112.24
0.07226563,0.3684082,-0.9187012,1.961832,5.290076,-1.305344,26.68,-136.16,-112.24
0.07446289,0.3688965,-0.916748,0.4503817,4.015267,-0.6717557,26.68,-136.16,-112.24
0.07202148,0.3649902,-0.9182129,1.740458,4.59542,-0.04580153,26.68,-135.24,-112.24
0.06445313,0.3527832,-0.9152832,0.7862596,5.992366,0.08396947,26.68,-135.24,-112.24
0.06469727,0.3588867,-0.9162598,0.09923664,2.923664,-0.1832061,26.68,-135.24,-112.24
0.06933594,0.3635254,-0.9086914,0.9007633,4.198473,-0.4351145,25.76,-135.24,-112.24
0.06884766,0.3662109,-0.9196777,1.587786,4.557252,0.4732824,25.76,-135.24,-112.24
0.06713867,0.3596191,-0.9199219,2.709924,4.572519,0.1832061,26.68,-135.24,-113.16
0.06982422,0.3647461,-0.9177246,2.618321,4.694656,0.1450382,26.68,-135.24,-113.16
0.07470703,0.3747559,-0.9143066,1.091603,3.251908,-0.08396947,26.68,-135.24,-113.16
0.07666016,0.371582,-0.9067383,0.5954198,1.854962,-0.3816794,26.68,-135.24,-112.24
0.07446289,0.3659668,-0.918457,2.091603,4.557252,-0.3740458,26.68,-135.24,-112.24
0.0690918,0.3583984,-0.9299316,1.450382,3.305344,0.2748091,26.68,-135.24,-112.24
0.06713867,0.3613281,-0.9196777,2.343511,3.954198,1.389313,26.68,-135.24,-112.24
0.06738281,0.3662109,-0.9067383,2.21374,2.549618,-0.05343511,26.68,-135.24,-112.24
0.0690918,0.3657227,-0.9157715,2.183206,4.969466,0.2519084,26.68,-135.24,-112.24
0.07739258,0.3615723,-0.9223633,0.740458,4.412214,1.091603,26.68,-135.24,-112.24
0.08032227,0.3662109,-0.9182129,0.9389313,5.725191,1.328244,26.68,-135.24,-112.24
0.08520508,0.3693848,-0.9091797,2.160305,1.320611,-1.122137,26.68,-135.24,-112.24
0.0769043,0.3662109,-0.918457,2.114504,2.328244,-2.030534,26.68,-135.24,-112.24
0.07055664,0.3671875,-0.9162598,1.290076,1.763359,-2.244275,26.68,-135.24,-112.24
0.07080078,0.3671875,-0.9123535,1.137405,1.229008,-2.862595,26.68,-135.24,-113.16
0.06542969,0.3657227,-0.9116211,3.664122,5.473282,-2.083969,26.68,-135.24,-113.16
0.06835938,0.3654785,-0.9191895,1.045802,5.412214,-1.908397,26.68,-135.24,-112.24
0.07080078,0.3666992,-0.9111328,0.4427481,4.129771,-0.2137404,26.68,-135.24,-112.24
0.06103516,0.3598633,-0.9143066,1.21374,4.725191,-0.3053435,26.68,-135.24,-112.24
0.0703125,0.3618164,-0.9108887,0.9007633,2.389313,-0.1984733,26.68,-135.24,-112.24
0.06298828,0.3640137,-0.9179688,2.419847,3.89313,-2.40458,26.68,-135.24,-112.24
0.06469727,0.3605957,-0.9143066,1.78626,5.030534,-0.9923664,26.68,-135.24,-112.24
0.07250977,0.3637695,-0.9150391,1.870229,5.152672,0.1374046,26.68,-135.24,-112.24
0.06494141,0.3637695,-0.9162598,2.961832,4.755725,0.778626,26.68,-135.24,-112.24
0.07080078,0.3679199,-0.9145508,0.259542,3.778626,0.1984733,26.68,-135.24,-112.24
0.07543945,0.3630371,-0.9125977,1.229008,3.832061,-2.061069,27.6,-135.24,-112.24
0.06982422,0.3664551,-0.9128418,3.0,3.671756,-0.2900764,27.6,-135.24,-112.24
0.05908203,0.3686523,-0.9072266,0.480916,2.557252,-0.1679389,27.6,-135.24,-112.24
0.06811523,0.3701172,-0.9091797,2.48855,3.770992,-0.5496183,26.68,-136.16,-112.24
0.06958008,0.3623047,-0.9191895,1.259542,5.580153,-1.145038,26.68,-136.16,-112.24
0.07348633,0.3623047,-0.9169922,1.053435,4.534351,-2.022901,26.68,-136.16,-112.24
0.07446289,0.3659668,-0.9172363,1.129771,3.580153,-0.259542,26.68,-135.24,-112.24
0.0690918,0.3640137,-0.918457,2.740458,4.045802,-1.603053,26.68,-135.24,-112.24
0.06787109,0.3666992,-0.920166,0.5954198,5.763359,-2.305344,26.68,-135.24,-112.24
0.07080078,0.3652344,-0.9152832,-0.1679389,6.40458,-3.923664,26.68,-135.24,-112.24
0.0715332,0.361084,-0.8933105,0.1068702,5.473282,-4.389313,26.68,-135.24,-112.24
0.06958008,0.3654785,-0.9128418,1.007634,4.442748,-0.3587786,26.68,-136.16,-112.24
0.06225586,0.3686523,-0.9091797,0.4580153,3.770992,-0.7175572,26.68,-136.16,-112.24
0.07080078,0.362793,-0.9226074,1.725191,4.732824,1.160305,26.68,-136.16,-112.24
0.07202148,0.3688965,-0.9182129,-1.51145,3.519084,-0.06870229,25.76,-135.24,-112.24
0.07324219,0.3666992,-0.9050293,1.969466,4.274809,-0.2290076,25.76,-135.24,-112.24
0.07373047,0.3657227,-0.9213867,3.183206,3.587786,-0.832061,25.76,-135.24,-112.24
0.06738281,0.3640137,-0.9057617,3.061069,5.015267,0.09160305,25.76,-135.24,-112.24
0.06958008,0.3708496,-0.9226074,0.1068702,4.900764,1.007634,25.76,-135.24,-112.24
0.0703125,0.3737793,-0.9118652,2.740458,5.717557,0.2137404,26.68,-135.24,-112.24
0.0715332,0.3681641,-0.9128418,1.587786,5.473282,-1.19084,26.68,-135.24,-112.24
0.07446289,0.3642578,-0.9196777,1.137405,3.732824,0.007633588,26.68,-135.24,-112.24
0.06665039,0.3696289,-0.9182129,-1.129771,1.328244,-0.1450382,25.76,-135.24,-112.24
0.0690918,0.3769531,-0.9055176,1.885496,2.59542,-0.4351145,25.76,-135.24,-112.24
0.0715332,0.3652344,-0.9123535,1.778626,4.091603,-1.366412,25.76,-136.16,-112.24
0.05883789,0.3581543,-0.9248047,1.312977,3.48855,0.1603053,25.76,-136.16,-112.24
0.06713867,0.3654785,-0.9013672,2.687023,5.946565,0.5725191,25.76,-136.16,-112.24
0.0703125,0.369873,-0.9130859,2.21374,5.290076,-1.206107,25.76,-135.24,-112.24
0.07055664,0.3669434,-0.918457,1.183206,1.053435,-0.7480916,25.76,-135.24,-112.24
0.07006836,0.3686523,-0.9084473,1.236641,5.70229,0.6564885,25.76,-135.24,-112.24
0.07763672,0.3708496,-0.9086914,0.6030535,3.984733,-0.2977099,26.68,-135.24,-112.24
0.07617188,0.3728027,-0.9135742,1.656489,1.900763,-0.7862596,26.68,-135.24,-112.24
0.0625,0.3693848,-0.9177246,2.267176,3.343511,-0.389313,26.68,-136.16,-112.24
0.06030273,0.3725586,-0.9106445,0.07633588,2.687023,-1.122137,26.68,-136.16,-112.24
0.0625,0.3691406,-0.9221191,2.70229,5.08397,-0.7099237,26.68,-136.16,-112.24
0.06665039,0.3674316,-0.9189453,2.603053,4.282443,0.9694656,26.68,-136.16,-112.24
0.06323242,0.3625488,-0.9040527,2.198473,5.061069,1.274809,26.68,-136.16,-112.24
0.06860352,0.3676758,-0.9145508,2.603053,4.870229,0.4122138,26.68,-136.16,-112.24
0.0715332,0.3691406,-0.9118652,2.007634,4.290076,-0.9389313,26.68,-135.24,-112.24
0.06469727,0.3649902,-0.9174805,1.480916,1.854962,-1.557252,26.68,-135.24,-112.24
0.0637207,0.3664551,-0.9160156,1.709924,2.709924,-1.618321,26.68,-135.24,-112.24
0.06738281,0.3669434,-0.9172363,2.740458,4.175572,-1.21374,26.68,-135.24,-112.24
0.06689453,0.3676758,-0.9189453,3.709924,4.229008,-0.9236641,26.68,-135.24,-112.24
0.06152344,0.3669434,-0.9138184,0.2137404,2.274809,-0.8931297,26.68,-135.24,-112.24
0.06591797,0.3654785,-0.9123535,3.183206,5.38168,0.8015267,26.68,-135.24,-112.24
0.0637207,0.3581543,-0.9211426,4.534351,2.839695,1.541985,26.68,-135.24,-112.24
0.05737305,0.3596191,-0.9260254,-0.09923664,-0.1908397,0.7709923,26.68,-135.24,-112.24
0.01635742,0.3847656,-0.9345703,3.022901,1.114504,-3.030534,26.68,-135.24,-113.16
0.0534668,0.3752441,-0.9050293,3.145038,6.732824,-1.0,26.68,-135.24,-113.16
0.07592773,0.3664551,-0.9133301,3.076336,8.19084,-0.9312977,26.68,-135.24,-113.16
0.07177734,0.3552246,-0.9238281,-0.2290076,1.885496,-0.01526718,27.6,-135.24,-113.16
0.06079102,0.3684082,-0.8984375,-0.07633588,4.664122,-0.4274809,27.6,-135.24,-113.16
0.05932617,0.369873,-0.9172363,2.541985,4.206107,-2.381679,26.68,-135.24,-112.24
0.0715332,0.3605957,-0.9199219,2.236641,4.145038,1.396947,26.68,-135.24,-112.24
0.06176758,0.3608398,-0.9101563,2.129771,5.969466,1.51145,26.68,-135.24,-112.24
0.0612793,0.3679199,-0.9145508,1.40458,6.229008,0.2977099,26.68,-135.24,-112.24
0.07177734,0.3605957,-0.9208984,1.564886,5.503817,0.480916,26.68,-135.24,-112.24
0.07714844,0.3671875,-0.9199219,0.1679389,4.175572,0.07633588,26.68,-135.24,-112.24
0.07128906,0.3652344,-0.911377,3.496183,4.267176,-2.290076,26.68,-135.24,-112.24
0.05883789,0.3671875,-0.9169922,3.030534,3.984733,-1.442748,26.68,-135.24,-112.24
0.06323242,0.364502,-0.9179688,1.732824,6.038168,1.229008,26.68,-135.24,-113.16
0.06323242,0.3620605,-0.9125977,1.801527,5.076336,-0.2137404,26.68,-135.24,-113.16
0.06591797,0.362793,-0.9123535,0.9770992,3.503817,-1.671756,26.68,-135.24,-113.16
0.05981445,0.371582,-0.9123535,0.3740458,3.480916,-0.7175572,26.68,-135.24,-112.24
0.07421875,0.3757324,-0.9130859,0.8625955,4.732824,-1.152672,26.68,-135.24,-112.24
0.06152344,0.3674316,-0.9101563,1.526718,4.259542,0.1679389,26.68,-135.24,-112.24
0.06567383,0.364502,-0.9118652,4.114504,7.030534,1.366412,26.68,-135.24,-113.16
0.0625,0.3632813,-0.9157715,2.0,6.580153,0.5877862,26.68,-135.24,-113.16
0.06713867,0.3583984,-0.9177246,1.038168,4.145038,0.05343511,26.68,-135.24,-113.16
0.05981445,0.3679199,-0.9152832,-0.09160305,1.175573,-0.04580153,26.68,-135.24,-113.16
0.06640625,0.3730469,-0.9111328,0.6412213,3.580153,-0.2824428,26.68,-135.24,-113.16
0.06396484,0.3703613,-0.916748,1.816794,4.984733,0.1221374,26.68,-135.24,-113.16
0.06860352,0.3666992,-0.9150391,3.580153,6.931298,0.2977099,26.68,-135.24,-113.16
0.06542969,0.3586426,-0.9213867,3.694656,3.961832,0.1450382,26.68,-135.24,-113.16
0.06347656,0.3693848,-0.9165039,2.045802,4.633588,0.1679389,26.68,-135.24,-112.24
0.06469727,0.3679199,-0.9145508,2.870229,5.740458,-0.3129771,26.68,-135.24,-112.24
0.06787109,0.3632813,-0.9150391,2.610687,4.290076,-0.4427481,26.68,-135.24,-112.24
0.06396484,0.3615723,-0.911377,2.70229,4.305344,0.01526718,26.68,-135.24,-112.24
0.06713867,0.3686523,-0.9145508,0.4503817,4.183206,0.1526718,26.68,-135.24,-112.24
0.06811523,0.3662109,-0.9194336,0.870229,5.89313,-1.229008,26.68,-135.24,-113.16
0.07006836,0.3701172,-0.9082031,1.229008,4.259542,-1.427481,26.68,-135.24,-113.16
0.06762695,0.3725586,-0.9213867,2.78626,4.030534,0.8015267,26.68,-135.24,-113.16
0.06347656,0.3720703,-0.9169922,0.3816794,3.038168,0.3435115,26.68,-135.24,-113.16
0.06420898,0.3688965,-0.9133301,1.312977,3.80916,-0.4198473,26.68,-135.24,-113.16
0.06738281,0.3613281,-0.9086914,1.045802,6.251908,-0.5648855,26.68,-135.24,-112.24
0.06762695,0.3637695,-0.9223633,1.877863,5.305344,-0.8473283,26.68,-135.24,-112.24
0.06665039,0.3664551,-0.9177246,0.9694656,2.358779,-0.2442748,26.68,-135.24,-112.24
0.05761719,0.3664551,-0.916748,1.839695,4.236641,-1.152672,26.68,-135.24,-112.24
0.06494141,0.3613281,-0.9221191,2.419847,6.931298,-0.740458,26.68,-135.24,-112.24
0.06201172,0.3703613,-0.9230957,0.8854962,2.664122,-0.2824428,26.68,-135.24,-112.24
0.06030273,0.3728027,-0.9133301,0.7938931,4.740458,0.8244275,26.68,-135.24,-113.16
0.05786133,0.3701172,-0.9160156,1.435114,2.885496,-0.2061069,26.68,-135.24,-113.16
0.06103516,0.3657227,-0.9169922,2.358779,5.862596,0.1374046,26.68,-135.24,-112.24
0.07128906,0.3596191,-0.9147949,2.603053,5.229008,-0.2977099,26.68,-135.24,-112.24
0.06201172,0.3693848,-0.9150391,2.022901,4.320611,-0.2671756,26.68,-135.24,-112.24
0.06811523,0.3615723,-0.9145508,2.320611,5.816794,-0.09923664,26.68,-135.24,-112.24
0.07177734,0.3601074,-0.9177246,1.503817,3.007634,-0.5725191,25.76,-135.24,-112.24
0.07006836,0.3632813,-0.9086914,0.1145038,4.030534,-0.8244275,25.76,-135.24,-112.24
0.06762695,0.369873,-0.9182129,2.015267,7.015267,-0.7328244,25.76,-135.24,-112.24
0.06860352,0.3662109,-0.9162598,1.465649,4.824428,-0.5572519,25.76,-135.24,-113.16
0.07543945,0.3625488,-0.9138184,2.419847,6.351145,-0.1984733,25.76,-135.24,-113.16
0.06958008,0.3703613,-0.9174805,2.206107,5.564886,0.5038168,25.76,-135.24,-113.16
0.07470703,0.3654785,-0.9169922,2.274809,5.259542,0.6717557,25.76,-135.24,-113.16
0.06982422,0.3679199,-0.9050293,1.221374,3.763359,-0.3969466,25.76,-135.24,-113.16
0.06640625,0.3671875,-0.9182129,1.099237,2.580153,-0.4045802,26.68,-135.24,-113.16
0.06567383,0.3652344,-0.907959,2.160305,3.549618,-0.389313,26.68,-135.24,-113.16
0.06884766,0.3662109,-0.9257813,2.770992,5.10687,-0.007633588,26.68,-135.24,-113.16
0.06860352,0.3676758,-0.9160156,1.030534,5.114504,0.4732824,25.76,-135.24,-113.16
0.06616211,0.3676758,-0.9118652,1.099237,4.290076,-0.9541985,25.76,-135.24,-113.16
0.06567383,0.371582,-0.9055176,2.274809,4.221374,0.07633588,25.76,-135.24,-113.16
0.06860352,0.3728027,-0.9099121,0.8091603,4.732824,-1.580153,26.68,-135.24,-112.24
0.06982422,0.3632813,-0.9145508,2.908397,2.793893,-0.4122138,26.68,-135.24,-112.24
0.06689453,0.3632813,-0.9245605,2.175573,3.740458,0.1145038,26.68,-135.24,-113.16
0.06567383,0.3664551,-0.9189453,2.374046,7.038168,0.2366412,26.68,-135.24,-113.16
0.0769043,0.3601074,-0.9138184,0.4122138,4.51145,-0.4885496,26.68,-135.24,-113.16
0.0703125,0.3603516,-0.9042969,2.610687,4.19084,0.2824428,26.68,-135.24,-112.24
0.06713867,0.3669434,-0.9140625,1.366412,2.351145,-0.2519084,26.68,-135.24,-112.24
0.06958008,0.3706055,-0.9106445,0.01526718,2.427481,0.1145038,26.68,-135.24,-112.24
0.0625,0.3642578,-0.916748,3.29771,4.839694,0.1984733,26.68,-135.24,-112.24
0.06054688,0.3674316,-0.923584,0.2366412,3.870229,-0.4961832,26.68,-135.24,-112.24
0.06665039,0.3674316,-0.9204102,2.641221,3.473282,-0.5801527,26.68,-135.24,-112.24
0.06958008,0.3701172,-0.9116211,1.10687,3.992366,-0.2748091,26.68,-135.24,-112.24
0.06201172,0.3701172,-0.9155273,1.038168,3.007634,-0.05343511,26.68,-135.24,-112.24
0.06591797,0.3676758,-0.9133301,1.633588,4.648855,0.5419847,26.68,-135.24,-112.24
0.06030273,0.3654785,-0.9221191,1.061069,3.709924,-0.04580153,26.68,-135.24,-112.24
0.06201172,0.3635254,-0.9172363,0.9083969,4.145038,0.480916,26.68,-135.24,-112.24
0.05981445,0.3664551,-0.9121094,2.015267,4.427481,-1.007634,26.68,-135.24,-113.16
0.06298828,0.3642578,-0.911377,1.396947,4.259542,-0.7480916,26.68,-135.24,-113.16
0.07641602,0.364502,-0.9145508,2.267176,5.038168,0.1908397,25.76,-135.24,-113.16
0.06518555,0.3676758,-0.9157715,2.29771,3.374046,-0.1832061,25.76,-135.24,-113.16
0.06567383,0.3642578,-0.9165039,0.2900764,2.534351,-0.1603053,25.76,-135.24,-113.16
0.06396484,0.364502,-0.9121094,0.4427481,3.832061,-0.3587786,26.68,-135.24,-113.16
0.06811523,0.3657227,-0.9160156,1.557252,4.335878,-0.1984733,26.68,-135.24,-113.16
0.07104492,0.3620605,-0.9160156,1.244275,2.961832,0.6412213,26.68,-135.24,-113.16
0.06396484,0.3669434,-0.9123535,2.022901,3.061069,1.389313,26.68,-135.24,-112.24
0.06665039,0.3696289,-0.9111328,1.259542,2.801527,0.2977099,26.68,-135.24,-112.24
0.06787109,0.3635254,-0.9143066,2.877863,4.343512,0.3664122,26.68,-135.24,-112.24
0.06665039,0.3625488,-0.9086914,0.2442748,3.21374,-0.610687,26.68,-135.24,-112.24
0.06567383,0.3725586,-0.9135742,2.358779,4.305344,0.1374046,26.68,-135.24,-112.24
0.06542969,0.3740234,-0.9108887,1.564886,3.610687,-1.458015,26.68,-135.24,-112.24
0.06201172,0.362793,-0.9165039,2.137405,4.351145,-1.320611,26.68,-135.24,-112.24
0.07055664,0.3549805,-0.9206543,0.2137404,3.335878,0.08396947,26.68,-135.24,-112.24
0.0612793,0.3649902,-0.9140625,1.21374,3.839695,-0.03053435,26.68,-135.24,-112.24
0.05908203,0.3618164,-0.9116211,2.198473,3.801527,-1.320611,26.68,-135.24,-112.24
0.06835938,0.3679199,-0.9101563,1.961832,3.061069,0.1908397,26.68,-135.24,-112.24
0.06591797,0.3671875,-0.9099121,2.572519,3.366412,0.08396947,26.68,-135.24,-112.24
0.06396484,0.3659668,-0.9174805,4.007634,5.70229,0.2137404,27.6,-135.24,-112.24
0.06005859,0.3662109,-0.9172363,0.7938931,4.259542,-0.351145,27.6,-135.24,-112.24
0.06079102,0.3723145,-0.9172363,0.2213741,3.183206,-0.1221374,26.68,-135.24,-112.24
0.06494141,0.3710938,-0.9172363,1.473282,2.877863,-0.4732824,26.68,-135.24,-112.24
0.06469727,0.3652344,-0.9160156,1.618321,5.030534,-0.740458,26.68,-135.24,-112.24
0.06274414,0.3613281,-0.9243164,4.480916,7.419847,-0.3129771,26.68,-135.24,-112.24
0.0612793,0.3642578,-0.9311523,1.427481,3.938931,1.099237,26.68,-135.24,-112.24
0.0612793,0.3781738,-0.907959,1.343511,4.48855,1.267176,26.68,-135.24,-112.24
0.06713867,0.3684082,-0.9101563,2.717557,3.320611,-0.5496183,26.68,-135.24,-112.24
0.06445313,0.3623047,-0.9152832,3.816794,6.099236,-0.480916,26.68,-135.24,-112.24
0.06542969,0.355957,-0.9240723,3.229008,3.183206,-0.7633588,26.68,-135.24,-112.24
0.0703125,0.3637695,-0.9194336,1.030534,2.80916,-0.1832061,26.68,-135.24,-112.24
0.06176758,0.3635254,-0.9165039,4.19084,2.580153,-1.854962,26.68,-135.24,-112.24
0.0625,0.3596191,-0.9118652,1.847328,2.847328,-3.007634,27.6,-135.24,-112.24
0.0612793,0.3669434,-0.9099121,0.5343512,1.862595,-2.923664,27.6,-135.24,-112.24
0.06225586,0.3674316,-0.9135742,0.4885496,0.6946565,-2.015267,27.6,-135.24,-112.24
0.06054688,0.3730469,-0.9150391,0.6259542,1.496183,-0.5954198,27.6,-135.24,-113.16
0.06201172,0.369873,-0.9089355,2.679389,3.29771,-0.04580153,27.6,-135.24,-113.16
0.05615234,0.3620605,-0.9162598,1.19084,6.206107,-0.3129771,27.6,-135.24,-112.24
0.05688477,0.3676758,-0.9196777,1.763359,6.572519,1.259542,27.6,-135.24,-112.24
0.06494141,0.3754883,-0.9106445,-0.08396947,4.61832,1.572519,27.6,-135.24,-112.24
0.05664063,0.375,-0.9064941,0.1755725,3.732824,1.877863,27.6,-135.24,-112.24
0.05639648,0.364502,-0.9116211,1.206107,5.374046,0.2977099,27.6,-135.24,-112.24
0.05078125,0.3549805,-0.9196777,2.305344,5.610687,0.4198473,27.6,-135.24,-112.24
0.05371094,0.3503418,-0.9333496,1.59542,7.244275,2.312977,27.6,-135.24,-113.16
0.05834961,0.3613281,-0.9165039,1.167939,3.740458,0.7022901,27.6,-135.24,-113.16
0.05419922,0.3544922,-0.9123535,1.664122,2.916031,-0.6946565,27.6,-135.24,-112.24
0.05395508,0.359375,-0.9296875,2.40458,5.946565,0.7938931,27.6,-135.24,-112.24
0.0612793,0.3676758,-0.9125977,0.832061,4.160306,1.916031,27.6,-135.24,-112.24
0.05957031,0.3684082,-0.909668,1.801527,3.068702,0.4274809,27.6,-135.24,-112.24
0.05908203,0.3747559,-0.9138184,1.045802,1.030534,-1.290076,27.6,-135.24,-112.24
0.05151367,0.3669434,-0.9123535,2.282443,4.641222,-2.061069,27.6,-135.24,-112.24
0.05859375,0.3640137,-0.9147949,3.038168,4.648855,-0.007633588,27.6,-135.24,-112.24
0.06665039,0.3671875,-0.9160156,3.419847,3.496183,-0.2137404,27.6,-135.24,-112.24
0.05786133,0.369873,-0.9226074,-0.129771,1.984733,-0.2290076,27.6,-135.24,-112.24
0.05957031,0.3676758,-0.9157715,1.022901,4.694656,1.854962,27.6,-135.24,-112.24
0.0703125,0.359375,-0.9162598,1.061069,5.587786,2.427481,27.6,-135.24,-112.24
0.06713867,0.3535156,-0.9162598,2.015267,4.664122,2.412214,27.6,-135.24,-112.24
0.07446289,0.3662109,-0.9177246,1.641221,4.549618,-0.2900764,27.6,-135.24,-112.24
0.07177734,0.3632813,-0.9243164,2.396947,3.335878,-0.1374046,27.6,-135.24,-112.24
0.06323242,0.3608398,-0.9216309,1.526718,4.396946,-0.4274809,27.6,-135.24,-112.24
0.05810547,0.362793,-0.9155273,3.152672,4.954198,-1.70229,27.6,-135.24,-112.24
0.06103516,0.3657227,-0.9133301,2.290076,3.442748,-2.259542,27.6,-135.24,-112.24
0.0625,0.3669434,-0.9116211,4.969466,5.992366,-1.992366,27.6,-135.24,-112.24
0.05541992,0.3620605,-0.9309082,4.465649,4.259542,-3.40458,27.6,-135.24,-112.24
0.0480957,0.3588867,-0.9284668,3.717557,4.610687,-1.419847,27.6,-135.24,-113.16
0.05126953,0.361084,-0.9104004,2.091603,2.244275,-1.503817,27.6,-135.24,-113.16
0.05175781,0.3605957,-0.9160156,0.8396947,2.335878,-1.10687,27.6,-135.24,-113.16
0.06445313,0.3552246,-0.9204102,3.282443,5.221374,2.076336,28.52,-135.24,-113.16
0.06811523,0.348877,-0.918457,1.648855,2.48855,-0.4656488,27.6,-134.32,-112.24
0.06054688,0.3520508,-0.925293,2.374046,3.870229,-1.503817,27.6,-134.32,-112.24
0.06298828,0.3630371,-0.9179688,1.717557,2.801527,-0.6183206,28.52,-134.32,-113.16
0.07226563,0.3637695,-0.9140625,1.053435,5.282443,-0.4427481,28.52,-134.32,-113.16
0.06665039,0.3608398,-0.9174805,1.709924,3.755725,-1.320611,28.52,-134.32,-113.16
0.05175781,0.3601074,-0.9208984,1.946565,6.61832,-0.9694656,28.52,-135.24,-112.24
0.05517578,0.3615723,-0.916748,2.122137,6.389313,-0.4732824,28.52,-135.24,-112.24
0.06835938,0.3540039,-0.9221191,2.091603,5.145038,-0.6030535,28.52,-135.24,-112.24
0.05566406,0.3552246,-0.923584,-0.389313,1.954198,-2.343511,28.52,-134.32,-113.16
0.04858398,0.359375,-0.9211426,1.80916,3.022901,-1.244275,28.52,-134.32,-113.16
0.04736328,0.3623047,-0.9147949,2.022901,5.824428,-0.519084,28.52,-134.32,-113.16
0.05761719,0.3613281,-0.9250488,0.8473283,5.145038,0.09923664,28.52,-134.32,-113.16
0.06005859,0.3574219,-0.9257813,0.4961832,6.244275,1.389313,28.52,-134.32,-113.16
0.05688477,0.3591309,-0.9182129,-0.3587786,3.793893,1.305344,28.52,-134.32,-113.16
0.0703125,0.3654785,-0.9123535,1.549618,3.251908,0.1374046,28.52,-134.32,-113.16
0.05175781,0.3591309,-0.9194336,2.625954,4.48855,-1.358779,28.52,-134.32,-113.16
0.05273438,0.3562012,-0.9250488,0.4122138,2.992366,-0.7709923,28.52,-134.32,-113.16
0.05859375,0.3566895,-0.9160156,1.664122,4.366412,-0.2366412,28.52,-134.32,-113.16
0.05664063,0.3562012,-0.9125977,1.854962,2.70229,-0.7251908,28.52,-134.32,-113.16
0.05786133,0.3554688,-0.918457,1.366412,2.557252,-0.9236641,27.6,-135.24,-112.24
0.06030273,0.3581543,-0.9152832,1.610687,3.59542,0.1374046,27.6,-135.24,-112.24
0.06079102,0.3513184,-0.9272461,1.007634,4.061069,0.8091603,27.6,-134.32,-113.16
0.05981445,0.3591309,-0.9169922,-0.08396947,4.282443,0.7633588,27.6,-134.32,-113.16
0.06323242,0.3642578,-0.9199219,0.5114504,6.679389,1.496183,27.6,-134.32,-113.16
0.0703125,0.355957,-0.9101563,1.618321,3.175573,-1.526718,27.6,-134.32,-113.16
0.06713867,0.3505859,-0.920166,5.40458,4.229008,-2.419847,27.6,-134.32,-113.16
0.05761719,0.3579102,-0.9260254,2.076336,3.679389,-1.801527,27.6,-134.32,-113.16
0.05444336,0.3613281,-0.9267578,0.1832061,5.152672,0.480916,27.6,-135.24,-113.16
0.06494141,0.3642578,-0.9165039,0.6183206,6.709924,0.5267176,27.6,-135.24,-113.16
0.06860352,0.3659668,-0.9160156,-0.8396947,5.076336,-0.3969466,27.6,-134.32,-113.16
0.06518555,0.3666992,-0.9165039,-0.8015267,5.740458,-0.9160305,27.6,-134.32,-113.16
0.0637207,0.3620605,-0.909668,1.412214,2.748092,-0.7251908,27.6,-134.32,-113.16
0.05883789,0.3603516,-0.9155273,3.824427,5.282443,0.02290076,27.6,-135.24,-113.16
0.06054688,0.3657227,-0.9194336,0.9923664,7.061069,0.5038168,27.6,-135.24,-113.16
0.06152344,0.3505859,-0.921875,-0.259542,4.78626,0.2671756,27.6,-135.24,-113.16
0.05957031,0.3540039,-0.9133301,-0.832061,4.091603,1.10687,27.6,-135.24,-113.16
0.06640625,0.3676758,-0.9135742,1.175573,4.419847,1.122137,27.6,-135.24,-113.16
0.06860352,0.364502,-0.9091797,0.5114504,3.580153,0.4274809,27.6,-135.24,-112.24
0.06494141,0.3510742,-0.9165039,2.877863,5.061069,0.9770992,27.6,-135.24,-112.24
0.05981445,0.3571777,-0.9177246,1.412214,6.045802,0.7099237,27.6,-135.24,-112.24
0.0612793,0.3735352,-0.9228516,-0.3435115,3.984733,0.3969466,26.68,-135.24,-113.16
0.06225586,0.3623047,-0.9101563,0.07633588,3.954198,-0.6030535,26.68,-135.24,-113.16
0.05786133,0.3654785,-0.9221191,0.480916,4.816794,-0.2519084,26.68,-135.24,-113.16
0.06860352,0.3681641,-0.9208984,-0.1832061,4.61832,1.160305,26.68,-135.24,-112.24
0.06713867,0.362793,-0.9082031,0.09923664,4.290076,0.1603053,26.68,-135.24,-112.24
0.07421875,0.3598633,-0.9111328,0.8244275,5.992366,-0.7633588,26.68,-135.24,-112.24
0.07470703,0.3586426,-0.9350586,1.10687,3.763359,0.07633588,26.68,-135.24,-112.24
0.06958008,0.3586426,-0.9123535,0.5419847,1.763359,-0.3969466,26.68,-135.24,-112.24
0.06567383,0.3620605,-0.9116211,2.015267,1.923664,-0.4274809,26.68,-135.24,-112.24
0.06494141,0.3618164,-0.9204102,0.9847328,4.099236,-0.2671756,26.68,-135.24,-113.16
0.06665039,0.3618164,-0.9191895,0.6412213,3.335878,-0.02290076,26.68,-135.24,-113.16
0.06738281,0.3635254,-0.9130859,1.351145,5.221374,0.2671756,26.68,-135.24,-113.16
0.06958008,0.3620605,-0.90625,0.7633588,4.282443,-0.6335878,27.6,-135.24,-112.24
0.06591797,0.357666,-0.9172363,3.320611,3.114504,0.351145,27.6,-135.24,-112.24
0.05859375,0.3630371,-0.9208984,0.9923664,4.961832,1.519084,27.6,-135.24,-112.24
0.05810547,0.3713379,-0.920166,-0.6564885,4.89313,1.938931,26.68,-135.24,-112.24
0.06787109,0.3642578,-0.9121094,-0.2442748,5.549618,1.603053,26.68,-135.24,-112.24
0.07080078,0.3571777,-0.9123535,1.122137,2.580153,-0.1450382,26.68,-135.24,-112.24
0.06762695,0.3632813,-0.9143066,3.419847,2.755725,-1.610687,26.68,-135.24,-112.24
0.06201172,0.3647461,-0.9123535,4.21374,4.633588,-0.8625955,26.68,-135.24,-112.24
0.06274414,0.3618164,-0.9226074,1.679389,4.038168,-0.1679389,26.68,-135.24,-112.24
0.07470703,0.3657227,-0.9150391,1.412214,4.114504,0.5343512,26.68,-135.24,-112.24
0.07275391,0.3522949,-0.9116211,2.78626,-0.09160305,0.4045802,26.68,-135.24,-112.24
0.0546875,0.3562012,-0.9216309,1.48855,2.793893,-1.122137,26.68,-135.24,-112.24
0.06445313,0.3684082,-0.9199219,1.396947,3.320611,-0.5114504,26.68,-135.24,-112.24
0.06762695,0.3710938,-0.9145508,1.587786,1.183206,-0.5954198,26.68,-135.24,-112.24
0.06176758,0.3623047,-0.9189453,1.900763,2.618321,0.1755725,26.68,-135.24,-112.24
0.05688477,0.3691406,-0.9169922,2.061069,3.21374,-0.740458,26.68,-135.24,-112.24
0.06079102,0.3647461,-0.9108887,1.89313,1.847328,-0.2824428,27.6,-135.24,-112.24
0.06420898,0.3603516,-0.9211426,3.229008,4.91603,0.5419847,27.6,-135.24,-112.24
0.06420898,0.3571777,-0.9160156,2.48855,3.244275,0.480916,27.6,-135.24,-112.24
0.05395508,0.3581543,-0.9206543,1.648855,3.053435,-0.03053435,27.6,-135.24,-112.24
0.05957031,0.3630371,-0.9118652,2.961832,3.427481,-0.1145038,27.6,-135.24,-112.24
0.06689453,0.357666,-0.9204102,0.9160305,3.160305,-0.8244275,27.6,-135.24,-112.24
0.0612793,0.3574219,-0.9160156,0.2137404,4.519084,0.1603053,27.6,-135.24,-112.24
0.06347656,0.364502,-0.9187012,1.793893,3.900763,-0.1374046,27.6,-135.24,-112.24
0.06616211,0.3608398,-0.9147949,1.259542,3.801527,-1.824428,27.6,-135.24,-112.24
0.05932617,0.359375,-0.9147949,1.847328,6.549618,-0.9923664,27.6,-135.24,-112.24
0.06274414,0.3637695,-0.9267578,1.335878,4.08397,-0.1755725,27.6,-135.24,-112.24
0.06274414,0.3562012,-0.9055176,1.877863,4.854962,-0.1908397,27.6,-135.24,-112.24
0.05883789,0.359375,-0.9157715,0.9465649,3.244275,-1.572519,27.6,-135.24,-112.24
0.05395508,0.3637695,-0.9128418,0.6335878,3.709924,-1.877863,27.6,-135.24,-112.24
0.06176758,0.3579102,-0.920166,2.725191,4.419847,0.3740458,27.6,-135.24,-112.24
0.05786133,0.3630371,-0.9196777,1.633588,4.587786,0.9389313,27.6,-135.24,-112.24
0.0637207,0.3603516,-0.9243164,0.2137404,4.122138,-0.09160305,27.6,-135.24,-112.24
0.0637207,0.3591309,-0.9228516,-0.1526718,1.534351,-0.2671756,27.6,-135.24,-112.24
0.06469727,0.3637695,-0.9228516,0.648855,4.847328,0.3282443,27.6,-135.24,-112.24
0.06054688,0.3632813,-0.9169922,1.824428,5.503817,0.1755725,27.6,-135.24,-112.24
0.06152344,0.3613281,-0.9143066,2.244275,6.335878,-2.244275,27.6,-135.24,-112.24
0.06591797,0.3564453,-0.9189453,1.870229,3.19084,0.0,26.68,-135.24,-112.24
0.06567383,0.3581543,-0.9245605,0.2061069,3.374046,-0.351145,26.68,-135.24,-112.24
0.06860352,0.3613281,-0.9160156,2.129771,3.442748,-1.671756,26.68,-135.24,-112.24
0.06030273,0.3605957,-0.9106445,2.465649,4.015267,-1.381679,26.68,-135.24,-112.24
0.07250977,0.3654785,-0.9187012,2.328244,3.877863,0.8091603,26.68,-135.24,-112.24
0.06469727,0.3652344,-0.9189453,2.458015,4.923664,-1.206107,26.68,-135.24,-112.24
0.06054688,0.3608398,-0.9118652,2.053435,4.664122,-1.343511,27.6,-135.24,-112.24
0.05737305,0.3642578,-0.9213867,2.480916,4.015267,0.4351145,27.6,-135.24,-112.24
0.06420898,0.3649902,-0.9145508,3.274809,5.412214,-0.04580153,27.6,-136.16,-112.24
0.06152344,0.3583984,-0.9157715,0.519084,4.152672,-1.076336,27.6,-136.16,-112.24
0.06274414,0.3635254,-0.9182129,0.7175572,4.480916,-0.961832,27.6,-135.24,-112.24
0.06347656,0.3552246,-0.9248047,0.3664122,3.687023,0.2748091,27.6,-135.24,-112.24
0.05859375,0.3605957,-0.9147949,1.80916,4.625954,1.961832,27.6,-135.24,-112.24
0.06616211,0.3666992,-0.9177246,1.763359,5.19084,0.007633588,27.6,-135.24,-112.24
0.06494141,0.3603516,-0.9274902,0.4274809,4.267176,-0.7557252,27.6,-135.24,-112.24
0.06323242,0.3608398,-0.9216309,1.740458,4.343512,-0.04580153,27.6,-135.24,-112.24
0.0637207,0.3681641,-0.9057617,4.08397,5.526718,-0.3664122,27.6,-135.24,-112.24
0.06323242,0.359375,-0.9189453,3.358779,4.732824,-1.496183,27.6,-135.24,-112.24
0.05932617,0.3625488,-0.9179688,1.938931,3.053435,-1.671756,27.6,-135.24,-112.24
0.05761719,0.3625488,-0.9182129,1.938931,3.916031,-0.9007633,27.6,-135.24,-112.24
0.05859375,0.3659668,-0.9165039,1.496183,5.374046,-0.2061069,27.6,-134.32,-112.24
0.06103516,0.3598633,-0.9191895,0.8015267,4.236641,-0.9770992,27.6,-134.32,-112.24
0.05859375,0.3586426,-0.9162598,2.282443,3.938931,0.8015267,27.6,-134.32,-112.24
0.06103516,0.3652344,-0.916748,1.251908,5.61832,0.9770992,27.6,-135.24,-113.16
0.06152344,0.3674316,-0.9138184,0.1450382,3.778626,-0.1374046,27.6,-135.24,-113.16
0.05981445,0.3549805,-0.9223633,-0.05343511,4.259542,0.1984733,27.6,-135.24,-112.24
0.05810547,0.3581543,-0.9189453,0.480916,4.908397,0.7328244,27.6,-135.24,-112.24
0.07006836,0.3659668,-0.9182129,1.328244,5.351145,0.4961832,27.6,-135.24,-112.24
0.07202148,0.3615723,-0.9121094,1.290076,3.778626,-1.427481,27.6,-135.24,-112.24
0.06347656,0.3596191,-0.9145508,2.0,3.435115,-0.1908397,27.6,-135.24,-112.24
0.0637207,0.3635254,-0.9111328,1.725191,4.267176,-0.1984733,27.6,-135.24,-112.24
0.07177734,0.3623047,-0.9140625,1.969466,5.076336,-0.4427481,27.6,-135.24,-113.16
0.06201172,0.3547363,-0.9187012,2.610687,3.007634,0.1221374,27.6,-135.24,-113.16
0.06176758,0.3632813,-0.9177246,1.29771,2.40458,-0.2061069,27.6,-135.24,-112.24
0.06665039,0.3688965,-0.9150391,2.366412,2.045802,-0.9083969,27.6,-135.24,-112.24
0.06420898,0.3625488,-0.9155273,2.450382,4.167939,-1.534351,27.6,-135.24,-112.24
0.06103516,0.3625488,-0.920166,2.0,5.160306,-0.5801527,27.6,-135.24,-112.24
0.05810547,0.3625488,-0.9135742,0.1984733,4.473282,-0.3358779,27.6,-135.24,-112.24
0.06689453,0.361084,-0.9174805,2.335878,6.198473,-0.3740458,27.6,-135.24,-112.24
0.06933594,0.3605957,-0.9106445,2.129771,5.145038,-0.8931297,26.68,-135.24,-112.24
0.05981445,0.3581543,-0.9213867,2.412214,4.251908,0.2519084,26.68,-135.24,-112.24
0.05883789,0.3674316,-0.9196777,0.740458,3.267176,-0.4503817,27.6,-135.24,-112.24
0.06323242,0.3676758,-0.9116211,1.0,4.755725,-0.5572519,27.6,-135.24,-112.24
0.06762695,0.361084,-0.9196777,2.755725,4.114504,0.2748091,27.6,-135.24,-112.24
0.06347656,0.3591309,-0.9172363,1.396947,3.664122,-0.1832061,27.6,-135.24,-112.24
0.06176758,0.3647461,-0.9165039,2.694656,3.496183,-0.4427481,27.6,-135.24,-112.24
0.0703125,0.3623047,-0.9130859,1.0,2.832061,-1.40458,27.6,-135.24,-112.24
0.06079102,0.3625488,-0.9150391,0.4656488,3.725191,-1.198473,27.6,-135.24,-112.24
0.06079102,0.362793,-0.9223633,0.9083969,3.435115,-0.1908397,27.6,-135.24,-112.24
0.06005859,0.3647461,-0.9138184,0.8854962,3.801527,-0.9312977,27.6,-135.24,-112.24
0.06054688,0.3613281,-0.9223633,0.4656488,3.450382,-0.5267176,27.6,-135.24,-112.24
0.0559082,0.3605957,-0.9189453,1.534351,3.618321,1.015267,27.6,-135.24,-112.24
0.05419922,0.3657227,-0.9174805,1.725191,6.656488,1.206107,27.6,-135.24,-112.24
0.06713867,0.3671875,-0.9250488,1.221374,6.442748,1.251908,27.6,-135.24,-112.24
0.07055664,0.361084,-0.911377,1.717557,4.412214,-0.1679389,27.6,-135.24,-112.24
0.06542969,0.3601074,-0.9196777,2.366412,5.030534,-0.08396947,27.6,-135.24,-112.24
0.05957031,0.3635254,-0.9240723,0.6412213,3.969466,0.259542,27.6,-135.24,-112.24
0.05737305,0.3674316,-0.9145508,0.6335878,2.847328,-0.2213741,27.6,-135.24,-112.24
0.06347656,0.3544922,-0.9228516,0.8854962,3.091603,-0.5877862,27.6,-135.24,-112.24
0.06225586,0.3684082,-0.9165039,0.5572519,2.045802,-0.2061069,27.6,-135.24,-112.24
0.0637207,0.3535156,-0.9223633,1.603053,2.656489,-0.1908397,27.6,-135.24,-112.24
0.06274414,0.3652344,-0.9165039,2.083969,4.580153,-0.3816794,26.68,-135.24,-112.24
0.06665039,0.3662109,-0.9189453,1.007634,3.564885,-0.5725191,26.68,-135.24,-112.24
0.05834961,0.3620605,-0.9152832,1.625954,4.19084,0.04580153,26.68,-135.24,-112.24
0.05908203,0.3588867,-0.9177246,-0.07633588,3.427481,0.2137404,27.6,-135.24,-112.24
0.06713867,0.3688965,-0.9211426,-0.3969466,4.259542,-0.2290076,27.6,-135.24,-112.24
0.05810547,0.3618164,-0.9111328,1.80916,2.381679,-1.267176,27.6,-135.24,-112.24
0.0559082,0.3569336,-0.9187012,1.29771,5.61832,-1.442748,26.68,-135.24,-112.24
0.06030273,0.3583984,-0.9160156,0.870229,5.068702,0.01526718,26.68,-135.24,-112.24
0.06542969,0.3618164,-0.9204102,1.854962,5.167939,0.1450382,26.68,-135.24,-112.24
0.0625,0.3598633,-0.9194336,1.564886,1.687023,-0.1374046,26.68,-135.24,-112.24
0.0625,0.3635254,-0.9187012,3.267176,4.045802,-0.1755725,26.68,-135.24,-112.24
0.06323242,0.3630371,-0.9145508,0.4198473,4.587786,-0.3587786,27.6,-135.24,-112.24
0.06542969,0.359375,-0.9135742,0.2900764,5.38168,-0.389313,27.6,-135.24,-112.24
0.06689453,0.3632813,-0.9230957,3.007634,3.549618,-0.519084,27.6,-135.24,-112.24
0.06396484,0.3598633,-0.9140625,1.396947,3.122137,-1.450382,27.6,-135.24,-113.16
0.05371094,0.3564453,-0.9145508,3.320611,4.725191,-1.305344,27.6,-135.24,-113.16
0.05883789,0.3583984,-0.9194336,0.2748091,3.854962,-0.4045802,27.6,-135.24,-112.24
0.06201172,0.3603516,-0.9206543,1.236641,4.633588,0.1755725,27.6,-135.24,-112.24
0.06030273,0.3596191,-0.9116211,1.396947,4.053435,-0.8091603,27.6,-135.24,-112.24
0.06005859,0.3596191,-0.9191895,1.656489,3.099237,-1.625954,26.68,-135.24,-112.24
0.06298828,0.3598633,-0.9189453,3.343511,3.236641,-0.4503817,26.68,-135.24,-112.24
0.06298828,0.3601074,-0.923584,2.816794,7.389313,0.8015267,26.68,-135.24,-112.24
0.06298828,0.3603516,-0.9208984,2.580153,4.137404,0.3816794,27.6,-135.24,-113.16
0.0637207,0.3588867,-0.9106445,0.1679389,0.4045802,-1.908397,27.6,-135.24,-113.16
0.07055664,0.3659668,-0.9155273,4.366412,2.366412,-2.351145,26.68,-135.24,-112.24
0.06420898,0.3615723,-0.9240723,3.862595,2.068702,-3.992366,26.68,-135.24,-112.24
0.04223633,0.3564453,-0.9291992,2.59542,0.648855,-1.770992,26.68,-135.24,-112.24
0.04907227,0.3640137,-0.9150391,3.709924,4.503817,-1.022901,27.6,-135.24,-113.16
0.05151367,0.3522949,-0.9267578,0.5419847,5.534351,-2.274809,27.6,-135.24,-113.16
0.05395508,0.3518066,-0.9309082,0.2977099,7.473282,-0.8244275,27.6,-135.24,-113.16
0.06689453,0.3479004,-0.9116211,1.274809,4.221374,-0.5801527,27.6,-135.24,-113.16
0.07739258,0.3579102,-0.902832,1.923664,0.4351145,-2.717557,27.6,-135.24,-113.16
0.05615234,0.3544922,-0.9128418,2.40458,0.832061,-4.259542,27.6,-134.32,-113.16
0.04345703,0.3566895,-0.9196777,2.526718,4.229008,0.5267176,27.6,-134.32,-113.16
0.03637695,0.3581543,-0.9248047,1.259542,5.778626,2.770992,27.6,-134.32,-113.16
0.05493164,0.3547363,-0.9208984,1.10687,5.816794,2.442748,28.52,-134.32,-113.16
0.05981445,0.3525391,-0.9216309,0.4732824,2.938931,2.129771,28.52,-134.32,-113.16
0.05737305,0.3669434,-0.916748,-0.1145038,4.21374,2.549618,28.52,-134.32,-113.16
0.06274414,0.3693848,-0.9179688,1.549618,5.587786,1.732824,27.6,-134.32,-112.24
0.06518555,0.3549805,-0.9108887,1.419847,6.519084,1.282443,27.6,-134.32,-112.24
0.06079102,0.3547363,-0.9189453,2.824427,5.832061,0.02290076,28.52,-134.32,-112.24
0.0546875,0.3579102,-0.9243164,0.6259542,3.358779,-0.389313,28.52,-134.32,-112.24
0.05883789,0.361084,-0.9216309,1.21374,3.755725,-1.59542,28.52,-134.32,-112.24
0.05908203,0.3535156,-0.9255371,0.5954198,3.725191,-1.053435,28.52,-134.32,-113.16
0.05615234,0.3640137,-0.9138184,0.2213741,4.328244,1.221374,28.52,-134.32,-113.16
0.06005859,0.364502,-0.9082031,0.007633588,5.206107,0.9694656,28.52,-134.32,-113.16
0.05541992,0.3586426,-0.925293,0.4503817,6.435114,0.4580153,27.6,-134.32,-113.16
0.0612793,0.3479004,-0.9260254,2.335878,8.549619,3.083969,27.6,-134.32,-113.16
0.07275391,0.3535156,-0.9223633,-0.351145,3.992366,1.015267,27.6,-134.32,-113.16
0.06762695,0.3608398,-0.9272461,-0.6793893,4.458015,0.8396947,27.6,-134.32,-113.16
0.06860352,0.359375,-0.9196777,2.366412,7.526718,0.5648855,26.68,-135.24,-113.16
0.06787109,0.3566895,-0.9072266,1.274809,6.78626,0.610687,26.68,-135.24,-113.16
0.07128906,0.3569336,-0.9094238,1.267176,3.603053,-0.2137404,26.68,-135.24,-113.16
0.0715332,0.3618164,-0.9318848,2.19084,3.068702,-0.4198473,26.68,-135.24,-113.16
0.0559082,0.3569336,-0.9199219,1.221374,2.221374,-0.3969466,26.68,-135.24,-113.16
0.06445313,0.3669434,-0.90625,2.114504,4.862596,0.8396947,26.68,-135.24,-112.24
0.06469727,0.3674316,-0.9206543,2.78626,3.900763,0.2824428,26.68,-135.24,-112.24
0.06616211,0.3540039,-0.9238281,1.778626,5.534351,1.053435,26.68,-135.24,-112.24
0.06616211,0.3591309,-0.9116211,0.2977099,1.610687,-0.1679389,26.68,-135.24,-113.16
0.06689453,0.3579102,-0.9213867,2.961832,1.946565,-1.648855,26.68,-135.24,-113.16
0.07519531,0.3620605,-0.9260254,0.4961832,1.061069,-1.870229,26.68,-134.32,-113.16
0.07495117,0.3547363,-0.9086914,0.2442748,0.7022901,-2.030534,26.68,-134.32,-113.16
0.06665039,0.3618164,-0.9172363,2.29771,4.610687,-2.030534,26.68,-134.32,-113.16
0.06518555,0.3608398,-0.9172363,3.10687,4.862596,-2.435115,26.68,-135.24,-113.16
0.07055664,0.3537598,-0.9157715,2.053435,3.442748,-3.770992,26.68,-135.24,-113.16
0.06640625,0.3605957,-0.9133301,2.656489,2.045802,-3.70229,26.68,-135.24,-113.16
0.0637207,0.3674316,-0.9194336,3.549618,6.129771,-2.465649,26.68,-134.32,-113.16
0.06225586,0.3601074,-0.9152832,2.396947,3.763359,-1.167939,26.68,-134.32,-113.16
0.05859375,0.3596191,-0.9179688,1.969466,6.625954,-0.9312977,26.68,-135.24,-113.16
0.05664063,0.364502,-0.9277344,1.076336,6.251908,-1.48855,26.68,-135.24,-113.16
0.05957031,0.3503418,-0.9189453,1.80916,4.778626,0.2748091,26.68,-135.24,-113.16
0.05810547,0.3552246,-0.9172363,0.8396947,2.59542,0.6793893,27.6,-135.24,-113.16
0.05566406,0.3737793,-0.9199219,-0.9007633,4.335878,-0.4274809,27.6,-135.24,-113.16
0.05932617,0.3640137,-0.9116211,1.114504,4.221374,-1.618321,27.6,-135.24,-113.16
0.05810547,0.3508301,-0.9013672,3.068702,4.351145,-2.022901,26.68,-135.24,-113.16
0.05957031,0.3552246,-0.9243164,2.679389,6.541985,-0.648855,26.68,-135.24,-113.16
0.05859375,0.3684082,-0.9282227,0.1221374,2.977099,0.2671756,26.68,-134.32,-113.16
0.05761719,0.3566895,-0.909668,-0.8244275,1.656489,-0.480916,26.68,-134.32,-113.16
0.05932617,0.362793,-0.9150391,1.717557,2.725191,-1.129771,26.68,-134.32,-113.16
0.05761719,0.3647461,-0.9291992,0.9770992,6.007634,-0.2671756,26.68,-134.32,-113.16
0.06494141,0.3598633,-0.9106445,1.274809,4.175572,0.3129771,26.68,-134.32,-113.16
0.06665039,0.3579102,-0.9182129,2.167939,3.396947,-0.3816794,26.68,-134.32,-113.16
0.06274414,0.3632813,-0.9233398,1.59542,3.78626,-0.9465649,26.68,-134.32,-113.16
0.06201172,0.3615723,-0.9133301,0.09923664,3.885496,-0.9389313,26.68,-134.32,-113.16
0.06787109,0.359375,-0.9128418,1.580153,3.412214,-0.3053435,26.68,-135.24,-113.16
0.05859375,0.3596191,-0.9240723,1.763359,3.015267,0.2061069,26.68,-135.24,-113.16
0.06274414,0.362793,-0.9104004,0.5725191,4.648855,0.7557252,26.68,-135.24,-113.16
0.06982422,0.3657227,-0.9086914,0.7175572,4.954198,-0.2366412,27.6,-134.32,-113.16
0.06811523,0.3552246,-0.9226074,2.366412,5.526718,0.05343511,27.6,-134.32,-113.16
0.05883789,0.3625488,-0.9133301,0.5801527,3.290076,-0.3206107,27.6,-134.32,-113.16
0.06567383,0.364502,-0.9172363,2.763359,4.938931,-0.07633588,27.6,-135.24,-113.16
0.0637207,0.3620605,-0.9250488,1.778626,4.48855,-0.9923664,27.6,-135.24,-113.16
0.06494141,0.3540039,-0.9179688,1.641221,2.442748,-0.7022901,26.68,-134.32,-113.16
0.05517578,0.3605957,-0.9023438,4.061069,1.824428,-1.068702,26.68,-134.32,-113.16
0.05078125,0.3659668,-0.9199219,2.687023,5.152672,-0.02290076,26.68,-134.32,-113.16
0.05395508,0.364502,-0.9179688,1.419847,7.610687,0.4656488,27.6,-134.32,-113.16
0.05908203,0.3530273,-0.9106445,0.2671756,5.351145,1.526718,27.6,-134.32,-113.16
0.06469727,0.3520508,-0.9213867,2.473282,5.129771,2.068702,27.6,-134.32,-113.16
0.07055664,0.3637695,-0.925293,-1.053435,2.435115,-0.007633588,27.6,-134.32,-113.16
0.06787109,0.3620605,-0.9177246,5.396946,5.587786,-0.5343512,27.6,-134.32,-112.24
0.05786133,0.3620605,-0.9221191,2.0,4.694656,-0.5114504,27.6,-134.32,-112.24
0.05908203,0.3569336,-0.9152832,1.312977,2.778626,-0.1679389,27.6,-134.32,-112.24
0.06030273,0.3647461,-0.921875,2.022901,4.358778,-0.2519084,27.6,-135.24,-113.16
0.06982422,0.3591309,-0.9238281,0.9694656,4.152672,0.03053435,27.6,-135.24,-113.16
0.06811523,0.3635254,-0.918457,1.908397,5.770992,-0.2137404,26.68,-134.32,-113.16
0.05151367,0.3684082,-0.9226074,0.9770992,5.206107,0.02290076,26.68,-134.32,-113.16
0.06518555,0.3605957,-0.9121094,1.625954,6.977099,-0.2824428,26.68,-134.32,-113.16
0.06518555,0.3603516,-0.9052734,2.51145,2.679389,0.778626,27.6,-134.32,-113.16
0.05834961,0.3635254,-0.9245605,0.3053435,0.7938931,-0.4732824,27.6,-134.32,-113.16
0.05419922,0.3632813,-0.9204102,1.854962,3.992366,-0.2137404,27.6,-134.32,-113.16
0.05664063,0.3566895,-0.9155273,2.045802,5.770992,0.778626,26.68,-135.24,-113.16
0.06542969,0.3547363,-0.9213867,1.541985,6.343512,0.5343512,26.68,-135.24,-113.16
0.06640625,0.3586426,-0.927002,0.961832,2.541985,0.05343511,26.68,-135.24,-113.16
0.06469727,0.3591309,-0.9191895,0.8396947,4.061069,0.07633588,26.68,-135.24,-113.16
0.06884766,0.3632813,-0.9147949,1.244275,5.076336,-1.099237,26.68,-135.24,-113.16
0.05859375,0.362793,-0.9150391,1.923664,4.198473,0.4274809,26.68,-135.24,-113.16
0.06152344,0.3603516,-0.9086914,1.244275,2.534351,-0.4580153,26.68,-135.24,-113.16
0.05615234,0.3647461,-0.9191895,2.312977,3.687023,0.0,26.68,-135.24,-113.16
0.06005859,0.3647461,-0.9226074,0.2900764,3.885496,0.02290076,27.6,-135.24,-113.16
0.06591797,0.3566895,-0.9074707,0.740458,4.305344,0.4274809,27.6,-135.24,-113.16
0.06274414,0.3601074,-0.9204102,3.038168,5.648855,0.4580153,26.68,-134.32,-113.16
0.06054688,0.3596191,-0.923584,1.198473,4.48855,0.3435115,26.68,-134.32,-113.16
0.0625,0.3598633,-0.9064941,2.198473,5.419847,-0.5725191,26.68,-134.32,-113.16
0.05908203,0.3642578,-0.9169922,2.183206,3.282443,-0.3053435,26.68,-135.24,-113.16
0.06079102,0.3615723,-0.9299316,1.145038,4.38168,-1.763359,26.68,-135.24,-113.16
0.06079102,0.3571777,-0.9091797,0.740458,1.381679,-0.480916,26.68,-135.24,-113.16
0.0637207,0.3635254,-0.9145508,3.068702,3.435115,-0.9236641,27.6,-135.24,-113.16
0.0612793,0.3623047,-0.9272461,0.8396947,3.625954,-1.29771,27.6,-135.24,-113.16
0.06176758,0.3613281,-0.9152832,1.175573,4.290076,0.648855,26.68,-134.32,-113.16
0.06396484,0.3601074,-0.9169922,1.862595,3.900763,0.2061069,26.68,-134.32,-113.16
0.06396484,0.3596191,-0.9250488,1.381679,4.709924,-1.305344,26.68,-134.32,-113.16
0.05908203,0.357666,-0.9162598,1.022901,2.419847,-0.4198473,26.68,-135.24,-113.16
0.06787109,0.3615723,-0.911377,2.282443,2.839695,-2.221374,26.68,-135.24,-113.16
0.06347656,0.3586426,-0.9189453,3.366412,4.320611,-1.641221,26.68,-135.24,-113.16
0.05639648,0.3581543,-0.9333496,1.839695,3.664122,-0.5419847,27.6,-134.32,-112.24
0.06030273,0.3632813,-0.9182129,2.587786,3.778626,0.07633588,27.6,-134.32,-112.24
0.06298828,0.3649902,-0.9238281,0.5496183,4.366412,0.09160305,27.6,-134.32,-112.24
0.05981445,0.361084,-0.918457,1.541985,4.198473,0.1832061,27.6,-134.32,-112.24
0.06103516,0.3598633,-0.9138184,1.366412,3.503817,-1.251908,27.6,-134.32,-112.24
0.06176758,0.3618164,-0.9223633,2.51145,2.229008,-1.832061,27.6,-134.32,-113.16
0.06347656,0.3574219,-0.9255371,0.4656488,2.435115,-0.1832061,27.6,-134.32,-113.16
0.0690918,0.355957,-0.9074707,0.7099237,3.320611,0.6946565,27.6,-134.32,-113.16
0.06274414,0.3496094,-0.9211426,4.251908,5.320611,-1.832061,27.6,-135.24,-112.24
0.05859375,0.3508301,-0.9291992,1.374046,3.679389,-0.05343511,27.6,-135.24,-112.24
0.05883789,0.3654785,-0.9138184,1.664122,3.450382,-0.1526718,27.6,-134.32,-112.24
0.06176758,0.3640137,-0.9133301,3.396947,3.89313,0.03053435,27.6,-134.32,-112.24
0.05688477,0.3601074,-0.920166,1.625954,4.656488,-0.1984733,27.6,-134.32,-112.24
0.05151367,0.3598633,-0.9174805,2.389313,6.541985,0.7862596,27.6,-134.32,-112.24
0.06005859,0.3596191,-0.9155273,2.427481,4.977099,0.08396947,27.6,-134.32,-112.24
0.06054688,0.3581543,-0.9267578,1.954198,3.022901,-0.6717557,27.6,-134.32,-112.24
0.05883789,0.3564453,-0.9208984,-0.09160305,3.0,-0.1145038,27.6,-134.32,-113.16
0.06274414,0.355957,-0.9221191,0.6870229,4.671756,0.08396947,27.6,-134.32,-113.16
0.06176758,0.3583984,-0.9143066,0.648855,2.496183,-0.2900764,27.6,-134.32,-113.16
0.05297852,0.3640137,-0.9162598,1.641221,4.458015,-0.740458,27.6,-134.32,-113.16
0.05859375,0.3552246,-0.9238281,-0.2442748,3.603053,-0.1908397,27.6,-134.32,-113.16
0.05908203,0.3579102,-0.9208984,0.4427481,3.0,-0.4351145,27.6,-134.32,-113.16
0.06298828,0.362793,-0.9121094,0.3435115,3.931298,-0.1068702,27.6,-134.32,-112.24
0.0612793,0.3649902,-0.9191895,2.251908,3.450382,-0.1450382,27.6,-134.32,-112.24
0.05957031,0.3596191,-0.9052734,1.312977,4.328244,-1.160305,27.6,-134.32,-112.24
0.06396484,0.3544922,-0.9099121,1.824428,2.969466,-1.725191,27.6,-135.24,-112.24
0.0534668,0.354248,-0.9187012,1.664122,3.847328,-0.3358779,27.6,-135.24,-112.24
0.04907227,0.3615723,-0.9250488,1.305344,3.603053,0.4961832,27.6,-135.24,-112.24
0.05078125,0.3574219,-0.9204102,1.694656,4.923664,0.4274809,27.6,-135.24,-113.16
0.06005859,0.3547363,-0.9223633,-0.2290076,2.717557,-0.480916,27.6,-135.24,-113.16
0.06323242,0.3566895,-0.923584,1.587786,3.541985,-0.1603053,27.6,-135.24,-113.16
0.06225586,0.355957,-0.9179688,0.5496183,5.229008,0.1603053,27.6,-135.24,-113.16
0.06079102,0.3635254,-0.9116211,1.114504,3.694656,0.4198473,27.6,-135.24,-113.16
0.05712891,0.3640137,-0.9216309,1.396947,4.236641,0.1526718,27.6,-135.24,-112.24
0.06176758,0.3598633,-0.9196777,0.6412213,3.580153,0.2900764,27.6,-135.24,-112.24
0.05786133,0.3532715,-0.9133301,-0.3358779,3.854962,0.2366412,27.6,-135.24,-112.24
0.06152344,0.359375,-0.9191895,1.778626,6.045802,0.4274809,27.6,-134.32,-113.16
0.0612793,0.3574219,-0.9189453,1.274809,3.465649,0.3206107,27.6,-134.32,-113.16
0.06469727,0.355957,-0.9196777,0.2213741,4.068702,0.03053435,27.6,-134.32,-112.24
0.06542969,0.3557129,-0.9233398,0.9847328,0.2061069,-1.19084,27.6,-134.32,-112.24
0.05664063,0.359375,-0.9135742,1.778626,3.244275,-0.5572519,27.6,-134.32,-112.24
0.05419922,0.364502,-0.9133301,2.48855,3.519084,-0.1908397,27.6,-135.24,-112.24
0.05517578,0.3674316,-0.9213867,3.061069,3.587786,-0.4122138,27.6,-135.24,-112.24
0.05444336,0.3571777,-0.9316406,1.572519,6.137404,-0.3053435,27.6,-135.24,-112.24
0.06079102,0.3513184,-0.916748,1.465649,4.954198,0.4732824,27.6,-135.24,-112.24
0.06054688,0.3666992,-0.9130859,-1.053435,0.6412213,-0.08396947,27.6,-135.24,-112.24
0.05981445,0.3757324,-0.9094238,1.267176,2.458015,-0.9923664,27.6,-134.32,-112.24
0.05615234,0.361084,-0.9265137,0.8015267,4.709924,-1.160305,27.6,-134.32,-112.24
0.05712891,0.3522949,-0.9165039,0.259542,4.862596,0.4732824,27.6,-134.32,-112.24
0.06030273,0.3605957,-0.9226074,0.07633588,5.793893,0.6717557,27.6,-135.24,-112.24
0.06323242,0.3684082,-0.9162598,-1.763359,3.320611,-0.4122138,27.6,-135.24,-112.24
0.07299805,0.3586426,-0.9094238,-0.4274809,3.755725,-1.21374,27.6,-135.24,-112.24
0.07006836,0.3591309,-0.9069824,1.496183,2.496183,-1.51145,27.6,-135.24,-112.24
0.05786133,0.3664551,-0.9194336,2.938931,5.877862,-0.6564885,27.6,-135.24,-112.24
0.05395508,0.3666992,-0.9111328,1.847328,5.984733,-0.3206107,27.6,-135.24,-112.24
0.06567383,0.3642578,-0.9072266,2.19084,4.610687,-1.244275,27.6,-135.24,-112.24
0.05615234,0.3652344,-0.918457,2.778626,3.099237,-4.137404,27.6,-135.24,-112.24
0.04663086,0.3608398,-0.9194336,2.549618,3.839695,-2.053435,26.68,-135.24,-113.16
0.05615234,0.3649902,-0.9123535,1.381679,0.9083969,-1.80916,26.68,-135.24,-113.16
0.05883789,0.3562012,-0.9077148,1.496183,1.51145,-1.290076,26.68,-135.24,-113.16
0.06005859,0.3635254,-0.9191895,2.687023,3.152672,-0.2137404,27.6,-134.32,-112.24
0.04736328,0.359375,-0.9243164,1.671756,3.854962,-0.02290076,27.6,-134.32,-112.24
0.05078125,0.3613281,-0.9125977,0.8473283,6.709924,1.656489,27.6,-135.24,-113.16
0.07568359,0.3588867,-0.9135742,0.3129771,3.435115,1.419847,27.6,-135.24,-113.16
0.06567383,0.3566895,-0.9140625,2.129771,2.740458,-0.1603053,27.6,-135.24,-113.16
0.05737305,0.357666,-0.9206543,1.427481,2.679389,-0.3358779,27.6,-135.24,-112.24
0.06835938,0.3537598,-0.9174805,4.923664,5.343512,-0.832061,27.6,-134.32,-112.24
0.05664063,0.3510742,-0.921875,3.305344,5.312977,-0.09160305,27.6,-134.32,-112.24
0.05810547,0.3640137,-0.9213867,1.755725,5.038168,1.679389,27.6,-134.32,-112.24
0.05639648,0.362793,-0.9165039,1.061069,4.061069,0.4045802,27.6,-134.32,-113.16
0.05615234,0.3684082,-0.9179688,0.4503817,3.053435,-0.4122138,27.6,-134.32,-113.16
0.05859375,0.3666992,-0.9196777,1.061069,6.770992,-0.961832,27.6,-135.24,-113.16
0.05737305,0.354248,-0.9101563,2.21374,4.931298,-1.465649,27.6,-135.24,-113.16
0.05297852,0.3571777,-0.9189453,0.3816794,5.564886,-0.2748091,27.6,-135.24,-113.16
0.0559082,0.3618164,-0.9199219,1.21374,3.824427,-1.465649,27.6,-134.32,-113.16
0.05029297,0.3630371,-0.9150391,2.343511,2.854962,-1.610687,27.6,-134.32,-113.16
0.06030273,0.361084,-0.9204102,1.083969,5.419847,-0.02290076,27.6,-134.32,-113.16
0.05908203,0.3569336,-0.9187012,-0.6183206,4.717557,1.473282,27.6,-134.32,-113.16
0.05737305,0.3620605,-0.9179688,1.19084,6.137404,1.900763,27.6,-134.32,-113.16
0.06152344,0.3642578,-0.9194336,1.549618,4.099236,0.6946565,27.6,-134.32,-112.24
0.06152344,0.3613281,-0.9174805,1.938931,3.40458,0.6946565,27.6,-134.32,-112.24
0.05175781,0.3637695,-0.9301758,2.687023,6.564886,0.9770992,27.6,-134.32,-112.24
0.05908203,0.359375,-0.9172363,1.572519,7.259542,1.229008,27.6,-135.24,-113.16
0.06713867,0.3579102,-0.9194336,1.89313,4.641222,0.4580153,27.6,-135.24,-113.16
0.06738281,0.361084,-0.9155273,0.2290076,4.183206,0.5954198,27.6,-135.24,-113.16
0.0715332,0.3625488,-0.9074707,0.5954198,4.656488,0.1984733,27.6,-135.24,-112.24
0.07006836,0.3598633,-0.9155273,2.122137,3.343511,-0.2366412,27.6,-135.24,-112.24
0.06079102,0.3583984,-0.916748,2.503817,4.847328,-0.3053435,27.6,-135.24,-113.16
0.05786133,0.3640137,-0.9260254,1.442748,5.877862,1.854962,27.6,-135.24,-113.16
0.05786133,0.3713379,-0.9133301,0.4503817,7.007634,0.2824428,27.6,-135.24,-113.16
0.06884766,0.3659668,-0.9230957,-0.6259542,4.694656,1.335878,27.6,-135.24,-112.24
0.06665039,0.3569336,-0.9130859,-0.05343511,4.877862,0.0,27.6,-135.24,-112.24
0.06225586,0.3688965,-0.9160156,-0.8396947,3.0,-0.2213741,27.6,-135.24,-112.24
0.05859375,0.3686523,-0.9106445,0.389313,3.755725,-0.9847328,26.68,-135.24,-112.24
0.06762695,0.3598633,-0.920166,2.763359,7.954198,-1.0,26.68,-135.24,-112.24
0.06665039,0.3557129,-0.9211426,2.267176,3.923664,-0.259542,26.68,-135.24,-112.24
0.06542969,0.3496094,-0.9260254,1.793893,2.038168,-1.305344,26.68,-135.24,-113.16
0.06567383,0.3654785,-0.9172363,1.839695,4.519084,0.4427481,26.68,-135.24,-113.16
0.06958008,0.3693848,-0.909668,0.9770992,4.717557,-0.1908397,26.68,-135.24,-113.16
0.06811523,0.3659668,-0.916748,1.51145,4.503817,-0.03816794,26.68,-135.24,-113.16
0.06494141,0.3615723,-0.9143066,2.763359,5.145038,0.6641222,26.68,-135.24,-113.16
0.06347656,0.3632813,-0.9162598,2.206107,7.175572,1.557252,26.68,-135.24,-112.24
0.06494141,0.364502,-0.9189453,2.251908,5.992366,1.183206,26.68,-135.24,-112.24
0.06689453,0.362793,-0.9111328,1.664122,4.251908,0.1068702,26.68,-135.24,-112.24
0.06396484,0.3640137,-0.9187012,2.442748,4.763359,0.1526718,26.68,-135.24,-113.16
0.06762695,0.3652344,-0.9189453,0.7633588,4.839694,-0.3206107,26.68,-135.24,-113.16
0.07128906,0.3598633,-0.923584,1.305344,3.465649,-0.2977099,26.68,-135.24,-112.24
0.06860352,0.361084,-0.9194336,3.740458,5.61832,-0.1526718,26.68,-135.24,-112.24
0.06445313,0.3652344,-0.9213867,1.633588,4.053435,-0.129771,26.68,-135.24,-112.24
0.06762695,0.3659668,-0.9143066,3.152672,4.839694,0.259542,26.68,-135.24,-113.16
0.07324219,0.3598633,-0.9169922,2.290076,4.473282,-0.8549618,26.68,-135.24,-113.16
0.06201172,0.3635254,-0.9187012,2.099237,3.458015,-0.0610687,26.68,-135.24,-113.16
0.05883789,0.3642578,-0.918457,1.580153,4.320611,-0.8625955,26.68,-135.24,-112.24
0.06640625,0.3591309,-0.9155273,0.7175572,3.625954,0.1450382,26.68,-135.24,-112.24
0.06323242,0.361084,-0.9155273,1.832061,3.167939,-1.305344,26.68,-135.24,-112.24
0.06347656,0.3579102,-0.909668,1.824428,3.679389,-0.6793893,26.68,-135.24,-112.24
0.06445313,0.3669434,-0.916748,2.465649,5.427481,0.6335878,26.68,-135.24,-112.24
0.0637207,0.359375,-0.9189453,2.862595,5.740458,1.160305,26.68,-135.24,-112.24
0.06420898,0.3652344,-0.9138184,1.030534,3.473282,0.2442748,26.68,-135.24,-112.24
0.06103516,0.3625488,-0.9077148,2.870229,2.961832,-0.6183206,26.68,-135.24,-112.24
0.06518555,0.3571777,-0.9243164,2.244275,4.587786,-0.2824428,26.68,-135.24,-112.24
0.06933594,0.355957,-0.9196777,0.8244275,4.877862,0.3206107,27.6,-134.32,-112.24
0.06420898,0.3649902,-0.9104004,1.572519,3.977099,0.1908397,27.6,-134.32,-112.24
0.07055664,0.3586426,-0.9147949,0.2290076,0.007633588,-1.374046,26.68,-135.24,-112.24
0.05908203,0.3608398,-0.9143066,1.503817,4.931298,-1.366412,26.68,-135.24,-112.24
0.06762695,0.3647461,-0.9138184,2.160305,6.137404,0.5801527,26.68,-135.24,-112.24
0.06542969,0.3647461,-0.9179688,2.977099,5.183206,0.389313,26.68,-135.24,-112.24
0.06176758,0.3603516,-0.9128418,1.870229,3.603053,-1.580153,26.68,-135.24,-112.24
0.06396484,0.3569336,-0.9165039,2.061069,4.801527,-0.02290076,26.68,-135.24,-112.24
0.05737305,0.3618164,-0.9150391,2.519084,4.427481,-0.2671756,27.6,-134.32,-112.24
0.06494141,0.3647461,-0.9116211,2.21374,4.839694,0.06870229,27.6,-134.32,-112.24
0.06396484,0.362793,-0.9160156,2.618321,4.015267,0.1984733,27.6,-134.32,-112.24
0.06054688,0.3579102,-0.9191895,1.030534,3.946565,0.1450382,26.68,-134.32,-113.16
0.05883789,0.3615723,-0.9208984,1.687023,5.122138,0.1450382,26.68,-134.32,-113.16
0.06542969,0.3608398,-0.9157715,1.503817,5.022901,0.3740458,26.68,-135.24,-112.24
0.06835938,0.3659668,-0.9191895,2.946565,4.664122,-1.145038,26.68,-135.24,-112.24
0.06274414,0.3662109,-0.9104004,1.824428,4.259542,-0.3053435,26.68,-135.24,-112.24
0.06469727,0.3635254,-0.9177246,3.122137,5.900764,-0.5419847,27.6,-135.24,-113.16
0.05981445,0.3605957,-0.9128418,0.9923664,3.580153,-0.2900764,27.6,-135.24,-113.16
0.06518555,0.3586426,-0.9265137,0.3206107,3.89313,-0.2061069,27.6,-135.24,-113.16
0.05932617,0.3591309,-0.9189453,2.160305,3.419847,-0.5877862,27.6,-135.24,-113.16
0.06274414,0.3608398,-0.9174805,2.21374,3.358779,-1.755725,27.6,-135.24,-113.16
0.06542969,0.3630371,-0.9221191,3.618321,5.19084,-0.7633588,27.6,-135.24,-112.24
0.05786133,0.3574219,-0.9221191,1.80916,3.748092,-0.6030535,27.6,-135.24,-112.24
0.05615234,0.3620605,-0.918457,1.526718,5.572519,0.03816794,27.6,-135.24,-112.24
0.0612793,0.3652344,-0.9118652,1.78626,4.305344,0.5114504,26.68,-134.32,-112.24
0.06005859,0.361084,-0.9196777,0.4885496,0.9389313,-0.8549618,26.68,-134.32,-112.24
0.06225586,0.3598633,-0.9152832,3.10687,4.427481,-1.320611,27.6,-135.24,-112.24
0.05761719,0.3547363,-0.9248047,1.076336,3.916031,-0.2748091,27.6,-135.24,-112.24
0.06640625,0.3581543,-0.9277344,1.557252,4.519084,0.4427481,27.6,-135.24,-112.24
0.06738281,0.3581543,-0.9172363,2.969466,4.305344,-0.4580153,26.68,-134.32,-112.24
0.0612793,0.354248,-0.9174805,1.114504,2.732824,-1.320611,26.68,-134.32,-112.24
0.05371094,0.3630371,-0.9169922,2.618321,4.015267,0.3587786,26.68,-134.32,-112.24
0.06323242,0.3652344,-0.9199219,2.236641,4.526718,0.5725191,27.6,-135.24,-112.24
0.06347656,0.3588867,-0.9128418,1.244275,2.664122,-0.3129771,27.6,-135.24,-112.24
0.05615234,0.3571777,-0.9255371,2.557252,3.534351,-1.122137,27.6,-135.24,-112.24
0.05419922,0.3613281,-0.9147949,1.618321,4.335878,0.1984733,27.6,-134.32,-113.16
0.05981445,0.3596191,-0.9194336,1.80916,4.610687,-0.2748091,27.6,-134.32,-113.16
0.06860352,0.3608398,-0.9204102,1.328244,4.374046,-0.2977099,27.6,-134.32,-112.24
0.06542969,0.3581543,-0.9140625,1.068702,2.580153,-0.3282443,27.6,-134.32,-112.24
0.05493164,0.3615723,-0.9162598,2.320611,4.480916,1.175573,27.6,-134.32,-112.24
0.06469727,0.3598633,-0.927002,1.10687,4.534351,-1.625954,27.6,-134.32,-112.24
0.06494141,0.3503418,-0.9169922,2.793893,5.061069,-0.09160305,27.6,-134.32,-112.24
0.05883789,0.3579102,-0.9143066,0.961832,5.022901,-1.427481,27.6,-134.32,-112.24
0.0546875,0.3601074,-0.9230957,1.015267,4.152672,-0.01526718,27.6,-135.24,-112.24
0.06640625,0.355957,-0.9077148,0.02290076,3.450382,-0.519084,27.6,-135.24,-112.24
0.0612793,0.3623047,-0.9152832,2.038168,4.824428,-0.259542,27.6,-135.24,-112.24
0.06030273,0.3588867,-0.9294434,-0.09923664,3.038168,-0.1679389,27.6,-134.32,-112.24
0.05541992,0.3574219,-0.9248047,1.129771,3.282443,-0.4198473,27.6,-134.32,-112.24
0.05688477,0.3591309,-0.921875,1.740458,3.763359,-0.6793893,27.6,-134.32,-112.24
0.05981445,0.3649902,-0.9125977,0.3129771,3.564885,-0.5572519,27.6,-135.24,-112.24
0.06518555,0.3605957,-0.9199219,1.29771,5.78626,-1.19084,27.6,-135.24,-112.24
0.06176758,0.361084,-0.9130859,1.068702,2.709924,0.0610687,27.6,-135.24,-112.24
0.06347656,0.357666,-0.916748,0.4427481,3.839695,0.3740458,27.6,-135.24,-112.24
0.0637207,0.3613281,-0.907959,1.328244,6.122138,-0.6870229,27.6,-135.24,-112.24
0.06152344,0.3581543,-0.9165039,2.030534,5.137404,-1.068702,26.68,-135.24,-113.16
0.06787109,0.3601074,-0.9228516,1.076336,5.129771,-0.9847328,26.68,-135.24,-113.16
0.06103516,0.3657227,-0.9145508,3.183206,4.740458,0.648855,26.68,-135.24,-113.16
0.06616211,0.3605957,-0.9238281,0.8091603,4.160306,-0.5038168,27.6,-135.24,-112.24
0.05932617,0.3618164,-0.9150391,1.664122,4.931298,-0.6717557,27.6,-135.24,-112.24
0.05395508,0.3554688,-0.9194336,1.625954,3.442748,0.1984733,27.6,-135.24,-112.24
0.0612793,0.3623047,-0.918457,0.4274809,4.312977,0.1908397,27.6,-134.32,-112.24
0.06665039,0.3632813,-0.9152832,2.007634,4.564886,-0.06870229,27.6,-134.32,-112.24
0.06445313,0.3605957,-0.9172363,2.183206,5.19084,-1.480916,27.6,-134.32,-112.24
0.05639648,0.3591309,-0.9174805,1.732824,4.80916,0.1679389,27.6,-134.32,-112.24
0.06030273,0.3557129,-0.9150391,0.1832061,2.954198,0.1832061,27.6,-134.32,-112.24
0.06420898,0.357666,-0.9155273,1.824428,3.900763,0.2977099,27.6,-135.24,-113.16
0.06225586,0.3603516,-0.920166,1.770992,3.877863,-1.29771,27.6,-135.24,-113.16
0.05541992,0.3625488,-0.920166,1.70229,5.358778,0.7709923,27.6,-135.24,-113.16
0.0612793,0.3618164,-0.9121094,1.152672,4.59542,1.763359,27.6,-134.32,-112.24
0.06054688,0.3605957,-0.9116211,0.2900764,4.51145,0.610687,27.6,-134.32,-112.24
0.05957031,0.3554688,-0.9169922,1.351145,3.549618,0.3053435,27.6,-134.32,-112.24
0.06225586,0.357666,-0.9233398,1.030534,3.10687,0.1450382,27.6,-135.24,-113.16
0.06030273,0.3525391,-0.9165039,2.282443,5.137404,-0.9236641,27.6,-135.24,-113.16
0.0612793,0.3483887,-0.9082031,2.969466,1.946565,-1.267176,27.6,-135.24,-113.16
0.05688477,0.3598633,-0.9152832,0.9312977,4.160306,-1.610687,27.6,-135.24,-113.16
0.06201172,0.3654785,-0.923584,3.251908,3.21374,-0.648855,27.6,-135.24,-113.16
0.05444336,0.355957,-0.9213867,1.473282,5.251908,-1.083969,27.6,-134.32,-112.24
0.06054688,0.3571777,-0.920166,0.2824428,3.045802,-0.8778625,27.6,-134.32,-112.24
0.05712891,0.3605957,-0.9138184,1.236641,3.312977,-0.03816794,27.6,-134.32,-112.24
0.05517578,0.3618164,-0.9157715,1.259542,4.48855,-0.8778625,27.6,-134.32,-113.16
0.06030273,0.3581543,-0.918457,2.198473,4.519084,0.08396947,27.6,-134.32,-113.16
0.06835938,0.3620605,-0.9165039,2.061069,5.458015,0.4122138,27.6,-134.32,-113.16
0.06884766,0.3557129,-0.9196777,1.061069,4.10687,-0.8091603,27.6,-134.32,-113.16
0.05712891,0.3540039,-0.9233398,1.19084,0.0,-1.381679,27.6,-134.32,-113.16
0.04858398,0.3574219,-0.9248047,-0.6412213,4.396946,-0.3358779,27.6,-135.24,-113.16
0.05981445,0.3613281,-0.9182129,1.931298,4.244275,0.7480916,27.6,-135.24,-113.16
0.06274414,0.3557129,-0.9130859,-0.4274809,3.679389,0.1221374,27.6,-135.24,-113.16
0.06616211,0.3493652,-0.9226074,1.374046,4.450382,0.2519084,27.6,-135.24,-112.24
0.05517578,0.3544922,-0.9160156,1.534351,3.549618,-0.6335878,27.6,-135.24,-112.24
0.0637207,0.3618164,-0.9260254,1.984733,4.175572,-0.389313,26.68,-135.24,-112.24
0.06054688,0.3608398,-0.9172363,1.122137,3.465649,-0.4732824,26.68,-135.24,-112.24
0.06274414,0.3666992,-0.9133301,0.5801527,3.557252,-0.2213741,26.68,-135.24,-112.24
0.0612793,0.3620605,-0.9250488,0.832061,5.122138,-0.09160305,26.68,-134.32,-112.24
0.06323242,0.3588867,-0.9138184,1.167939,3.480916,0.2366412,26.68,-134.32,-112.24
0.06494141,0.3623047,-0.9179688,2.854962,4.244275,-1.480916,26.68,-135.24,-112.24
0.05761719,0.3652344,-0.9216309,1.885496,4.320611,-1.442748,26.68,-135.24,-112.24
0.06103516,0.3566895,-0.9194336,0.8473283,5.839694,1.778626,26.68,-135.24,-113.16
0.0637207,0.3647461,-0.9086914,2.129771,4.717557,-0.2900764,26.68,-135.24,-113.16
0.05786133,0.3581543,-0.9157715,1.068702,3.053435,-0.3206107,27.6,-135.24,-112.24
0.05541992,0.3588867,-0.9211426,2.030534,4.0,-0.07633588,27.6,-135.24,-112.24
0.0637207,0.3535156,-0.9216309,1.091603,4.770992,-0.05343511,27.6,-135.24,-112.24
0.05151367,0.3522949,-0.9177246,4.312977,4.503817,0.8931297,26.68,-134.32,-113.16
0.05810547,0.3688965,-0.9228516,-1.129771,7.282443,1.137405,26.68,-134.32,-113.16
0.07397461,0.3706055,-0.9055176,-0.6717557,3.427481,0.4274809,26.68,-134.32,-113.16
0.06811523,0.3579102,-0.9152832,1.40458,4.412214,0.4351145,26.68,-135.24,-113.16
0.06494141,0.3574219,-0.9187012,2.015267,4.564886,0.02290076,26.68,-135.24,-113.16
0.06445313,0.362793,-0.9147949,3.29771,6.145038,-0.2977099,26.68,-135.24,-113.16
0.0690918,0.3588867,-0.9189453,3.137405,5.053435,-0.09923664,26.68,-135.24,-113.16
0.06738281,0.3601074,-0.9216309,1.175573,4.305344,-1.038168,26.68,-135.24,-113.16
0.06518555,0.3635254,-0.9221191,0.389313,2.160305,-1.480916,26.68,-134.32,-113.16
0.06030273,0.3669434,-0.9135742,1.580153,4.587786,-0.03816794,26.68,-134.32,-113.16
0.06494141,0.369873,-0.921875,1.763359,7.145038,0.7480916,26.68,-134.32,-113.16
0.06640625,0.3679199,-0.9255371,2.167939,8.152672,0.5114504,26.68,-135.24,-113.16
0.0703125,0.3591309,-0.9262695,-0.2366412,4.900764,0.5572519,26.68,-135.24,-113.16
0.07080078,0.3625488,-0.907959,0.1450382,3.793893,-0.6183206,26.68,-134.32,-112.24
0.06079102,0.3637695,-0.9143066,1.580153,2.030534,-1.282443,26.68,-134.32,-112.24
0.06494141,0.3671875,-0.9226074,0.06870229,3.625954,0.02290076,26.68,-134.32,-112.24
0.06616211,0.3630371,-0.911377,0.07633588,5.534351,0.9770992,25.76,-135.24,-112.24
0.06225586,0.3615723,-0.9128418,0.519084,4.755725,1.89313,25.76,-135.24,-112.24
0.06494141,0.3640137,-0.9204102,2.045802,7.022901,2.206107,25.76,-135.24,-112.24
0.06542969,0.3608398,-0.9260254,-0.5954198,4.480916,1.603053,25.76,-135.24,-112.24
0.06665039,0.3618164,-0.9216309,1.580153,5.114504,2.152672,25.76,-135.24,-112.24
0.07128906,0.3688965,-0.9135742,-0.1984733,4.08397,0.4274809,25.76,-135.24,-112.24
0.08276367,0.3713379,-0.9086914,-0.3282443,4.931298,-0.519084,25.76,-135.24,-112.24
0.07714844,0.3613281,-0.9072266,1.396947,5.183206,-0.7099237,25.76,-135.24,-112.24
0.06640625,0.3649902,-0.9111328,0.519084,5.687023,-1.419847,25.76,-135.24,-112.24
0.06494141,0.3666992,-0.9150391,-0.1374046,6.877862,-0.8931297,25.76,-135.24,-112.24
0.07421875,0.3613281,-0.9213867,0.5877862,6.480916,0.9236641,25.76,-135.24,-112.24
0.08129883,0.3632813,-0.9150391,0.5267176,3.931298,0.5267176,24.84,-135.24,-112.24
0.08764648,0.3671875,-0.9050293,0.389313,3.816794,-0.3129771,24.84,-135.24,-112.24
0.0769043,0.3752441,-0.9162598,0.03816794,4.603054,0.07633588,24.84,-135.24,-112.24
0.07006836,0.3776855,-0.9111328,0.2290076,6.641222,2.10687,24.84,-135.24,-112.24
0.07202148,0.3701172,-0.9123535,-1.312977,5.572519,1.923664,24.84,-135.24,-112.24
0.07861328,0.375,-0.9116211,-1.061069,6.664122,1.862595,24.84,-135.24,-112.24
0.08227539,0.376709,-0.9072266,-0.4732824,1.198473,0.4198473,24.84,-135.24,-112.24
0.06396484,0.3666992,-0.9155273,0.4122138,2.832061,0.4198473,24.84,-135.24,-112.24
0.06420898,0.3640137,-0.9147949,0.1450382,4.885496,1.748092,24.84,-136.16,-111.32
0.07495117,0.357666,-0.9116211,-0.5038168,0.7251908,-0.2061069,24.84,-136.16,-111.32
0.08105469,0.3566895,-0.9255371,0.6412213,1.374046,-0.5877862,24.84,-136.16,-111.32
0.07348633,0.3713379,-0.9291992,-2.51145,0.8091603,-0.4656488,25.76,-136.16,-111.32
0.06884766,0.371582,-0.9089355,-2.183206,0.09160305,-0.1145038,25.76,-136.16,-111.32
0.06689453,0.3723145,-0.9145508,-2.496183,7.076336,0.3358779,24.84,-136.16,-111.32
0.08959961,0.3898926,-0.9077148,-2.610687,5.290076,0.480916,24.84,-136.16,-111.32
0.08935547,0.3786621,-0.8920898,-3.267176,5.847328,1.160305,24.84,-136.16,-111.32
0.09228516,0.3842773,-0.901123,0.2824428,3.832061,0.2137404,24.84,-136.16,-110.4
0.0925293,0.3935547,-0.8935547,-0.4503817,3.198473,-2.183206,23.92,-137.08,-110.4
0.08935547,0.3847656,-0.9123535,0.4580153,3.320611,-3.022901,23.92,-137.08,-110.4
0.07739258,0.3798828,-0.9143066,3.961832,6.152672,-2.519084,23.92,-137.08,-110.4
0.05664063,0.3754883,-0.9284668,4.503817,6.19084,-1.687023,23.92,-136.16,-109.48
0.05493164,0.3723145,-0.9216309,2.351145,1.618321,-3.381679,23.92,-136.16,-109.48
0.04833984,0.3718262,-0.8981934,3.007634,1.419847,-3.473282,24.84,-137.08,-110.4
0.04956055,0.3803711,-0.9196777,1.519084,7.221374,0.4885496,24.84,-137.08,-110.4
0.05834961,0.3659668,-0.9277344,-2.282443,3.847328,0.2977099,24.84,-137.08,-110.4
0.05834961,0.3676758,-0.9069824,-2.076336,3.320611,3.19084,24.84,-136.16,-109.48
0.08374023,0.3862305,-0.9140625,-4.59542,5.519084,3.908397,24.84,-136.16,-109.48
0.06445313,0.3913574,-0.9040527,-1.519084,0.2442748,0.1984733,24.84,-136.16,-109.48
0.05786133,0.3659668,-0.9121094,3.900763,-0.740458,-0.03053435,24.84,-137.08,-109.48
0.0612793,0.387207,-0.9172363,-0.1145038,4.061069,4.900764,24.84,-137.08,-109.48
0.08178711,0.4169922,-0.8991699,-6.21374,6.519084,5.343512,24.84,-138.0,-109.48
0.07226563,0.395752,-0.8786621,-1.328244,2.229008,1.778626,24.84,-138.0,-109.48
0.06738281,0.3920898,-0.9094238,1.274809,6.816794,2.328244,24.84,-138.0,-109.48
0.078125,0.4128418,-0.911377,-1.877863,10.55725,3.885496,23.92,-137.08,-108.56
0.08666992,0.4003906,-0.8964844,-4.167939,4.938931,1.038168,23.92,-137.08,-108.56
0.08227539,0.4030762,-0.8845215,-1.022901,2.053435,0.7938931,23.92,-137.08,-108.56
0.08251953,0.4204102,-0.8881836,1.618321,0.961832,-3.053435,23.0,-138.0,-107.64
0.07641602,0.401123,-0.9111328,3.21374,4.854962,-2.839695,23.0,-138.0,-107.64
0.07788086,0.3623047,-0.9143066,3.549618,6.717557,-0.3740458,23.0,-138.0,-108.56
0.07104492,0.3657227,-0.9023438,1.206107,2.206107,2.129771,23.0,-138.0,-108.56
0.06054688,0.4082031,-0.9082031,-0.6564885,2.931298,1.427481,23.0,-138.0,-108.56
0.05541992,0.4001465,-0.9157715,-5.29771,5.679389,3.526718,23.0,-138.0,-108.56
0.05786133,0.3857422,-0.8952637,-4.129771,5.778626,6.08397,23.0,-138.0,-108.56
0.0637207,0.3952637,-0.8989258,0.3053435,3.305344,5.89313,23.0,-138.0,-108.56
0.08422852,0.4155273,-0.9060059,-1.778626,4.343512,6.862596,22.08,-138.0,-107.64
0.1015625,0.3996582,-0.8811035,-1.656489,3.038168,6.122138,22.08,-138.0,-107.64
0.09985352,0.3747559,-0.8916016,2.687023,1.801527,4.351145,21.16,-138.92,-106.72
0.1074219,0.3962402,-0.9204102,2.10687,4.717557,6.015267,21.16,-138.92,-106.72
0.09912109,0.4008789,-0.9108887,-0.4732824,2.007634,5.862596,21.16,-138.92,-106.72
0.0925293,0.3945313,-0.887207,-0.1145038,2.167939,4.40458,21.16,-138.92,-106.72
0.08837891,0.4030762,-0.8974609,0.4732824,1.503817,2.900763,21.16,-138.92,-106.72
0.07836914,0.4116211,-0.8937988,-0.2442748,3.641221,1.030534,21.16,-138.92,-106.72
0.06933594,0.4155273,-0.8996582,1.282443,4.671756,0.2977099,21.16,-138.92,-106.72
0.08007813,0.4050293,-0.9050293,2.206107,9.358779,0.519084,21.16,-138.92,-106.72
0.07250977,0.3867188,-0.9016113,-1.847328,9.969465,3.648855,21.16,-138.92,-106.72
0.08349609,0.3779297,-0.909668,-4.458015,14.68702,5.80916,21.16,-138.92,-106.72
0.09399414,0.3696289,-0.9211426,-5.061069,15.61069,7.343512,21.16,-138.92,-106.72
0.1225586,0.3886719,-0.9072266,-5.908397,6.885496,7.870229,19.32,-139.84,-106.72
0.137207,0.4206543,-0.8916016,-2.770992,-0.1603053,2.740458,19.32,-139.84,-106.72
0.1254883,0.4443359,-0.8664551,1.29771,-1.427481,-0.7251908,19.32,-139.84,-106.72
0.1096191,0.4660645,-0.8630371,1.587786,-0.5877862,-3.419847,17.48,-139.84,-104.88
0.09619141,0.4313965,-0.8569336,8.0,-1.137405,-7.450382,17.48,-139.84,-104.88
0.07299805,0.4233398,-0.8886719,11.84733,-3.51145,-5.549618,19.32,-139.84,-104.88
0.0534668,0.4116211,-0.9216309,9.274809,5.290076,0.5419847,19.32,-139.84,-104.88
0.05297852,0.3864746,-0.934082,1.0,11.93893,1.564886,19.32,-139.84,-104.88
0.07080078,0.3754883,-0.9130859,-4.167939,12.61832,2.206107,20.24,-139.84,-105.8
0.07104492,0.3984375,-0.8991699,-8.740458,5.740458,3.938931,20.24,-139.84,-105.8
0.07055664,0.4279785,-0.8808594,-6.961832,5.709924,4.015267,20.24,-139.84,-105.8
0.1325684,0.3928223,-0.8857422,-0.03053435,9.656488,4.145038,18.4,-140.76,-104.88
0.1499023,0.4160156,-0.8820801,3.389313,0.5954198,-1.587786,17.48,-140.76,-104.88
0.1225586,0.411377,-0.9089355,8.305344,-0.2442748,-3.679389,17.48,-140.76,-104.88
0.08618164,0.4187012,-0.9111328,5.396946,4.259542,-3.053435,17.48,-140.76,-104.88
0.09008789,0.4091797,-0.9033203,3.465649,6.778626,-1.389313,17.48,-139.84,-104.88
0.09838867,0.4216309,-0.8869629,-0.4656488,4.114504,4.022901,17.48,-139.84,-104.88
0.1022949,0.4714355,-0.8713379,-4.564886,1.694656,3.259542,17.48,-140.76,-104.88
0.107666,0.4755859,-0.8693848,-0.9541985,5.732824,-1.732824,17.48,-140.76,-104.88
0.1242676,0.4233398,-0.880127,-0.8778625,11.52672,-1.694656,17.48,-140.76,-104.88
0.1459961,0.3984375,-0.8806152,-0.9312977,8.21374,-2.694656,17.48,-139.84,-104.88
0.1030273,0.3815918,-0.8466797,9.877863,-6.053435,-8.977099,17.48,-139.84,-104.88
0.05541992,0.4091797,-0.9199219,13.1374,0.007633588,-8.068703,17.48,-139.84,-104.88
0.07104492,0.4262695,-0.9477539,4.519084,8.511451,-3.145038,18.4,-139.84,-105.8
0.07861328,0.3632813,-0.9003906,0.2824428,6.778626,-0.259542,18.4,-139.84,-105.8
0.07788086,0.3718262,-0.8857422,3.977099,-1.832061,-1.671756,19.32,-139.84,-104.88
0.09057617,0.4436035,-0.9243164,0.6412213,-0.07633588,-0.5496183,19.32,-139.84,-104.88
0.09936523,0.4399414,-0.8959961,-1.076336,4.78626,0.3206107,19.32,-139.84,-104.88
0.1037598,0.3908691,-0.8745117,0.5343512,8.0,1.694656,19.32,-139.84,-105.8
0.1274414,0.4052734,-0.8840332,0.7022901,9.580153,4.541985,19.32,-139.84,-105.8
0.1225586,0.4211426,-0.9006348,-3.740458,4.122138,2.633588,19.32,-139.84,-105.8
0.1152344,0.3884277,-0.871582,-0.8549618,1.0,-1.251908,18.4,-139.84,-104.88
0.08544922,0.3845215,-0.8837891,5.198473,2.099237,-1.80916,18.4,-139.84,-104.88
0.06079102,0.4199219,-0.9299316,2.068702,11.32824,1.603053,19.32,-139.84,-104.88
0.07885742,0.4243164,-0.8933105,-2.427481,9.427481,0.3969466,19.32,-139.84,-104.88
0.09399414,0.4023438,-0.8591309,0.04580153,2.977099,-2.381679,19.32,-139.84,-104.88
0.1115723,0.4255371,-0.8977051,-1.625954,9.251908,-1.816794,18.4,-139.84,-104.88
0.112793,0.435791,-0.895752,-4.145038,6.038168,-0.9083969,18.4,-139.84,-104.88
0.09985352,0.3837891,-0.8510742,5.78626,0.08396947,-6.229008,18.4,-139.84,-104.88
0.0769043,0.4047852,-0.9362793,5.229008,9.954199,-1.282443,17.48,-139.84,-104.88
0.08007813,0.4333496,-0.935791,-2.290076,13.35114,4.465649,17.48,-139.84,-104.88
0.09570313,0.4243164,-0.888916,-4.343512,12.41985,2.435115,16.56,-139.84,-104.88
0.1030273,0.4069824,-0.8876953,-6.374046,10.71756,1.015267,16.56,-139.84,-104.88
0.1184082,0.4260254,-0.888916,-8.374045,11.94656,2.007634,16.56,-139.84,-104.88
0.1179199,0.4289551,-0.8659668,-5.656488,8.709924,0.2748091,15.64,-139.84,-104.88
0.09741211,0.4204102,-0.864502,-1.419847,5.312977,-3.679389,15.64,-139.84,-104.88
0.09399414,0.4279785,-0.8898926,1.328244,8.938931,-2.526718,15.64,-139.84,-104.88
0.08935547,0.4384766,-0.9082031,-1.877863,10.54962,-1.335878,14.72,-140.76,-104.88
0.1147461,0.4204102,-0.8874512,-0.4122138,10.41221,-2.068702,14.72,-140.76,-104.88
0.1396484,0.4008789,-0.8947754,-2.167939,11.35878,2.557252,13.8,-139.84,-104.88
0.1574707,0.4379883,-0.8874512,-5.885496,12.76336,6.175572,13.8,-139.84,-104.88
0.1625977,0.4575195,-0.8666992,-5.061069,10.29008,5.022901,13.8,-139.84,-104.88
0.1518555,0.4379883,-0.8459473,-1.641221,7.183206,-0.3969466,11.96,-140.76,-103.96
0.1416016,0.423584,-0.8720703,4.709924,10.44275,0.3587786,11.96,-140.76,-103.96
0.1437988,0.4562988,-0.890625,1.465649,10.53435,2.007634,11.96,-140.76,-103.96
0.1340332,0.4577637,-0.8701172,2.381679,5.038168,-2.458015,11.96,-140.76,-104.88
0.1137695,0.4484863,-0.8796387,2.534351,6.847328,-3.366412,11.96,-140.76,-104.88
0.1218262,0.4509277,-0.8752441,-2.274809,9.541985,1.099237,11.04,-140.76,-104.88
0.1325684,0.453125,-0.8603516,-0.129771,10.35114,0.4656488,11.04,-140.76,-104.88
0.1291504,0.4360352,-0.8789063,1.328244,7.236641,0.7251908,11.04,-140.76,-104.88
0.1218262,0.4289551,-0.8793945,1.465649,7.030534,2.312977,10.12,-140.76,-104.88
0.140625,0.4423828,-0.8896484,-6.274809,15.0229,14.42748,10.12,-140.76,-104.88
0.1682129,0.4367676,-0.871582,-14.71756,17.84733,13.22137,10.12,-140.76,-104.88
0.1894531,0.4394531,-0.8601074,-10.39695,14.21374,12.22901,10.12,-140.76,-104.88
0.1967773,0.4624023,-0.8393555,-8.526717,8.259542,9.40458,6.44,-140.76,-103.96
0.1828613,0.4787598,-0.8305664,-1.290076,2.51145,4.167939,6.44,-140.76,-103.96
0.1833496,0.4714355,-0.8354492,4.755725,0.2671756,0.6335878,6.44,-140.76,-103.96
0.1672363,0.4604492,-0.8466797,11.06107,0.6183206,-2.366412,5.52,-141.68,-103.04
0.1618652,0.4484863,-0.8730469,12.78626,3.015267,-3.137405,5.52,-141.68,-103.04
0.1733398,0.4343262,-0.8808594,11.49618,1.015267,-5.435114,7.36,-140.76,-103.96
0.1660156,0.4284668,-0.887207,8.488549,-1.320611,-4.40458,7.36,-140.76,-103.96
0.1660156,0.4394531,-0.880127,3.931298,1.824428,-4.931298,7.36,-140.76,-103.96
0.170166,0.4455566,-0.8779297,2.473282,1.526718,-6.114504,8.28,-140.76,-104.88
0.1767578,0.4355469,-0.8806152,4.412214,1.755725,-4.755725,8.28,-140.76,-104.88
0.154541,0.4338379,-0.8562012,5.725191,0.1908397,-3.290076,8.28,-140.76,-104.88
0.1508789,0.4443359,-0.8522949,6.778626,1.183206,-3.175573,8.28,-140.76,-105.8
0.1428223,0.4511719,-0.8696289,5.709924,0.3740458,-3.396947,8.28,-140.76,-105.8
0.1433105,0.4306641,-0.8825684,5.51145,-1.137405,-3.458015,10.12,-139.84,-105.8
0.1462402,0.4204102,-0.8833008,5.648855,1.870229,-1.51145,10.12,-139.84,-105.8
0.157959,0.421875,-0.8742676,4.664122,1.038168,-0.2748091,10.12,-139.84,-105.8
0.152832,0.411377,-0.8728027,5.267176,-1.366412,0.007633588,10.12,-139.84,-105.8
0.1540527,0.4191895,-0.8852539,5.709924,-0.1221374,-0.5801527,10.12,-139.84,-105.8
0.1486816,0.4306641,-0.8920898,3.900763,-2.687023,-0.4885496,10.12,-139.84,-105.8
0.1437988,0.4240723,-0.8930664,3.251908,-1.282443,0.2442748,11.96,-139.84,-106.72
0.1513672,0.4228516,-0.8691406,3.396947,-1.648855,-0.5496183,11.96,-139.84,-106.72
0.1430664,0.4289551,-0.8720703,5.572519,0.870229,-1.442748,12.88,-139.84,-106.72
0.142334,0.4196777,-0.8835449,6.717557,1.610687,-2.580153,12.88,-139.84,-106.72
0.1340332,0.404541,-0.8862305,6.480916,2.061069,-0.8015267,12.88,-139.84,-106.72
0.1357422,0.4150391,-0.9016113,3.175573,1.618321,1.717557,13.8,-139.84,-106.72
0.1352539,0.4187012,-0.8830566,3.687023,3.374046,1.694656,13.8,-139.84,-106.72
0.1413574,0.4055176,-0.8903809,3.732824,5.068702,1.946565,13.8,-139.84,-106.72
0.1367188,0.4040527,-0.8894043,2.129771,2.030534,1.396947,13.8,-139.84,-106.72
0.1296387,0.4169922,-0.8825684,2.931298,1.320611,-0.03053435,13.8,-139.84,-106.72
0.1347656,0.4289551,-0.8847656,4.580153,2.885496,-0.03053435,13.8,-138.92,-106.72
0.137207,0.4125977,-0.8828125,4.671756,3.473282,-0.05343511,13.8,-138.92,-106.72
0.1308594,0.4006348,-0.8845215,5.061069,7.236641,0.1221374,13.8,-138.92,-106.72
0.1291504,0.4035645,-0.8955078,5.824428,4.21374,-1.625954,13.8,-138.92,-107.64
0.1169434,0.4084473,-0.887207,5.954198,2.496183,-0.9465649,13.8,-138.92,-107.64
0.1166992,0.4057617,-0.8935547,5.984733,1.274809,-1.282443,13.8,-138.92,-107.64
0.1210938,0.4038086,-0.8981934,5.480916,1.526718,-0.9389313,14.72,-138.92,-107.64
0.1188965,0.3964844,-0.9023438,6.396946,0.3282443,0.1603053,14.72,-138.92,-107.64
0.1213379,0.3979492,-0.8933105,7.89313,1.78626,1.038168,15.64,-138.92,-107.64
0.1274414,0.4074707,-0.8994141,6.793893,2.793893,2.763359,15.64,-138.92,-107.64
0.1386719,0.418457,-0.8955078,2.641221,4.045802,3.870229,15.64,-138.92,-107.64
0.1379395,0.3962402,-0.8898926,4.931298,3.076336,2.725191,15.64,-138.92,-107.64
0.1333008,0.4006348,-0.8964844,2.450382,6.847328,3.938931,15.64,-138.92,-107.64
0.1318359,0.4057617,-0.904541,1.030534,8.725191,5.015267,15.64,-138.92,-107.64
0.140625,0.4001465,-0.8928223,-1.358779,8.938931,4.167939,15.64,-138.92,-108.56
0.1450195,0.3903809,-0.890625,-0.1450382,9.198473,2.80916,15.64,-138.92,-108.56
0.1540527,0.3950195,-0.9006348,0.07633588,8.816793,2.198473,14.72,-138.92,-107.64
0.1489258,0.3984375,-0.8901367,-0.7633588,8.091603,2.89313,14.72,-138.92,-107.64
0.1477051,0.4001465,-0.8942871,-0.5419847,6.21374,-0.961832,14.72,-138.92,-107.64
0.1413574,0.4125977,-0.9050293,3.198473,7.648855,-4.335878,14.72,-138.92,-107.64
0.1396484,0.4055176,-0.9033203,1.664122,7.923664,-3.366412,13.8,-138.92,-108.56
0.1350098,0.4077148,-0.8886719,-0.05343511,10.01527,-1.175573,13.8,-138.92,-108.56
0.1401367,0.4084473,-0.8925781,-2.229008,10.01527,-0.6793893,13.8,-138.92,-108.56
0.1455078,0.4055176,-0.8979492,-3.328244,8.312977,0.3358779,12.88,-138.92,-107.64
0.1574707,0.404541,-0.8833008,-2.732824,9.221375,0.7251908,12.88,-138.92,-107.64
0.1679688,0.4055176,-0.8874512,-2.274809,8.671756,-0.6946565,12.88,-138.92,-107.64
0.1682129,0.3999023,-0.880127,-0.7022901,4.442748,-3.480916,11.96,-138.92,-108.56
0.1567383,0.3881836,-0.8862305,5.358778,6.274809,-3.038168,11.96,-138.92,-108.56
0.1489258,0.4006348,-0.8840332,1.328244,3.580153,-2.564885,11.96,-138.92,-108.56
0.1547852,0.4152832,-0.8830566,1.045802,4.847328,-3.900763,11.96,-138.92,-108.56
0.1557617,0.4179688,-0.8759766,0.3206107,-0.04580153,-4.671756,11.96,-138.92,-108.56
0.1486816,0.4130859,-0.8786621,2.748092,-0.129771,-5.732824,11.96,-138.92,-108.56
0.1367188,0.4042969,-0.8896484,4.816794,1.877863,-6.78626,11.96,-138.92,-108.56
0.1218262,0.3972168,-0.8879395,5.847328,5.038168,-6.053435,11.96,-138.92,-108.56
0.121582,0.4030762,-0.894043,2.51145,3.419847,-3.732824,12.88,-138.92,-108.56
0.1330566,0.407959,-0.8937988,-0.4885496,1.572519,-2.778626,12.88,-138.92,-108.56
0.1396484,0.4191895,-0.8874512,-0.08396947,-0.8931297,-2.839695,13.8,-138.92,-108.56
0.1350098,0.4179688,-0.8886719,0.5038168,3.656489,-1.694656,13.8,-138.92,-108.56
0.1447754,0.4020996,-0.8913574,1.328244,7.89313,-1.732824,13.8,-138.92,-108.56
0.1359863,0.401123,-0.8920898,0.8549618,7.725191,1.236641,12.88,-138.92,-108.56
0.135498,0.407959,-0.8896484,-1.847328,6.91603,3.099237,12.88,-138.92,-108.56
0.1413574,0.4248047,-0.887207,-1.152672,2.816794,2.450382,12.88,-138.92,-108.56
0.1445313,0.4160156,-0.8791504,-0.480916,2.122137,0.7709923,12.88,-138.92,-108.56
0.1433105,0.4067383,-0.8891602,0.7557252,4.091603,1.801527,12.88,-138.92,-108.56
0.1452637,0.4033203,-0.8803711,0.2977099,2.748092,0.2061069,12.88,-138.92,-107.64
0.1577148,0.4072266,-0.8886719,2.083969,2.343511,-1.519084,12.88,-138.92,-107.64
0.1535645,0.4145508,-0.8881836,3.519084,0.0610687,-5.580153,12.88,-138.92,-107.64
0.1345215,0.4182129,-0.8901367,3.007634,-1.625954,-7.007634,13.8,-138.92,-107.64
0.1269531,0.4243164,-0.8913574,4.564886,0.5038168,-5.366412,13.8,-138.92,-107.64
0.1252441,0.4289551,-0.8896484,2.839695,4.717557,-3.335878,13.8,-138.92,-107.64
0.121582,0.4206543,-0.8859863,0.4198473,5.816794,-2.587786,14.72,-138.92,-108.56
0.1188965,0.4150391,-0.8862305,-0.5877862,5.351145,-2.099237,14.72,-138.92,-108.56
0.1259766,0.4165039,-0.8835449,-1.80916,8.801527,0.5801527,13.8,-138.92,-108.56
0.142334,0.4101563,-0.8806152,-3.664122,6.137404,3.175573,13.8,-138.92,-108.56
0.1452637,0.4082031,-0.8762207,0.6870229,5.534351,1.519084,13.8,-138.92,-108.56
0.1391602,0.4055176,-0.876709,1.343511,0.3053435,-0.961832,13.8,-138.92,-107.64
0.1237793,0.4177246,-0.8798828,2.022901,1.083969,-1.442748,13.8,-138.92,-107.64
0.1118164,0.4226074,-0.8928223,3.862595,0.5801527,0.08396947,13.8,-138.92,-107.64
0.1088867,0.4140625,-0.9040527,0.7099237,3.641221,3.503817,13.8,-138.92,-107.64
0.1137695,0.418457,-0.8981934,-0.778626,3.816794,3.664122,13.8,-138.92,-107.64
0.1359863,0.4111328,-0.8967285,-1.381679,6.900764,4.259542,13.8,-138.92,-107.64
0.1552734,0.4165039,-0.8820801,-3.061069,4.122138,1.48855,13.8,-138.92,-107.64
0.1584473,0.4174805,-0.8752441,0.1145038,1.717557,-2.114504,13.8,-138.92,-107.64
0.1535645,0.4240723,-0.8771973,2.763359,1.587786,-6.335878,13.8,-138.92,-106.72
0.1359863,0.4216309,-0.8793945,3.793893,1.717557,-7.519084,13.8,-138.92,-106.72
0.1184082,0.421875,-0.8796387,5.40458,6.91603,-5.587786,13.8,-138.92,-106.72
0.109375,0.421875,-0.8864746,5.312977,8.022901,-3.625954,13.8,-138.92,-107.64
0.1115723,0.4211426,-0.8908691,0.351145,5.465649,-1.618321,13.8,-138.92,-107.64
0.1147461,0.4128418,-0.8935547,-0.5648855,7.541985,3.572519,13.8,-138.92,-107.64
0.1352539,0.4094238,-0.8884277,-2.748092,8.312977,6.358778,13.8,-138.92,-107.64
0.1533203,0.4172363,-0.8842773,0.351145,4.923664,-0.2519084,12.88,-138.92,-107.64
0.1555176,0.4152832,-0.8840332,2.740458,3.030534,-2.832061,12.88,-138.92,-107.64
0.1386719,0.4196777,-0.8825684,3.900763,0.9923664,-3.923664,12.88,-138.92,-106.72
0.1313477,0.4248047,-0.8862305,4.992366,2.183206,-2.969466,12.88,-138.92,-106.72
0.1223145,0.4294434,-0.8891602,2.679389,2.748092,-3.656489,12.88,-138.92,-106.72
0.1162109,0.4211426,-0.8823242,2.870229,3.053435,-3.282443,13.8,-138.92,-107.64
0.1235352,0.4125977,-0.8908691,0.4274809,6.587786,-0.4732824,13.8,-138.92,-107.64
0.1308594,0.4199219,-0.8820801,1.259542,5.366412,0.6870229,13.8,-138.92,-107.64
0.1342773,0.4204102,-0.8857422,0.1832061,5.221374,1.007634,13.8,-138.92,-107.64
0.1252441,0.4177246,-0.887207,1.305344,7.48855,1.419847,13.8,-138.92,-107.64
0.125,0.4179688,-0.8859863,1.458015,5.977099,1.748092,12.88,-138.92,-107.64
0.128418,0.4174805,-0.8793945,0.7862596,9.206107,1.137405,12.88,-138.92,-107.64
0.1357422,0.4133301,-0.8771973,0.9083969,4.694656,0.5267176,12.88,-138.92,-107.64
0.1335449,0.4177246,-0.8950195,1.076336,2.328244,-0.9160305,12.88,-138.92,-107.64
0.1271973,0.4196777,-0.890625,2.122137,6.366412,1.267176,12.88,-138.92,-107.64
0.1425781,0.4160156,-0.8774414,0.0,5.954198,0.6030535,12.88,-138.92,-107.64
0.1445313,0.4147949,-0.8774414,2.931298,4.91603,-0.480916,12.88,-138.92,-107.64
0.1296387,0.4226074,-0.8896484,2.160305,6.290076,0.7251908,12.88,-138.92,-107.64
0.1381836,0.427002,-0.8894043,-0.04580153,6.954198,2.419847,12.88,-138.92,-107.64
0.1503906,0.421875,-0.8762207,1.358779,5.526718,2.145038,12.88,-138.92,-107.64
0.1477051,0.4177246,-0.8769531,4.557252,4.824428,1.977099,12.88,-138.92,-107.64
0.1376953,0.4213867,-0.8867188,3.801527,5.748092,3.137405,12.88,-138.92,-107.64
0.1362305,0.4199219,-0.8886719,1.366412,6.114504,3.282443,12.88,-138.92,-107.64
0.1318359,0.4069824,-0.8862305,4.08397,8.778625,2.839695,12.88,-138.92,-107.64
0.1398926,0.4069824,-0.892334,3.458015,6.053435,1.877863,11.96,-138.92,-107.64
0.1455078,0.4255371,-0.890625,2.236641,4.099236,1.694656,11.96,-138.92,-107.64
0.1413574,0.4243164,-0.8710938,2.229008,2.732824,1.732824,11.96,-138.92,-107.64
0.1379395,0.4135742,-0.8789063,3.137405,2.824427,1.015267,11.96,-138.92,-107.64
0.1467285,0.4101563,-0.8759766,5.992366,4.580153,-0.2366412,11.96,-138.92,-107.64
0.1484375,0.4094238,-0.8916016,5.656488,3.358779,-0.2824428,11.96,-138.92,-107.64
0.1547852,0.3962402,-0.8935547,6.419847,1.015267,-1.847328,11.96,-138.92,-107.64
0.1542969,0.40625,-0.8825684,6.099236,-1.824428,-2.022901,11.96,-138.92,-107.64
0.1384277,0.4069824,-0.880127,4.679389,2.954198,-0.4580153,12.88,-138.92,-109.48
0.1318359,0.420166,-0.890625,6.534351,1.732824,0.4122138,12.88,-138.92,-109.48
0.1269531,0.4106445,-0.887207,5.48855,1.938931,1.839695,13.8,-138.0,-108.56
0.1235352,0.4143066,-0.8884277,3.870229,2.274809,3.870229,13.8,-138.0,-108.56
0.1359863,0.4130859,-0.885498,5.389313,2.992366,7.312977,13.8,-138.0,-108.56
0.1359863,0.4013672,-0.8945313,2.671756,0.1068702,6.870229,14.72,-138.92,-108.56
0.1459961,0.3879395,-0.9003906,4.656488,1.473282,8.145039,14.72,-138.92,-108.56
0.1455078,0.3852539,-0.8979492,3.954198,1.396947,7.221374,14.72,-138.92,-108.56
0.145752,0.3942871,-0.8876953,7.412214,-0.1526718,5.40458,14.72,-138.92,-108.56
0.1418457,0.3908691,-0.8994141,6.89313,0.2290076,1.412214,14.72,-138.92,-108.56
0.1318359,0.3962402,-0.9016113,5.229008,0.04580153,0.4427481,15.64,-138.92,-108.56
0.1335449,0.3994141,-0.9067383,4.984733,3.51145,-0.1679389,15.64,-138.92,-108.56
0.1318359,0.3979492,-0.9020996,4.137404,4.625954,0.03053435,15.64,-138.92,-108.56
0.137207,0.3881836,-0.8974609,2.641221,1.152672,-1.519084,15.64,-138.0,-108.56
0.1313477,0.3903809,-0.8967285,2.183206,1.290076,-1.885496,15.64,-138.0,-108.56
0.1311035,0.395752,-0.8999023,2.259542,3.534351,-1.030534,15.64,-138.0,-108.56
0.1276855,0.3850098,-0.902832,4.08397,4.603054,-2.480916,16.56,-138.0,-108.56
0.1335449,0.3779297,-0.9067383,6.10687,4.396946,-1.946565,16.56,-138.0,-108.56
0.1274414,0.3964844,-0.8986816,4.427481,2.007634,-1.335878,16.56,-138.0,-108.56
0.1196289,0.3820801,-0.8974609,2.633588,3.78626,-1.343511,16.56,-138.0,-108.56
0.1281738,0.3911133,-0.9033203,4.045802,4.114504,-0.3053435,16.56,-138.0,-108.56
0.1220703,0.3857422,-0.8962402,2.145038,3.282443,-1.519084,16.56,-138.0,-108.56
0.1184082,0.3791504,-0.9052734,3.519084,4.519084,-1.40458,17.48,-138.0,-108.56
0.1281738,0.3859863,-0.8996582,1.129771,4.366412,-1.679389,17.48,-138.0,-108.56
0.1323242,0.3913574,-0.8903809,2.099237,3.320611,-1.709924,17.48,-138.0,-108.56
0.1245117,0.3911133,-0.8981934,-0.07633588,1.648855,-2.114504,17.48,-138.0,-109.48
0.1159668,0.3869629,-0.8952637,2.473282,3.206107,-2.0,17.48,-138.0,-109.48
0.1164551,0.3903809,-0.8930664,2.503817,4.519084,-1.541985,17.48,-138.0,-109.48
0.1208496,0.388916,-0.9001465,1.625954,3.244275,-1.259542,17.48,-138.0,-109.48
0.1184082,0.3837891,-0.9069824,0.5572519,1.832061,-1.923664,17.48,-138.0,-109.48
0.1201172,0.3825684,-0.9047852,3.221374,2.80916,-1.564886,17.48,-138.0,-109.48
0.1181641,0.3803711,-0.9067383,4.717557,4.236641,-1.351145,17.48,-138.0,-109.48
0.1271973,0.3869629,-0.8981934,3.221374,3.0,-2.145038,17.48,-138.0,-109.48
0.1223145,0.3818359,-0.9040527,3.229008,3.694656,-2.10687,17.48,-137.08,-109.48
0.1166992,0.3864746,-0.9001465,4.022901,2.236641,-2.305344,17.48,-137.08,-109.48
0.1140137,0.3781738,-0.9108887,3.221374,5.015267,-2.282443,17.48,-137.08,-109.48
0.1176758,0.3823242,-0.9035645,1.603053,4.236641,-2.10687,18.4,-137.08,-109.48
0.1181641,0.3847656,-0.8937988,1.557252,0.8015267,-2.389313,18.4,-137.08,-109.48
0.1179199,0.3896484,-0.8896484,2.687023,1.358779,-3.503817,18.4,-138.0,-109.48
0.105957,0.3864746,-0.9013672,3.526718,-0.1526718,-3.725191,18.4,-138.0,-109.48
0.1000977,0.3818359,-0.9118652,4.160306,3.221374,-2.679389,18.4,-138.0,-109.48
0.1079102,0.3828125,-0.9179688,2.839695,5.480916,-0.4122138,19.32,-137.08,-110.4
0.1091309,0.3754883,-0.8962402,3.244275,4.969466,-0.3969466,19.32,-137.08,-110.4
0.1108398,0.3759766,-0.8979492,2.656489,4.167939,-0.4198473,19.32,-137.08,-110.4
0.1130371,0.3796387,-0.9084473,0.8396947,3.725191,-0.8854962,19.32,-137.08,-110.4
0.1171875,0.3771973,-0.9020996,2.694656,4.335878,-0.007633588,19.32,-137.08,-110.4
0.1074219,0.3840332,-0.9050293,0.6412213,3.854962,0.5572519,19.32,-137.08,-109.48
0.1118164,0.3808594,-0.9013672,0.9389313,5.580153,0.5572519,19.32,-137.08,-109.48
0.1142578,0.3808594,-0.9086914,1.40458,3.603053,-0.7557252,19.32,-137.08,-109.48
0.1130371,0.373291,-0.9055176,2.076336,4.740458,-0.0610687,19.32,-137.08,-109.48
0.112793,0.3815918,-0.9072266,1.923664,5.221374,-0.5572519,19.32,-137.08,-109.48
0.1206055,0.3884277,-0.9023438,1.396947,3.015267,-1.389313,19.32,-137.08,-109.48
0.1159668,0.3803711,-0.9047852,1.396947,3.969466,-1.908397,19.32,-137.08,-109.48
0.1052246,0.3796387,-0.9069824,2.954198,6.122138,-0.5572519,19.32,-137.08,-109.48
0.1032715,0.3837891,-0.9052734,2.320611,2.832061,-0.3053435,19.32,-137.08,-109.48
0.1152344,0.3842773,-0.9106445,1.251908,4.625954,-0.9770992,19.32,-137.08,-109.48
0.1132813,0.3808594,-0.90625,1.656489,6.396946,-0.2442748,19.32,-137.08,-109.48
0.1083984,0.3803711,-0.9091797,0.9312977,6.320611,0.480916,18.4,-137.08,-109.48
0.1098633,0.3830566,-0.904541,1.900763,6.641222,1.679389,18.4,-137.08,-109.48
0.1235352,0.3862305,-0.9050293,0.519084,4.816794,-0.08396947,18.4,-137.08,-109.48
0.119873,0.375,-0.909668,1.679389,1.740458,-0.4961832,18.4,-137.08,-110.4
0.1074219,0.3808594,-0.9069824,2.931298,4.938931,-0.6564885,18.4,-137.08,-110.4
0.1103516,0.3811035,-0.902832,2.236641,4.763359,-0.09160305,18.4,-137.08,-110.4
0.1123047,0.385498,-0.9035645,1.320611,3.923664,-0.480916,18.4,-137.08,-110.4
0.1137695,0.3776855,-0.9089355,2.687023,4.175572,-0.7557252,18.4,-137.08,-110.4
0.1171875,0.3830566,-0.9084473,2.717557,4.061069,-0.389313,18.4,-137.08,-109.48
0.1081543,0.3842773,-0.9086914,1.091603,3.801527,0.5267176,18.4,-137.08,-109.48
0.1118164,0.3803711,-0.9020996,1.603053,6.557252,0.2977099,18.4,-137.08,-109.48
0.1171875,0.3769531,-0.8979492,1.0,4.183206,-0.480916,18.4,-137.08,-110.4
0.1135254,0.3881836,-0.9025879,2.427481,4.557252,-0.2519084,18.4,-137.08,-110.4
0.1147461,0.3710938,-0.9060059,3.48855,4.839694,0.6870229,18.4,-137.08,-110.4
0.1096191,0.380127,-0.9072266,2.038168,2.954198,0.9083969,18.4,-137.08,-110.4
0.1081543,0.3828125,-0.9040527,-0.129771,3.59542,0.7175572,18.4,-137.08,-110.4
0.114502,0.3835449,-0.9020996,1.977099,5.0,1.335878,18.4,-137.08,-110.4
0.1174316,0.3833008,-0.8989258,2.030534,6.458015,0.6641222,19.32,-137.08,-110.4
0.1159668,0.3811035,-0.9042969,3.061069,5.549618,1.412214,19.32,-137.08,-110.4
0.1088867,0.378418,-0.9057617,3.519084,3.473282,0.06870229,19.32,-137.08,-110.4
0.1069336,0.3791504,-0.9077148,3.145038,4.61832,-0.8854962,18.4,-137.08,-110.4
0.109375,0.3833008,-0.9067383,0.5725191,1.755725,-0.5343512,18.4,-137.08,-110.4
0.1105957,0.3806152,-0.9030762,1.083969,3.916031,0.3282443,18.4,-137.08,-110.4
0.1098633,0.3730469,-0.901123,2.274809,4.862596,0.1755725,18.4,-137.08,-110.4
0.1105957,0.3808594,-0.8977051,1.793893,4.312977,0.351145,18.4,-137.08,-110.4
0.1125488,0.376709,-0.9030762,3.442748,6.648855,0.4045802,19.32,-137.08,-110.4
0.1186523,0.3735352,-0.9128418,1.0,3.374046,0.9694656,19.32,-137.08,-110.4
0.1193848,0.3825684,-0.9023438,2.160305,4.755725,0.5801527,19.32,-137.08,-110.4
0.1174316,0.3774414,-0.8969727,2.282443,2.961832,-0.2671756,18.4,-137.08,-109.48
0.1169434,0.3762207,-0.9089355,4.221374,4.08397,-0.1145038,18.4,-137.08,-109.48
0.1113281,0.373291,-0.9086914,2.007634,2.839695,-0.5114504,18.4,-137.08,-109.48
0.112793,0.3759766,-0.9060059,3.732824,4.145038,-1.351145,18.4,-137.08,-110.4
0.1113281,0.3798828,-0.9057617,3.877863,3.427481,-0.1679389,18.4,-137.08,-110.4
0.1098633,0.3747559,-0.9050293,2.801527,4.198473,0.5954198,19.32,-137.08,-110.4
0.1137695,0.3742676,-0.9047852,1.648855,3.29771,0.389313,19.32,-137.08,-110.4
0.1098633,0.3771973,-0.8996582,3.51145,4.0,-0.1068702,19.32,-137.08,-110.4
0.1054688,0.3779297,-0.9086914,2.282443,4.816794,-0.6641222,19.32,-137.08,-111.32
0.1044922,0.3708496,-0.911377,0.8167939,1.534351,-0.2671756,19.32,-137.08,-111.32
0.1054688,0.3752441,-0.9104004,2.854962,5.458015,-0.2137404,19.32,-137.08,-111.32
0.1091309,0.3742676,-0.9106445,0.9389313,4.740458,-0.5038168,19.32,-136.16,-110.4
0.1108398,0.3684082,-0.9160156,0.9312977,4.51145,0.09160305,19.32,-136.16,-110.4
0.1103516,0.3693848,-0.9055176,1.770992,4.770992,-0.02290076,20.24,-137.08,-110.4
0.1123047,0.3757324,-0.9030762,1.412214,4.923664,0.3740458,20.24,-137.08,-110.4
0.1193848,0.3806152,-0.8977051,1.351145,2.603053,-1.152672,20.24,-137.08,-110.4
0.1096191,0.376709,-0.9020996,3.78626,4.221374,-1.114504,19.32,-136.16,-111.32
0.1040039,0.3725586,-0.9072266,3.541985,4.450382,-1.854962,19.32,-136.16,-111.32
0.1054688,0.3747559,-0.9077148,1.267176,3.374046,-1.900763,19.32,-136.16,-111.32
0.1044922,0.3769531,-0.9020996,1.557252,3.610687,-1.381679,19.32,-137.08,-111.32
0.1032715,0.3725586,-0.9094238,-0.007633588,1.458015,-2.19084,19.32,-137.08,-111.32
0.1040039,0.3730469,-0.9128418,0.9847328,3.931298,-1.320611,19.32,-137.08,-110.4
0.1035156,0.373291,-0.911377,0.4274809,4.717557,-0.4503817,19.32,-137.08,-110.4
0.1108398,0.3725586,-0.895752,0.3969466,4.335878,-0.1221374,19.32,-137.08,-110.4
0.1066895,0.3681641,-0.9057617,1.885496,1.503817,-0.7251908,20.24,-137.08,-111.32
0.1049805,0.3820801,-0.9121094,2.160305,4.374046,-1.51145,20.24,-137.08,-111.32
0.1047363,0.3769531,-0.9111328,1.19084,2.671756,-0.7557252,20.24,-137.08,-111.32
0.1062012,0.3701172,-0.9086914,1.328244,3.229008,-1.343511,20.24,-136.16,-111.32
0.1081543,0.3679199,-0.9023438,1.656489,1.465649,-1.549618,20.24,-136.16,-111.32
0.1088867,0.3742676,-0.9128418,1.549618,4.030534,-0.8396947,19.32,-136.16,-111.32
0.1081543,0.3747559,-0.9091797,1.137405,4.389313,0.1679389,19.32,-136.16,-111.32
0.1101074,0.3696289,-0.9040527,3.145038,5.343512,-1.290076,19.32,-136.16,-111.32
0.1103516,0.3720703,-0.9240723,0.8778625,3.687023,0.1450382,20.24,-136.16,-110.4
0.09985352,0.3796387,-0.9123535,1.29771,4.832061,-0.7022901,20.24,-136.16,-110.4
0.1000977,0.3789063,-0.9016113,2.473282,4.587786,-1.229008,20.24,-136.16,-110.4
0.1049805,0.3669434,-0.9140625,1.725191,5.091603,-0.4961832,19.32,-136.16,-111.32
0.1022949,0.3669434,-0.9033203,2.916031,5.206107,0.06870229,19.32,-136.16,-111.32
0.1044922,0.3737793,-0.9155273,0.4122138,4.648855,-0.09923664,19.32,-136.16,-111.32
0.1103516,0.3706055,-0.9050293,2.48855,5.061069,0.8549618,19.32,-136.16,-111.32
0.1074219,0.3781738,-0.9035645,1.442748,3.145038,-0.03816794,20.24,-136.16,-111.32
0.1101074,0.3723145,-0.9055176,4.114504,4.740458,-0.6335878,20.24,-136.16,-111.32
0.1071777,0.3754883,-0.9116211,0.5038168,3.29771,-0.8854962,20.24,-136.16,-111.32
0.1027832,0.3747559,-0.9038086,0.519084,3.946565,-0.4198473,20.24,-136.16,-111.32
0.1083984,0.375,-0.9147949,0.9465649,5.091603,0.2290076,20.24,-136.16,-111.32
0.1054688,0.3789063,-0.909668,1.961832,3.931298,0.1068702,20.24,-137.08,-111.32
0.1079102,0.373291,-0.902832,1.648855,3.618321,-0.259542,20.24,-137.08,-111.32
0.1083984,0.3740234,-0.907959,0.1603053,2.534351,-0.5877862,20.24,-137.08,-111.32
0.1098633,0.3713379,-0.9016113,2.412214,4.442748,0.6335878,20.24,-137.08,-111.32
0.1091309,0.3730469,-0.9099121,0.5877862,4.152672,-0.3740458,20.24,-137.08,-111.32
0.1025391,0.3710938,-0.9121094,1.022901,3.465649,-0.7480916,19.32,-136.16,-111.32
0.1035156,0.3742676,-0.9150391,0.8396947,5.274809,-0.4198473,19.32,-136.16,-111.32
0.1103516,0.3776855,-0.9086914,2.236641,5.732824,-0.03816794,19.32,-136.16,-111.32
0.1069336,0.3735352,-0.9084473,0.4427481,3.251908,-1.122137,19.32,-137.08,-111.32
0.1086426,0.3701172,-0.9069824,0.832061,3.10687,-0.480916,19.32,-137.08,-111.32
0.1074219,0.3740234,-0.9060059,1.343511,3.160305,-1.21374,19.32,-137.08,-111.32
0.1018066,0.371582,-0.9091797,1.458015,4.282443,-0.8854962,20.24,-136.16,-111.32
0.1040039,0.3684082,-0.9086914,0.5801527,4.183206,-0.2442748,20.24,-136.16,-111.32
0.1040039,0.3762207,-0.9069824,1.931298,4.167939,0.4580153,20.24,-136.16,-111.32
0.1098633,0.3757324,-0.9116211,2.603053,4.59542,-1.274809,20.24,-136.16,-111.32
0.1086426,0.3635254,-0.90625,2.099237,4.389313,-1.618321,20.24,-136.16,-111.32
0.1071777,0.3693848,-0.9089355,0.4961832,4.045802,-0.259542,20.24,-136.16,-111.32
0.1101074,0.3769531,-0.9104004,0.9847328,3.709924,-0.2061069,20.24,-136.16,-111.32
0.1069336,0.373291,-0.9084473,0.9465649,3.458015,0.1526718,20.24,-136.16,-111.32
0.1088867,0.3735352,-0.9101563,1.648855,3.80916,0.02290076,20.24,-136.16,-111.32
0.1079102,0.3774414,-0.902832,1.648855,4.572519,0.07633588,20.24,-136.16,-111.32
0.1142578,0.3776855,-0.9123535,0.3664122,3.709924,-0.2366412,20.24,-137.08,-111.32
0.1086426,0.3752441,-0.9040527,2.175573,3.351145,-0.9312977,20.24,-137.08,-111.32
0.1066895,0.3769531,-0.9082031,1.854962,4.320611,-0.8931297,20.24,-137.08,-111.32
0.1010742,0.3720703,-0.9084473,0.259542,3.801527,-0.7862596,20.24,-137.08,-111.32
0.1049805,0.3728027,-0.9128418,0.2061069,4.603054,-0.9160305,20.24,-137.08,-111.32
0.1030273,0.3735352,-0.9052734,0.0610687,3.923664,-0.3358779,20.24,-137.08,-111.32
0.1032715,0.3745117,-0.9001465,1.931298,4.374046,-0.6793893,19.32,-137.08,-111.32
0.1020508,0.375,-0.9111328,2.10687,5.320611,-1.045802,19.32,-137.08,-111.32
0.09887695,0.3686523,-0.9111328,1.51145,5.496183,-0.2519084,19.32,-136.16,-111.32
0.1083984,0.373291,-0.9040527,0.4122138,3.671756,-0.3282443,19.32,-136.16,-111.32
0.1086426,0.3796387,-0.9072266,0.9007633,4.229008,0.2519084,19.32,-136.16,-111.32
0.1074219,0.3745117,-0.9082031,1.312977,3.603053,-1.267176,20.24,-137.08,-110.4
0.1032715,0.3728027,-0.9094238,1.51145,3.580153,-0.259542,20.24,-137.08,-110.4
0.1044922,0.3745117,-0.9067383,1.366412,3.137405,-0.3664122,20.24,-137.08,-110.4
0.1081543,0.3789063,-0.9008789,1.793893,1.763359,-0.8015267,20.24,-137.08,-110.4
0.1013184,0.3769531,-0.907959,4.091603,5.366412,-0.610687,20.24,-137.08,-110.4
0.09619141,0.3740234,-0.9155273,1.770992,5.152672,0.0610687,20.24,-137.08,-111.32
0.105957,0.3774414,-0.9072266,0.9007633,4.580153,0.2900764,20.24,-137.08,-111.32
0.1018066,0.3740234,-0.901123,0.610687,3.717557,-0.6793893,20.24,-137.08,-111.32
0.1047363,0.369873,-0.9094238,2.679389,3.778626,-0.7557252,20.24,-137.08,-111.32
0.1013184,0.3745117,-0.9099121,0.961832,3.496183,-0.5648855,20.24,-137.08,-111.32
0.1064453,0.3720703,-0.9003906,1.274809,4.412214,-1.381679,20.24,-137.08,-111.32
0.1032715,0.3691406,-0.9089355,0.6641222,3.763359,-1.175573,20.24,-137.08,-111.32
0.1025391,0.373291,-0.9206543,1.526718,3.587786,-0.01526718,20.24,-136.16,-110.4
0.1052246,0.3754883,-0.904541,0.9312977,3.78626,-0.4656488,20.24,-136.16,-110.4
0.1057129,0.373291,-0.9025879,0.9160305,3.129771,-1.274809,20.24,-136.16,-110.4
0.09716797,0.3754883,-0.9133301,3.427481,4.671756,-0.5648855,20.24,-136.16,-110.4
0.1000977,0.3737793,-0.9064941,0.1221374,2.923664,-0.2061069,20.24,-136.16,-110.4
0.09765625,0.376709,-0.9069824,2.137405,4.687023,0.1908397,19.32,-136.16,-111.32
0.1018066,0.376709,-0.9006348,2.763359,5.320611,-0.7709923,19.32,-136.16,-111.32
0.1037598,0.3762207,-0.9084473,0.1221374,4.167939,-0.519084,19.32,-136.16,-111.32
0.1035156,0.3735352,-0.90625,1.534351,4.832061,-0.648855,20.24,-137.08,-111.32
0.1049805,0.3696289,-0.9084473,1.526718,3.923664,-0.01526718,20.24,-137.08,-111.32
0.107666,0.3710938,-0.9135742,1.664122,3.206107,-0.129771,20.24,-137.08,-111.32
0.1044922,0.3730469,-0.9072266,1.129771,1.51145,-0.1526718,20.24,-136.16,-111.32
0.1005859,0.3754883,-0.9101563,2.061069,4.328244,-0.778626,20.24,-136.16,-111.32
0.1069336,0.3747559,-0.9042969,1.129771,3.198473,0.2213741,20.24,-136.16,-111.32
0.1074219,0.369873,-0.9072266,1.770992,2.450382,-0.3129771,20.24,-136.16,-111.32
0.1030273,0.371582,-0.9116211,0.8854962,3.152672,-0.519084,20.24,-136.16,-111.32
0.09765625,0.371582,-0.9047852,4.847328,1.641221,1.152672,21.16,-136.16,-110.4
0.1008301,0.3720703,-0.9067383,2.129771,1.625954,-1.923664,21.16,-136.16,-110.4
0.1003418,0.369873,-0.9228516,2.900763,5.137404,-0.09160305,21.16,-136.16,-110.4
0.1005859,0.3708496,-0.9125977,1.78626,4.08397,0.6335878,21.16,-136.16,-111.32
0.1030273,0.3720703,-0.9038086,2.076336,4.129771,-0.5877862,21.16,-136.16,-111.32
0.09765625,0.3742676,-0.9152832,1.778626,2.923664,0.129771,20.24,-136.16,-110.4
0.09619141,0.3730469,-0.9089355,1.946565,3.572519,0.3969466,20.24,-136.16,-110.4
0.09423828,0.3728027,-0.907959,0.9465649,5.419847,0.07633588,20.24,-136.16,-110.4
0.104248,0.3669434,-0.9074707,1.045802,3.977099,-0.2137404,21.16,-136.16,-111.32
0.1000977,0.3706055,-0.9069824,2.763359,5.175572,0.08396947,21.16,-136.16,-111.32
0.09741211,0.3691406,-0.9104004,1.450382,6.099236,0.06870229,21.16,-136.16,-111.32
0.1040039,0.3679199,-0.9047852,1.335878,4.29771,-0.2671756,21.16,-136.16,-111.32
0.1062012,0.3696289,-0.9130859,1.427481,2.633588,-0.1984733,21.16,-136.16,-111.32
0.1037598,0.3737793,-0.9042969,2.541985,3.549618,-1.770992,21.16,-136.16,-110.4
0.09765625,0.3747559,-0.9140625,1.137405,3.099237,0.07633588,21.16,-136.16,-110.4
0.09545898,0.3691406,-0.9104004,1.854962,2.89313,-0.6793893,21.16,-136.16,-110.4
0.09765625,0.3752441,-0.9194336,1.480916,5.152672,-0.1984733,21.16,-136.16,-110.4
0.0949707,0.3742676,-0.9089355,0.7328244,4.114504,-0.2137404,21.16,-136.16,-110.4
0.1005859,0.376709,-0.9052734,2.664122,4.38168,-0.7328244,21.16,-136.16,-110.4
0.09716797,0.3706055,-0.9121094,0.5725191,3.335878,-0.6412213,20.24,-137.08,-110.4
0.09863281,0.3728027,-0.9101563,0.9236641,4.045802,0.3053435,20.24,-137.08,-110.4
0.1020508,0.3684082,-0.9089355,1.282443,3.015267,-0.2900764,21.16,-136.16,-111.32
0.09692383,0.3652344,-0.9086914,0.9465649,2.870229,-0.519084,21.16,-136.16,-111.32
0.1025391,0.3718262,-0.918457,2.015267,5.160306,-0.05343511,21.16,-136.16,-111.32
0.1013184,0.371582,-0.909668,1.770992,2.885496,-0.4961832,21.16,-136.16,-111.32
0.1035156,0.373291,-0.9047852,0.6412213,4.091603,0.4732824,21.16,-136.16,-111.32
0.09448242,0.3754883,-0.9118652,1.641221,4.251908,1.068702,21.16,-136.16,-111.32
0.09887695,0.3740234,-0.9082031,1.145038,3.183206,0.07633588,21.16,-136.16,-111.32
0.09667969,0.3671875,-0.9189453,1.78626,6.068702,-0.4351145,21.16,-136.16,-111.32
0.1054688,0.3688965,-0.9147949,0.610687,3.328244,-0.1679389,20.24,-136.16,-111.32
0.1025391,0.3740234,-0.9099121,1.648855,3.938931,-0.7557252,20.24,-136.16,-111.32
0.1003418,0.3708496,-0.9150391,0.648855,3.541985,-0.1984733,20.24,-136.16,-111.32
0.09936523,0.3757324,-0.9094238,1.923664,5.534351,0.4351145,20.24,-136.16,-111.32
0.09863281,0.3720703,-0.9091797,1.21374,4.549618,-0.1221374,20.24,-136.16,-110.4
0.09594727,0.3745117,-0.9033203,1.732824,2.732824,-0.7099237,20.24,-136.16,-110.4
0.09399414,0.3686523,-0.911377,1.450382,2.290076,-0.3740458,20.24,-136.16,-110.4
0.09570313,0.3676758,-0.9150391,1.854962,5.038168,0.519084,21.16,-136.16,-111.32
0.09448242,0.3706055,-0.9089355,0.3435115,4.389313,-0.1603053,21.16,-136.16,-111.32
0.09619141,0.3669434,-0.9047852,1.969466,3.770992,-0.06870229,20.24,-136.16,-111.32
0.09472656,0.3718262,-0.9084473,1.10687,3.877863,-0.351145,20.24,-136.16,-111.32
0.1013184,0.371582,-0.9121094,1.625954,3.389313,0.5267176,20.24,-136.16,-111.32
0.1030273,0.3723145,-0.9064941,1.099237,2.961832,0.2061069,20.24,-136.16,-111.32
0.104248,0.3735352,-0.9082031,-0.3969466,3.137405,-0.3435115,20.24,-136.16,-111.32
0.1054688,0.3747559,-0.9123535,0.02290076,4.305344,-0.2671756,20.24,-136.16,-111.32
0.1054688,0.376709,-0.9074707,0.4351145,4.839694,-0.6641222,20.24,-136.16,-111.32
0.1101074,0.3730469,-0.9091797,0.5114504,5.549618,0.1908397,20.24,-136.16,-111.32
0.1049805,0.3735352,-0.9025879,0.9847328,5.351145,-0.5343512,20.24,-137.08,-111.32
0.1066895,0.3703613,-0.9069824,0.5954198,1.916031,-0.7022901,20.24,-137.08,-111.32
0.09887695,0.3691406,-0.9135742,2.618321,4.229008,-0.8931297,20.24,-137.08,-111.32
0.09912109,0.3747559,-0.9084473,0.480916,5.38168,-0.832061,20.24,-137.08,-111.32
0.1018066,0.373291,-0.9091797,1.320611,4.450382,-0.1984733,20.24,-137.08,-111.32
0.09814453,0.3681641,-0.9106445,2.091603,3.51145,0.03053435,20.24,-137.08,-111.32
0.1020508,0.3684082,-0.9125977,1.053435,4.099236,-0.2977099,20.24,-136.16,-111.32
0.09960938,0.3754883,-0.9133301,2.175573,4.862596,0.259542,20.24,-136.16,-111.32
0.09667969,0.3762207,-0.9067383,2.740458,5.10687,-0.3740458,20.24,-136.16,-111.32
0.1005859,0.3728027,-0.9135742,1.816794,3.396947,-0.1145038,20.24,-136.16,-111.32
0.1020508,0.3708496,-0.9147949,2.748092,5.664122,0.8015267,20.24,-136.16,-111.32
0.1044922,0.3679199,-0.9050293,2.366412,4.389313,1.19084,20.24,-137.08,-111.32
0.1030273,0.3708496,-0.90625,0.7557252,3.687023,-0.03053435,20.24,-137.08,-111.32
0.1054688,0.3718262,-0.9123535,0.1984733,4.290076,0.129771,20.24,-137.08,-111.32
0.1105957,0.3757324,-0.9082031,-0.3053435,7.114504,1.061069,20.24,-136.16,-111.32
0.1130371,0.3686523,-0.9074707,1.328244,4.877862,-0.1603053,20.24,-136.16,-111.32
0.1130371,0.3708496,-0.8969727,2.389313,4.51145,-1.083969,20.24,-136.16,-111.32
0.1032715,0.380127,-0.9064941,2.129771,4.305344,-0.9847328,20.24,-136.16,-111.32
0.09936523,0.3796387,-0.9060059,4.770992,4.877862,0.4732824,20.24,-136.16,-111.32
0.1015625,0.3686523,-0.9147949,2.343511,3.969466,-0.1221374,19.32,-136.16,-110.4
0.09887695,0.3669434,-0.9172363,2.564885,5.335878,0.2290076,19.32,-136.16,-110.4
0.1069336,0.3676758,-0.9177246,1.954198,4.458015,-0.03816794,19.32,-136.16,-110.4
0.104248,0.3752441,-0.9038086,1.198473,1.854962,-0.6412213,20.24,-136.16,-111.32
0.09692383,0.375,-0.9091797,2.648855,6.129771,-0.3282443,20.24,-136.16,-111.32
0.1027832,0.3742676,-0.9077148,1.022901,4.908397,0.007633588,20.24,-136.16,-111.32
0.1081543,0.3708496,-0.9025879,1.633588,0.2213741,-1.618321,20.24,-136.16,-111.32
0.1066895,0.3725586,-0.9052734,1.366412,2.480916,-1.198473,20.24,-136.16,-111.32
0.09912109,0.3769531,-0.9077148,2.320611,3.885496,-0.2671756,20.24,-136.16,-111.32
0.1010742,0.3757324,-0.9055176,2.412214,5.694656,0.9312977,20.24,-136.16,-111.32
0.1062012,0.3752441,-0.9042969,0.9312977,5.862596,1.51145,20.24,-136.16,-111.32
0.1035156,0.376709,-0.9094238,1.259542,4.335878,0.3053435,20.24,-137.08,-111.32
0.1052246,0.3737793,-0.9082031,0.5648855,3.198473,-0.2977099,20.24,-137.08,-111.32
0.1020508,0.3669434,-0.9108887,0.7633588,3.473282,-0.7938931,20.24,-136.16,-111.32
0.1008301,0.3713379,-0.9118652,0.519084,4.221374,-0.4045802,20.24,-136.16,-111.32
0.1010742,0.3735352,-0.9082031,1.083969,3.19084,-0.7328244,20.24,-136.16,-111.32
0.1071777,0.375,-0.9055176,2.343511,4.89313,-0.7022901,20.24,-136.16,-111.32
0.1035156,0.375,-0.9111328,0.2137404,4.19084,-0.6335878,20.24,-136.16,-111.32
0.1035156,0.3745117,-0.9055176,2.0,5.114504,-0.04580153,20.24,-136.16,-111.32
0.1027832,0.371582,-0.9111328,0.3358779,2.229008,-0.3282443,20.24,-136.16,-111.32
0.09960938,0.3740234,-0.9025879,1.0,2.40458,-1.732824,20.24,-136.16,-111.32
0.09667969,0.3774414,-0.9108887,3.061069,4.244275,-0.6870229,20.24,-136.16,-111.32
0.1020508,0.3703613,-0.9289551,-0.4732824,2.946565,-0.4427481,20.24,-136.16,-111.32
0.1027832,0.371582,-0.9084473,0.9083969,4.091603,0.04580153,20.24,-136.16,-110.4
0.09985352,0.3740234,-0.90625,1.679389,4.022901,0.351145,20.24,-136.16,-110.4
0.1003418,0.3806152,-0.9089355,0.8473283,5.19084,-1.244275,20.24,-136.16,-111.32
0.09887695,0.3740234,-0.9050293,1.541985,4.671756,-0.9236641,20.24,-136.16,-111.32
0.09838867,0.3649902,-0.9060059,2.816794,5.664122,0.09160305,20.24,-136.16,-111.32
0.1000977,0.3676758,-0.9094238,0.4198473,4.122138,-0.3358779,20.24,-136.16,-111.32
0.1020508,0.3757324,-0.909668,0.01526718,2.641221,-0.1984733,20.24,-136.16,-111.32
0.1044922,0.3723145,-0.9067383,0.4885496,1.374046,-1.343511,20.24,-136.16,-111.32
0.09716797,0.3713379,-0.909668,0.7480916,3.534351,-0.2519084,20.24,-136.16,-111.32
0.1044922,0.3769531,-0.9135742,2.580153,4.587786,0.2137404,20.24,-136.16,-111.32
0.1003418,0.3752441,-0.9069824,2.419847,4.687023,-1.282443,20.24,-136.16,-111.32
0.09790039,0.3696289,-0.9069824,1.938931,2.862595,-0.9465649,20.24,-136.16,-111.32
0.09936523,0.3735352,-0.9165039,0.6793893,4.129771,-0.3587786,20.24,-136.16,-111.32
0.09228516,0.371582,-0.9023438,0.1679389,4.587786,-0.09160305,20.24,-136.16,-111.32
0.09960938,0.3713379,-0.9050293,1.030534,4.343512,0.1526718,20.24,-136.16,-111.32
0.1071777,0.3742676,-0.9067383,1.503817,4.290076,0.1832061,20.24,-136.16,-111.32
0.09570313,0.3725586,-0.9091797,2.068702,3.847328,-0.04580153,20.24,-137.08,-111.32
0.1013184,0.3745117,-0.907959,0.9847328,2.679389,-0.04580153,20.24,-137.08,-111.32
0.1020508,0.3696289,-0.9125977,0.6183206,3.580153,-0.5419847,20.24,-136.16,-111.32
0.1040039,0.3742676,-0.907959,0.6335878,4.091603,-0.2824428,20.24,-136.16,-111.32
0.09985352,0.3762207,-0.9067383,1.022901,4.137404,-0.4885496,20.24,-136.16,-111.32
0.09936523,0.3762207,-0.9140625,3.40458,5.40458,0.2061069,20.24,-136.16,-111.32
0.09985352,0.3771973,-0.9116211,0.3358779,5.290076,-0.5114504,20.24,-136.16,-111.32
0.1054688,0.3757324,-0.9125977,1.305344,4.793893,-0.1908397,20.24,-136.16,-111.32
0.1022949,0.3701172,-0.9123535,0.2977099,3.290076,-0.2366412,20.24,-136.16,-111.32
0.105957,0.3718262,-0.9121094,0.6564885,3.198473,-0.2748091,20.24,-136.16,-111.32
0.09814453,0.3747559,-0.9050293,1.465649,2.343511,-0.8854962,20.24,-137.08,-111.32
0.09594727,0.371582,-0.9082031,1.305344,2.061069,-1.320611,20.24,-137.08,-111.32
0.09716797,0.3740234,-0.9086914,0.9541985,3.503817,-0.3969466,20.24,-137.08,-111.32
0.1027832,0.3740234,-0.9118652,0.1755725,4.633588,0.04580153,20.24,-136.16,-111.32
0.1049805,0.373291,-0.9038086,0.7862596,4.366412,-0.3435115,20.24,-136.16,-111.32
0.1022949,0.378418,-0.902832,0.9465649,4.091603,-0.6946565,20.24,-136.16,-111.32
0.1000977,0.3754883,-0.9130859,1.770992,4.839694,-0.4885496,20.24,-136.16,-111.32
0.09619141,0.3718262,-0.9074707,1.320611,5.458015,-1.274809,20.24,-136.16,-111.32
0.09692383,0.3676758,-0.9104004,0.9541985,5.167939,0.5267176,20.24,-137.08,-111.32
0.1040039,0.3708496,-0.9052734,0.7633588,3.740458,-0.3587786,20.24,-137.08,-111.32
0.09960938,0.3688965,-0.9108887,1.992366,5.38168,-0.7251908,20.24,-137.08,-111.32
0.09716797,0.373291,-0.9094238,0.9236641,4.244275,-0.6793893,20.24,-136.16,-111.32
0.1003418,0.3752441,-0.9055176,1.541985,5.045802,0.06870229,20.24,-136.16,-111.32
0.1118164,0.3735352,-0.9052734,1.167939,5.007634,0.0610687,20.24,-136.16,-111.32
0.1044922,0.3759766,-0.9055176,3.167939,4.312977,-0.519084,20.24,-136.16,-111.32
0.1000977,0.3747559,-0.9108887,1.396947,3.251908,-1.183206,20.24,-136.16,-111.32
0.09790039,0.3793945,-0.9060059,2.343511,3.664122,-0.7099237,20.24,-136.16,-111.32
0.1030273,0.3730469,-0.9133301,0.02290076,2.145038,-1.007634,20.24,-136.16,-111.32
0.09863281,0.3676758,-0.9106445,0.9160305,4.480916,0.2900764,20.24,-136.16,-111.32
0.1037598,0.3703613,-0.911377,-0.610687,1.419847,-0.6870229,20.24,-137.08,-111.32
0.1049805,0.3740234,-0.9035645,1.610687,4.580153,-1.007634,20.24,-137.08,-111.32
0.1015625,0.3774414,-0.9106445,1.419847,2.625954,-0.5877862,20.24,-137.08,-111.32
0.09960938,0.3723145,-0.9050293,0.6030535,3.328244,-0.2290076,20.24,-137.08,-111.32
0.09716797,0.3747559,-0.9086914,1.335878,4.458015,0.3282443,20.24,-136.16,-111.32
0.09716797,0.3754883,-0.9128418,2.305344,5.167939,0.6259542,20.24,-136.16,-111.32
0.1047363,0.3781738,-0.9104004,1.40458,3.251908,-0.2977099,20.24,-136.16,-111.32
0.1018066,0.376709,-0.9057617,1.862595,3.274809,-0.832061,20.24,-136.16,-111.32
0.1027832,0.3754883,-0.9086914,0.7175572,3.923664,-0.4427481,20.24,-136.16,-111.32
0.1003418,0.3735352,-0.9111328,2.610687,4.38168,-0.8396947,20.24,-136.16,-111.32
0.1000977,0.3776855,-0.9128418,1.961832,4.152672,-0.3358779,20.24,-136.16,-111.32
0.09570313,0.3723145,-0.9094238,1.839695,4.007634,-0.2519084,20.24,-136.16,-111.32
0.1003418,0.3713379,-0.9050293,2.923664,4.984733,-0.3358779,20.24,-137.08,-111.32
0.09863281,0.3762207,-0.909668,1.480916,5.21374,-0.3358779,20.24,-137.08,-111.32
0.1035156,0.3789063,-0.9055176,2.48855,5.70229,1.114504,20.24,-136.16,-111.32
0.1049805,0.3725586,-0.909668,0.6946565,3.320611,-0.1679389,20.24,-136.16,-111.32
0.09985352,0.3664551,-0.9084473,1.015267,4.633588,-0.5801527,20.24,-136.16,-111.32
0.09765625,0.3742676,-0.907959,-0.2442748,3.259542,-0.9694656,20.24,-136.16,-111.32
0.09350586,0.3752441,-0.9086914,1.59542,2.763359,-1.083969,20.24,-136.16,-111.32
0.09741211,0.3666992,-0.9106445,0.5954198,4.709924,-0.5343512,20.24,-136.16,-111.32
0.0925293,0.3696289,-0.9086914,0.5038168,3.030534,-0.0610687,20.24,-136.16,-111.32
0.1027832,0.3740234,-0.9125977,0.2213741,3.068702,0.1832061,20.24,-136.16,-111.32
0.09570313,0.3754883,-0.9069824,0.6870229,4.91603,0.1374046,20.24,-136.16,-111.32
0.1010742,0.3752441,-0.9101563,3.59542,5.61832,0.07633588,20.24,-136.16,-111.32
0.1066895,0.3723145,-0.8981934,1.984733,4.40458,-0.2366412,20.24,-136.16,-111.32
0.1057129,0.3728027,-0.9055176,2.396947,3.984733,-1.274809,20.24,-136.16,-110.4
0.09960938,0.3774414,-0.9116211,1.435114,3.458015,-0.9847328,20.24,-136.16,-110.4
0.09643555,0.3745117,-0.909668,0.3206107,4.427481,-0.5419847,20.24,-136.16,-110.4
0.09472656,0.3769531,-0.916748,1.305344,4.503817,-0.610687,20.24,-136.16,-111.32
0.09765625,0.3745117,-0.9086914,0.2977099,3.961832,-0.3282443,20.24,-136.16,-111.32
0.1020508,0.3710938,-0.9118652,0.09160305,3.381679,0.1068702,20.24,-136.16,-111.32
0.09765625,0.3728027,-0.9030762,2.267176,5.687023,0.04580153,20.24,-136.16,-111.32
0.09887695,0.3706055,-0.9057617,2.885496,5.480916,0.3664122,20.24,-136.16,-111.32
0.09960938,0.3730469,-0.9143066,0.5343512,4.450382,0.1068702,20.24,-136.16,-111.32
0.1020508,0.3703613,-0.9067383,1.564886,3.244275,0.3206107,20.24,-136.16,-111.32
0.1010742,0.3747559,-0.9050293,1.343511,4.167939,-1.70229,20.24,-136.16,-111.32
0.1030273,0.3796387,-0.9082031,1.725191,3.305344,-0.351145,20.24,-136.16,-111.32
0.1035156,0.3752441,-0.9128418,0.5725191,2.946565,-0.4351145,20.24,-136.16,-111.32
0.09692383,0.3725586,-0.9125977,2.061069,4.236641,0.2061069,20.24,-136.16,-111.32
0.09936523,0.3713379,-0.9089355,2.091603,5.312977,-1.007634,20.24,-136.16,-111.32
0.1020508,0.3706055,-0.9055176,1.259542,3.633588,-0.2290076,20.24,-136.16,-111.32
0.09277344,0.3730469,-0.909668,0.1832061,2.610687,-0.3740458,20.24,-137.08,-111.32
0.1000977,0.3754883,-0.9147949,2.992366,4.458015,0.870229,20.24,-137.08,-111.32
0.1008301,0.3735352,-0.9057617,2.145038,3.793893,0.1603053,20.24,-137.08,-111.32
0.09692383,0.3723145,-0.9091797,2.061069,4.580153,0.1374046,20.24,-137.08,-111.32
0.1015625,0.3789063,-0.911377,1.954198,4.503817,0.3740458,20.24,-137.08,-111.32
0.1062012,0.3735352,-0.9006348,1.083969,3.618321,0.3816794,20.24,-137.08,-111.32
0.1025391,0.3757324,-0.9123535,-0.05343511,4.687023,-0.2900764,20.24,-136.16,-110.4
0.09887695,0.3796387,-0.9067383,1.557252,4.59542,0.2977099,20.24,-136.16,-110.4
0.09887695,0.3737793,-0.9099121,0.4351145,4.366412,-0.5725191,20.24,-136.16,-111.32
0.1030273,0.3737793,-0.907959,1.725191,4.015267,-1.641221,20.24,-136.16,-111.32
0.09716797,0.3696289,-0.9143066,1.396947,5.633588,-0.9465649,20.24,-136.16,-111.32
0.09643555,0.3740234,-0.9035645,2.603053,4.709924,0.03053435,20.24,-136.16,-111.32
0.1010742,0.3774414,-0.9033203,1.770992,4.305344,0.2671756,20.24,-137.08,-111.32
0.1008301,0.3791504,-0.9064941,3.076336,3.664122,0.4961832,20.24,-137.08,-111.32
0.09716797,0.375,-0.9135742,3.267176,5.167939,0.3587786,20.24,-137.08,-111.32
0.09594727,0.3771973,-0.9208984,1.59542,4.030534,0.6564885,20.24,-136.16,-111.32
0.0949707,0.3840332,-0.902832,1.175573,4.59542,0.2977099,20.24,-136.16,-111.32
0.09765625,0.3793945,-0.9057617,3.427481,5.656488,0.5954198,20.24,-136.16,-111.32
0.09643555,0.3759766,-0.90625,1.725191,4.717557,0.0610687,20.24,-136.16,-111.32
0.1030273,0.3696289,-0.9094238,0.7099237,3.908397,0.2671756,20.24,-136.16,-111.32
0.1040039,0.3635254,-0.9147949,2.091603,5.656488,0.06870229,20.24,-136.16,-111.32
0.09594727,0.3701172,-0.9133301,1.442748,4.748092,-0.9007633,20.24,-136.16,-111.32
0.1027832,0.3769531,-0.9118652,0.8015267,2.908397,-0.7022901,20.24,-136.16,-111.32
0.09985352,0.3789063,-0.9072266,0.7022901,5.366412,0.04580153,20.24,-136.16,-111.32
0.1049805,0.3735352,-0.907959,0.07633588,5.419847,0.06870229,20.24,-136.16,-111.32
0.1044922,0.376709,-0.9064941,0.9312977,4.48855,1.366412,20.24,-136.16,-110.4
0.1049805,0.3725586,-0.909668,0.1755725,3.664122,0.6717557,20.24,-136.16,-110.4
0.09594727,0.3752441,-0.90625,0.7709923,1.80916,-0.129771,20.24,-136.16,-110.4
0.09594727,0.3771973,-0.9074707,1.725191,3.885496,0.02290076,20.24,-136.16,-111.32
0.09863281,0.3745117,-0.9067383,3.503817,4.160306,-0.6335878,20.24,-136.16,-111.32
0.09741211,0.3737793,-0.918457,1.015267,6.358778,0.1984733,20.24,-136.16,-111.32
0.09838867,0.3752441,-0.9025879,1.832061,4.519084,-0.4961832,20.24,-136.16,-111.32
0.1013184,0.378418,-0.904541,0.9389313,3.480916,-0.2061069,20.24,-136.16,-111.32
0.104248,0.3796387,-0.9038086,0.4961832,5.343512,0.4885496,20.24,-137.08,-111.32
0.1005859,0.376709,-0.9008789,2.549618,6.755725,0.7480916,20.24,-137.08,-111.32
0.1049805,0.3742676,-0.911377,2.198473,4.908397,-0.7709923,20.24,-137.08,-111.32
0.1000977,0.3759766,-0.9135742,3.137405,5.78626,-0.2671756,20.24,-136.16,-111.32
0.1057129,0.3757324,-0.9040527,1.221374,4.847328,-1.030534,20.24,-136.16,-111.32
0.1062012,0.3720703,-0.9033203,1.274809,3.038168,0.610687,20.24,-136.16,-111.32
0.1040039,0.3769531,-0.911377,1.419847,3.503817,0.06870229,20.24,-136.16,-111.32
0.1105957,0.3757324,-0.9074707,1.778626,4.664122,-0.2671756,20.24,-136.16,-111.32
0.1035156,0.3723145,-0.9091797,-0.4885496,3.236641,-0.2519084,20.24,-136.16,-111.32
0.1040039,0.3762207,-0.9074707,1.80916,1.442748,-0.6412213,20.24,-136.16,-111.32
0.1044922,0.3791504,-0.901123,1.053435,3.961832,-0.3664122,20.24,-136.16,-111.32
0.104248,0.3781738,-0.9077148,2.48855,5.053435,-1.51145,20.24,-136.16,-110.4
0.09936523,0.3793945,-0.901123,2.526718,4.198473,-1.854962,20.24,-136.16,-110.4
0.09936523,0.3771973,-0.9150391,3.015267,4.694656,-1.038168,20.24,-136.16,-110.4
0.09228516,0.3737793,-0.911377,0.389313,4.229008,-0.7938931,20.24,-136.16,-111.32
0.09350586,0.375,-0.9069824,0.870229,4.847328,0.2442748,20.24,-136.16,-111.32
0.09521484,0.3752441,-0.9055176,2.366412,5.473282,0.3664122,20.24,-136.16,-111.32
0.09960938,0.3774414,-0.9040527,1.374046,5.38168,0.7099237,20.24,-136.16,-111.32
0.1025391,0.3725586,-0.9074707,1.480916,5.160306,0.7022901,20.24,-136.16,-111.32
0.1027832,0.3676758,-0.9094238,1.335878,6.0,1.198473,20.24,-136.16,-111.32
0.1079102,0.3764648,-0.8989258,0.5877862,5.076336,0.351145,20.24,-136.16,-111.32
0.1081543,0.3774414,-0.9013672,3.427481,4.290076,-0.5114504,20.24,-136.16,-111.32
0.1027832,0.3742676,-0.9091797,1.480916,3.725191,-0.519084,20.24,-136.16,-111.32
0.09790039,0.3728027,-0.9033203,2.015267,5.305344,0.7709923,20.24,-136.16,-111.32
0.1052246,0.3740234,-0.9094238,0.9541985,4.610687,0.1450382,19.32,-136.16,-110.4
0.1040039,0.3774414,-0.9040527,0.6335878,5.015267,0.07633588,19.32,-136.16,-110.4
0.1049805,0.3752441,-0.909668,0.4656488,3.48855,-0.832061,19.32,-136.16,-111.32
0.1047363,0.376709,-0.9067383,1.083969,5.603054,-0.8091603,19.32,-136.16,-111.32
0.1040039,0.3803711,-0.90625,1.0,3.89313,-0.7022901,19.32,-136.16,-111.32
0.1096191,0.3757324,-0.904541,2.053435,2.496183,-1.29771,19.32,-136.16,-111.32
0.1020508,0.3796387,-0.9094238,0.961832,5.572519,-0.6183206,19.32,-136.16,-111.32
0.1010742,0.3786621,-0.9030762,1.458015,5.870229,0.5419847,19.32,-136.16,-111.32
0.1018066,0.3793945,-0.9072266,0.5801527,5.076336,0.3282443,19.32,-136.16,-111.32
0.1030273,0.3776855,-0.902832,1.312977,4.259542,0.5572519,19.32,-136.16,-111.32
0.09912109,0.3823242,-0.9050293,3.030534,5.977099,0.3587786,19.32,-136.16,-111.32
0.1040039,0.3781738,-0.909668,0.9160305,4.458015,0.07633588,19.32,-136.16,-111.32
0.107666,0.3723145,-0.9101563,0.03816794,4.473282,0.8091603,19.32,-136.16,-111.32
0.1091309,0.3745117,-0.902832,1.007634,3.900763,0.2519084,19.32,-136.16,-111.32
0.109375,0.3723145,-0.9018555,2.473282,4.48855,0.3664122,19.32,-136.16,-111.32
0.1015625,0.3754883,-0.9072266,0.7175572,4.175572,0.2442748,19.32,-136.16,-110.4
0.1044922,0.3820801,-0.9089355,2.587786,5.198473,1.145038,19.32,-136.16,-110.4
0.1047363,0.3796387,-0.9057617,1.862595,3.870229,-0.2671756,19.32,-136.16,-110.4
0.109375,0.3718262,-0.9064941,1.061069,3.175573,0.5648855,19.32,-137.08,-110.4
