timestamp,ax,ay,az,gx,gy,gz,mx,my,mz,label
0.0,0.029776098601356285,0.25032807104663113,11.12439825438469,-0.44064343996909155,0.9635785418190393,0.5464659001246802,636.69896382925,392.339684751878,582.3486627723742,upstairs
0.05008347245409015,0.5727408749866097,0.4164457386048269,11.49837689003185,0.7198269860741442,-0.581035747863406,-2.3467765518156942,612.5475062956122,344.09948128827705,646.4236949718543,upstairs
0.1001669449081803,1.0537115613586479,0.6791385026108723,10.88575369141183,0.6471758817146263,-1.0056455862741691,-0.12797675210955128,671.1869925465246,435.23249400235966,610.8757346853783,upstairs
0.15025041736227046,1.0315145660934102,0.7281508740032545,11.060871865518738,1.4252919475939283,-1.0023850540462897,-0.24335861201644166,753.9678864385542,416.9778920234749,628.8051665826906,upstairs
0.2003338898163606,1.0904026122142023,0.3734458118364852,10.506051389938301,0.5606583288624067,-0.011182269481670915,1.196285186829062,639.9943313385668,346.47840486717564,710.4724811232107,upstairs
0.25041736227045075,0.9374374821794044,-0.17545768182843402,9.5587796200197,0.3909911342165258,0.6633347098266634,0.6384836429167731,677.70088757683,416.4800718677266,623.7008822812188,upstairs
0.3005008347245409,0.4031595202669933,-0.008744692794565745,9.220036786865753,0.19268994701161116,-0.06369210991596659,1.0670876988796043,716.3328279309604,382.4300713321061,589.3293953861157,upstairs
0.35058430717863104,0.0629921066179429,-1.0094051586525778,8.329444781967737,-0.5254539897367306,0.7039314522485278,-0.3429802816955664,820.3830634858272,427.1831467110175,666.9827330087019,upstairs
0.4006677796327212,-0.9041455467080358,-0.5853938175155577,8.170570950222968,-0.534162097158552,-0.4037421995418995,0.5534514151282337,686.9722561161492,378.09847672559835,606.4365333016169,upstairs
0.4507512520868114,-1.0097372980896062,-0.4294327462842433,8.567950467361326,0.16056162882844638,-0.15498880545087004,-0.4990948842466661,624.1311946803554,363.8190658638839,660.3132355236044,upstairs
0.5008347245409015,-1.2159092246575622,-0.514655101887862,9.289377348061564,0.20434712753300183,-0.1189597502169048,1.1047895492418336,637.0875140268623,342.8185593451659,607.7979842059049,upstairs
0.5509181969949917,-0.42981624342547425,-0.09765532359728493,10.293839738791057,0.2306499610899753,0.15825457768448176,-0.082476232549142,638.9520633020694,412.232823795486,601.9823504282012,upstairs
0.6010016694490818,-0.1978597218850321,0.15982043436670307,11.16370593259599,0.01684816065215242,0.6064396402547493,-0.3635313030665708,662.5633273398226,405.3658673666651,636.244842271938,upstairs
0.651085141903172,0.4133712382498709,0.5926695095548233,11.339026235741036,-0.3416261441704437,-0.7962320095722917,0.007721868428116217,644.3174896228221,385.1949721595278,656.527975599088,upstairs
0.7011686143572621,0.7172027983328189,0.8153741577404223,11.65991855778743,1.3825811880025372,0.6282048608214448,0.02268100898133636,704.8398558909229,350.3648008833087,634.9223845009582,upstairs
0.7512520868113522,0.9393497199733719,0.2642881649724413,11.36251693640582,-0.18451285815640214,0.732022184054188,-0.010394680802407777,600.1688165816404,308.09167344216195,604.5332172174633,upstairs
0.8013355592654424,1.1305531488129958,0.6266626914385611,10.729250740142872,0.055069141272387254,0.2898435251355736,0.0886847790893954,684.9909800638869,319.59503509986337,648.1777517865495,upstairs
0.8514190317195326,0.9505415854073279,0.48211193891414267,10.1650690154936,0.12230648600492482,-0.05915552158897893,0.9561173211770975,749.1260975260099,472.12748867520975,552.0093832559644,upstairs
0.9015025041736228,0.30738329003242604,-0.27571860208082727,8.962719758067374,0.23104780834090202,-1.1130989510489173,0.23577196433555658,658.4967765981688,351.01206178138654,674.9384270005742,upstairs
0.9515859766277128,-0.10775322739982553,-0.3754894456640198,8.323286093006821,-0.5236841980807341,0.3965042526451623,0.19418744482507166,685.8597822611025,392.2831499273148,604.1881213070878,upstairs
1.001669449081803,-0.5210545516679117,-0.9713670487452957,8.458567464950322,0.6280016360703792,0.9386243752851834,-0.2237873080727289,707.7649211813196,382.3686010876725,604.2560379302657,upstairs
1.0517529215358932,-1.1363424489174208,-0.6934974145847297,8.272481548304594,-0.8929284193964168,-0.21140872411346112,-0.2180705260902149,718.2830351355565,382.0113575051437,686.4128333024676,upstairs
1.1018363939899833,-0.4814276020768938,-0.4108780042523928,9.267032865509412,-0.20232801397826328,0.2947619247340726,0.40292581784242526,644.8918769710392,427.98907779002536,655.7480777355397,upstairs
1.1519198664440735,-0.6985681876039584,-0.2582783712298312,9.364422628339156,0.009031882752474409,0.16843238394325025,0.19920448853897654,694.3627572514604,379.0248427163251,706.3362732876137,upstairs
1.2020033388981637,-0.15286477430185813,-0.03575435910767098,10.994963123476218,0.36445587909260413,-0.3509122988454822,0.04020393135793882,639.3902928618885,379.6962120126604,663.7358976109125,upstairs
1.2520868113522539,-0.21224953382811002,0.34511679104899323,11.009899994198458,0.852898976964059,0.075959765080259,-0.5134107471348367,671.2073481291885,368.71648649070664,724.6855314100521,upstairs
1.302170283806344,0.7073019849106535,0.33763856058506236,11.3663115278769,0.8389051533369188,-1.0293639463554645,-0.6353719836279519,742.7631490613562,386.6010908637575,681.4679668982812,upstairs
1.352253756260434,0.8214056880413154,0.5108966916769178,11.808041879391478,-0.17448982547183192,0.15059225574028198,1.2503326287747802,647.1154627672046,376.1499155185926,572.9951363937237,upstairs
1.4023372287145242,0.9816728722645548,0.7192226339644376,11.05145645435146,0.38234510800783805,0.10656638359593204,1.5362615663925319,716.1658847850034,445.4236039539122,544.9712668085829,upstairs
1.4524207011686143,0.821211603566224,0.32755112919477347,10.201881568299315,0.38577299429745293,0.19298017814809143,0.06801476070224742,647.1523706145713,441.5591547896148,603.3499144263451,upstairs
1.5025041736227045,0.5271058909726846,-0.28371621627424987,9.28062016611287,-1.3398741802666883,-1.1176331394567875,0.32181655592552333,664.3432024275513,320.4601791816663,610.8768931949061,upstairs
1.5525876460767947,0.4371885687826718,-0.23144716952260097,8.973398056666934,-0.5500546634876344,1.6393737705203064,-0.13284940440929807,608.6641726975328,395.1121710030609,619.0884991551001,upstairs
1.6026711185308848,-0.5305620808701599,-0.5137736612296034,8.058900221058542,1.1235474774732954,-0.07552401488268162,-0.03984237331991844,695.5826321217094,349.21265358063687,575.1711012736366,upstairs
1.652754590984975,-1.0569300005519224,-0.6726711948910973,8.467939161083043,1.2657062453195311,-1.0094342202880722,1.335047027452248,725.6754371633849,430.9219713757006,603.3651235669789,upstairs
1.7028380634390652,-0.6860822406985693,-0.932221873226684,8.66437552223091,0.4373828524454005,-0.00896308503652325,-0.05304327897280926,684.9377036844851,346.55335318454127,644.8346684775031,upstairs
1.7529215358931554,-0.6344367252046809,-0.5994407975536309,9.509801343471171,0.4374179990740702,-0.37399194965329496,-0.5077711182154863,631.5080377380007,418.2249047355683,667.7384722410104,upstairs
1.8030050083472455,-0.9031212807836583,-0.08855356951409443,10.390710075392095,-0.26570474623346124,-0.30493874784419334,0.07148015339563148,711.2713929963392,422.6161884219452,658.6108350323066,upstairs
1.8530884808013357,-0.19979450590347408,-0.022877516822331218,10.537031306389531,0.13109271622696497,-0.37264882107098646,0.27159300157455213,712.5955195045459,426.2452998865664,578.8861608344635,upstairs
1.9031719532554257,0.2941494830848179,0.47767703987371407,11.313880140694348,-0.6472125172701853,-0.35689872585610566,0.990271430307609,702.9730120919793,405.5799778832802,593.0713146458152,upstairs
1.9532554257095158,0.6132090491631617,0.5255265864404575,11.642801694384382,-0.795974548740785,-2.167211997761218,-0.026722217173914566,752.0577362098708,375.78091357692546,659.9894157904777,upstairs
2.003338898163606,0.8658926210951472,0.4632204215923124,11.25537847851992,1.3280322735659118,-1.3919275422235444,-0.5428751660539508,712.5883360696405,356.87190555031583,649.5549929964827,upstairs
2.0534223706176964,1.354881670786679,0.5814527316464895,10.542292347171562,-0.5425989283913242,-0.380525318875932,0.5559539476357055,715.6256401495275,325.8592507743845,651.258109646905,upstairs
2.1035058430717863,0.640591569471279,0.14181161812070414,10.00458757176544,-0.5831522422723746,-0.517725410074596,-0.7994474222486552,610.49652620953,409.8717039724914,621.8188468883419,upstairs
2.1535893155258763,0.49947415432322434,-0.10176916611488163,9.00292758111173,0.022841411880784437,0.4040280523091311,0.1619533348645952,714.0297339083507,416.6782217352884,641.5985750950174,upstairs
2.2036727879799667,-0.12968719673017315,-0.7521739014987001,8.9675669865178,0.9207516821597381,0.1592584867745817,-0.010770274415837564,657.7419176193193,386.21611208941255,650.897054975323,upstairs
2.2537562604340566,-0.5332909694726403,-0.4936776905290146,8.47734386341325,0.7252658414412929,0.13332389019421415,0.7001612996521102,712.8780147504181,409.62768449658506,642.5079719376029,upstairs
2.303839732888147,-0.6661881129232405,-0.7919459557449093,8.575693788530284,-0.6637181575420503,0.04590529107252467,1.6495294466247428,679.0607769924626,379.1874946678797,604.059471989009,upstairs
2.353923205342237,-0.8887019600288885,-0.6784068496186484,8.745343221418015,-0.7588618298472669,0.4467093282906144,0.4988170995324736,706.0911058176771,416.8183464894355,660.8295334832828,upstairs
2.4040066777963274,-0.49403766575304714,-0.7403652435505126,10.083507970719586,1.5909161353171777,0.29574984497134027,-0.08029880748990464,667.7734692763277,289.525468331917,589.254920852507,upstairs
2.4540901502504173,-0.21809846092823165,-0.138716939086075,10.672652466432119,0.7733451524804132,-0.7756674402113115,0.2546859995680421,711.1680068460179,374.93029247516546,624.0090924606616,upstairs
2.5041736227045077,0.3599163037737203,0.28672276604148206,11.162196936449636,-0.13820910363013933,-0.10118067682741215,0.4939200524795544,770.9836651624291,361.1470059819132,604.9601132000497,upstairs
2.5542570951585977,1.009151874131998,0.719213894838679,11.275624813429893,0.16102580029411806,-0.6843331964867834,0.12076113649414649,667.16215325631,453.277396812329,643.1468164999344,upstairs
2.604340567612688,0.8894481523353879,0.7640373293393534,11.295248841532672,-0.5470171678668794,0.6821832594363013,-0.3794202336237448,668.7726889940488,386.22913900812136,650.1976266862082,upstairs
2.654424040066778,1.1949415754356694,0.3344441753066543,10.987676161493807,-0.6105277632789685,-0.19087860936752726,0.49044975739646024,666.5448971425176,387.64913997944797,626.4197538826501,upstairs
2.704507512520868,0.7771285200875766,0.13876658932181718,10.106433908178797,-1.2718459997636657,-0.32097592160748367,-0.388921241355385,680.3309777603811,427.26576183894394,595.4091830096573,upstairs
2.7545909849749584,0.19829819626043926,0.35197463708286175,9.361081076069128,0.586828929312057,0.5388929453133465,0.04793662871265441,661.4235456245264,361.5107528639449,645.6798884262602,upstairs
2.8046744574290483,-0.014886933400657082,-0.03864675428937969,8.79637293234339,-0.0077976285491449205,-0.10542035448947941,0.7031357561948071,640.5289620236606,430.63224509791513,578.0859684264235,upstairs
2.8547579298831387,-0.40918964106549766,-1.0361389830185534,8.568244117711053,0.48526596480985557,-0.8665319245938851,-0.8514857565141071,697.5787434802061,385.5915707332737,589.9179786559632,upstairs
2.9048414023372287,-0.4155706747454237,-0.6208984899700827,7.945965983141099,-0.5409884467310493,-0.059493047257833796,-0.11570353324762783,654.4224452271288,404.43721504642275,618.0798209990871,upstairs
2.954924874791319,-0.8020098742015062,-0.7638385291060998,8.619038899791711,0.2502662380213235,0.7335947984169622,-0.5151135030784264,652.1528560832434,364.7498450571523,735.4679722738581,upstairs
3.005008347245409,-0.7180647230729463,-0.8763208209811095,9.270295348562964,0.4843618566139695,-2.4976325696389337,1.0051951072839604,712.7937573710683,407.5014095090163,543.4916088792897,upstairs
3.0550918196994994,-0.44702968918993463,-0.34532727309357797,10.399583156517496,-0.026423385319324255,-0.06308631462679555,1.3219613348680255,609.6643916311368,406.7945664484826,627.8636397175138,upstairs
3.1051752921535893,-0.29709703413770816,-0.08957748545512101,10.98095600520138,-0.34503091534862934,-0.032924338784343275,-0.19595716531537677,671.8501621099396,450.62987806422916,662.8598404874814,upstairs
3.1552587646076797,0.7327727825246279,0.8872939396412087,11.24336054924838,1.6793752675852147,-0.11540020183048914,-0.23710935483706802,696.4390830404284,365.91862854877587,658.1346937340779,upstairs
3.2053422370617697,0.7560910408279967,0.4336794603657992,11.187918013219623,-0.4625829860516205,-0.48692024709516973,0.1303219571615178,718.6975569953408,395.45811871663284,744.3839162161207,upstairs
3.2554257095158596,1.0178632594218526,0.7836352212382478,11.02757003360061,0.5220433978187513,0.8817558272846578,0.2471366920749513,610.2385135529229,401.13536147515146,614.2404188646417,upstairs
3.30550918196995,1.0327496583977989,0.5188680228438638,10.605048009561372,0.6109485053439957,1.083372826753363,-1.169151017633464,648.6235421000035,408.31020054959004,613.9760569077604,upstairs
3.35559265442404,1.2108509004190544,-0.15139767731894513,9.547117359052795,-0.43356404743007354,0.8728442878597934,0.8131353627174881,709.4788140971425,455.9153877400647,622.4968514318979,upstairs
3.4056761268781304,0.20999486343834423,-0.18267895104220028,9.04467341588655,0.629051087546282,0.19765801864690025,1.493150973916879,767.5956769129476,369.94812333569166,604.7948837753218,upstairs
3.4557595993322203,-0.3136187207056685,-0.41323576507327325,8.44527559150805,-1.2235156057735863,-1.0471255261889132,0.9453300395249468,604.4909082592646,345.1221665186105,599.1600785932978,upstairs
3.5058430717863107,-0.4494643565405146,-0.6107388590534524,8.052333578228588,-0.21447500509970308,0.2723177088136312,-0.3218095616786527,678.1532255170514,418.1564765534357,678.4312624304202,upstairs
3.5559265442404007,-0.7162296579340861,-0.7759902498618396,8.303688330954415,-0.8941087073327016,0.41575476364378705,0.23512383940671266,711.1797836006571,328.3474986697254,650.0194990364748,upstairs
3.606010016694491,-0.9314074407800753,-0.4810476042351633,8.962263562828456,-0.16964384886722475,-0.11938188916340865,0.7344967950962275,699.1606713935546,370.1252630130994,695.148874177941,upstairs
3.656093489148581,-0.35572903137151485,-0.4511354352464732,9.474053508799598,0.2870934160853066,2.113027215371991,0.7793768692045362,541.5690414425875,378.9783435425736,592.5415798080994,upstairs
3.7061769616026714,-0.6283125042093959,-0.05745745628000852,10.56513539121903,-0.21414795654003527,0.4475676815939648,-1.5686995905807082,653.7345083336648,380.1658174728203,562.3942840120011,upstairs
3.7562604340567614,-0.02750741442557296,0.3994309226720251,11.257041298673103,0.8192620695849129,-0.27139320793158006,1.0762178382782746,728.6905600737474,333.2226017375983,610.4611893605953,upstairs
3.8063439065108513,0.6825372453791871,0.3112546472004633,11.481240180681267,0.8581398802091312,0.34679582972306117,0.6940756536599543,641.9809224072802,357.4836549584668,587.5196932058869,upstairs
3.8564273789649417,1.0638690228110614,0.5804404889361257,11.478654272269107,-0.01133906682017061,0.4915404732389484,0.5507184839540448,667.160478306638,369.27020085944,663.259467658918,upstairs
3.9065108514190316,1.2948384277157687,0.6580764413103206,11.26371043178022,-1.3204597638950006,0.07384666408930654,-1.00267297588371,738.3895052307531,372.2285159251545,639.3119965121492,upstairs
3.956594323873122,0.6293825163594848,0.9270442960619334,10.158881739089377,0.5847235350330893,0.5669967749839613,-0.0007358059628505418,709.7398628136793,362.1081005361967,681.5236467847772,upstairs
4.006677796327212,0.6151422114636899,-0.27957946322577243,9.240337726168242,0.851676343260992,0.05267773084537198,0.1251997986152635,710.2298337981733,328.4506252389466,624.5925455840776,upstairs
4.056761268781302,-0.022720214031008615,-0.42801599190516254,8.86890511042944,-0.648426894880634,-0.29062753912547323,-0.5843220966540467,610.6034896852414,474.69265179024706,576.2192137640181,upstairs
4.106844741235393,-0.049957637845153294,-0.6621839006189914,8.477367415736488,0.0022878008275320806,-0.569700673626048,0.8420569362210446,793.8677493843414,426.11247767470394,578.005569810214,upstairs
4.156928213689483,-0.6734351389857043,-0.6300126950914713,8.537253179339436,0.19970503293918665,-1.5300947243164724,0.10987558060850902,720.9795246752655,360.77463952459567,582.674069043506,upstairs
4.207011686143573,-0.7918891079150168,-0.5677818496511016,8.595935121434591,-0.8658649479056953,-0.6828425137753448,-1.197313749311309,681.3191110042718,360.6417271112527,688.3620249800631,upstairs
4.257095158597663,-0.6826689480631113,-0.05923721845724461,9.33855883088209,0.23464528536215054,-0.7563995975728033,-0.5110433041580225,653.9207767683465,356.5480005359105,607.0682533306085,upstairs
4.307178631051753,-0.6411545267725139,-0.5447959983286668,9.898439926694769,0.08737220741047726,-0.3188032637210938,0.6607688482583796,608.3104032052797,384.04642864293925,642.4202703685679,upstairs
4.357262103505843,0.1423615107294049,0.18367649400559288,10.599870663216837,0.8133911915302977,-0.3453068501958971,0.4792318053890636,659.7921946279233,382.9344899200295,590.4470519924732,upstairs
4.407345575959933,0.6082984213984064,0.5005341546519273,11.431887748088075,-0.009319132249235083,1.1826168117512361,0.05710187236380296,761.0709846674833,417.67285202146684,672.9412221563058,upstairs
4.457429048414023,0.7678233438862064,0.7919670264967684,11.602814936117646,-1.3086672964676795,1.5365195395204256,0.5014310038559183,723.2077277448001,413.12387305817236,560.7792955599192,upstairs
4.507512520868113,0.8612681350555783,0.5898083106076488,11.18725740788501,0.3738364440603919,-1.4247568334544154,-0.1346135275523156,709.4187666956101,383.59959924263774,624.6631169581107,upstairs
4.557595993322204,1.0550970854660042,0.3083205034236725,10.349636250306586,1.1314119811776149,0.005360356321591023,-0.8765189105176873,690.7935262928958,400.02629199049323,641.7457055121001,upstairs
4.607679465776294,0.5569462553618075,0.1869589918392519,9.514415797174516,0.4121597743974545,0.4196805285869456,-0.31553340672545327,663.3103726495841,325.786431370961,654.2758293973372,upstairs
4.657762938230384,0.3262257362857739,-0.3595617424648706,8.951473975373478,0.07915785524392667,0.007670902397975249,-0.00503747712782989,623.4159024192209,445.9143602912666,591.2999606312312,upstairs
4.707846410684474,0.04561594378966753,-0.325241695026057,8.649835578128334,-0.5099530597446843,-0.5729387190418235,-0.4987309749650484,635.4775878304794,399.68749393871104,598.6944471913052,upstairs
4.757929883138565,-0.8113780945403706,-0.5068051187646259,8.496397320793687,-0.754146967311371,-0.06051213183488482,-0.2510672694073948,658.1886583490242,402.84251538699505,528.4212555893725,upstairs
4.808013355592655,-0.9316223922117776,-0.7921833084316048,8.361308814753441,-0.9031768257058513,-0.2131415944930018,-0.42250691833157905,698.0820201570294,362.10124086240546,612.0645751769948,upstairs
4.858096828046745,-0.6848610945689549,-0.3436874430571184,9.206706898933627,0.3563989445554706,0.8345029676113248,0.6806279420247027,615.2524787365564,379.4275683321777,623.7860396659607,upstairs
4.908180300500835,-0.603906991419552,-0.4677999509649019,9.99357348660955,-0.7950391230954589,0.6338937242069872,0.035373739416353515,660.2229031033611,374.3370982705782,591.5169321846256,upstairs
4.958263772954925,-0.5098427965618018,-0.1370985396605046,10.529145481944763,-0.1951175884824261,-0.26500623213385166,0.17042091258622524,733.7729068451742,386.3824707682508,574.8755749361877,upstairs
5.008347245409015,0.46134853951615334,0.19243249418060265,11.113753761091212,-1.084505056596789,-0.05214768310213511,-1.1204096294892305,676.104396695154,401.2177220556643,591.0631122959994,upstairs
5.058430717863105,0.8387524257658737,0.7853085425409876,11.802746719692873,-0.22731144108391055,0.8005610261508821,0.5007640953153395,711.8994308423524,342.4101850070994,597.7576028850641,upstairs
5.108514190317195,1.0165063063602744,0.8632950227223224,11.600207973026254,0.5817843539173865,-0.032067320742849494,0.8298181118909023,669.1034161431396,439.89956528173514,526.9916806178426,upstairs
5.158597662771285,1.1114377249978964,0.2688546740031438,10.948967001439726,0.28633004578461363,1.2435512398075534,-0.8266074356670537,700.6770692117462,338.3428400878629,567.1767899690672,upstairs
5.208681135225376,0.5570586127456152,0.387424212108236,10.24883368786825,1.4130055632027478,-0.682300136549181,-0.35088626382784904,706.4995623687705,460.6742339833929,637.3069629295903,upstairs
5.258764607679466,0.5767366088169761,-0.20050468026460264,9.250055287291158,-0.06411117088919825,0.9112609695873232,0.1548439174021423,687.703773595617,403.7587217243925,622.4998675062735,upstairs
5.308848080133556,-0.2810851280314714,-0.06068615065051958,8.678570767838483,0.05191083254439322,0.22702374524184857,0.03691292353386664,708.9504323091866,376.99142607374245,627.021223091521,upstairs
5.358931552587646,-0.20909306528722332,-0.5237479629250763,8.447365439849968,1.2016984190051079,1.0517402340480746,0.35246504544737595,769.5584051520751,441.43535174012095,555.3735373229848,upstairs
5.409015025041736,-0.9191891021344526,-0.8645862139129965,8.40581352293038,-0.20969701393668227,0.2491610459096114,-0.1512189266242891,704.6809975646872,358.71767984355836,441.53483435169346,upstairs
5.459098497495827,-0.947631706347351,-0.45217187089966676,8.723075738445274,-0.2276446077563737,0.12235566259097497,0.02111888819955204,731.8980621879256,371.7438318663059,598.91627673218,upstairs
5.509181969949917,-1.0490595709999542,-0.6162110519820447,9.313588657777247,0.24214600027797958,0.06535377651202491,-0.14323310207956047,632.5584208634324,363.2323429590256,620.0999082422768,upstairs
5.559265442404007,-0.7430572682255827,-0.10478181271264171,10.633967377878454,-0.8004725174456228,-0.45174719840685673,-1.2328535868611117,672.5357342520234,344.9331006625904,621.6297171701523,upstairs
5.609348914858097,-0.12572107584490644,0.45997071725849487,10.725959006721169,0.4370027343816762,-0.41090678511842016,-0.1528404907358289,662.5279022974152,363.8430560966042,603.8469804207755,upstairs
5.6594323873121875,0.4731257182402651,0.4187284344975057,11.16834504307568,-0.9155329639863106,0.23689608655627506,0.27743391110724047,608.6392995565545,393.64002844093625,586.6734896083689,upstairs
5.709515859766277,0.703820792441651,0.6257871505352552,11.597339451662883,0.2283002217689735,0.6304287003243093,0.038573043738476205,621.5874854121009,380.23769168080605,621.4539269274725,upstairs
5.759599332220367,0.9353471389108762,0.8240885380954113,10.876262568212729,-0.6418333297094941,0.5862176307365503,0.9518639505865969,763.6148675575128,372.47243626660463,642.2806618316966,upstairs
5.809682804674457,1.1787321014107965,0.4989236841463743,10.21363075062197,-0.5934551125368387,0.5600490157666276,-0.5302291746231416,635.6657941643555,369.94909024877785,624.8492989536041,upstairs
5.859766277128548,0.8840237791016511,0.048587073243030646,9.96752340776059,-1.3609336673648087,1.2738886969917136,0.9641057220785886,644.3037741672524,399.1542898913737,643.0079520427709,upstairs
5.909849749582638,0.13973957617121713,-0.0024677254000693427,8.745782534929065,-0.6872300491507319,-0.3291200807073968,-0.22820553455394546,662.6207659484485,460.76917776142784,603.6306728137641,upstairs
5.959933222036728,-0.09473677686628569,-0.5652332083254312,8.382090497087034,0.3937281389302913,-0.6864746289263313,-0.39274089193126693,703.1994693269266,359.5823631973283,573.7100818256458,upstairs
6.010016694490818,-0.8086315069806999,-0.7154261671953166,8.02526331546389,-0.10653709154062313,-0.9589518728355348,-0.6788120790234886,683.6904629430142,454.5129736312657,628.8962130871327,upstairs
6.060100166944908,-0.9398865064809173,-0.5823557772435799,8.668644684064489,0.5850908254433305,0.3770695739138343,-0.9238301529755355,755.5566581952324,304.67616933150447,608.0969763646418,upstairs
6.110183639398999,-1.2088954508826675,-0.5788661553185761,8.803000919207868,0.37182833519319924,0.4704265603803748,-0.48419248307190177,707.5708426899437,380.42670236048,677.9689118592747,upstairs
6.160267111853089,-0.8375930942674891,-0.560200853594051,10.104897712637575,-0.4404929925007786,-0.5947678141314827,0.42277740256956065,742.8833245332572,341.164242530227,565.2676175104425,upstairs
6.210350584307179,-0.0018902955987110809,-0.08382950717846133,10.608657306289768,-0.7634642281502422,0.7452466183555037,-0.7060124250726533,689.410680043216,364.7716668036724,578.4510018900244,upstairs
6.260434056761269,0.2217104964360767,0.30687197804685196,10.854451161216826,0.2003413691996398,-0.2527181595864918,0.8515392990462937,671.0761415956473,410.35019345429805,638.327856990072,upstairs
6.3105175292153595,0.4989449708486334,0.2876868570358447,11.219755676017835,-0.13727990229138531,1.3394522940052964,-1.035096546710586,734.0591166951285,324.6445911639732,632.6753661282621,upstairs
6.360601001669449,0.9944983838585528,0.587085204688544,11.61272526476496,0.5595336393717777,0.12486014136848983,-0.9150887200128912,711.5790572899523,381.1582684229322,586.4558211559224,upstairs
6.410684474123539,1.0343846976484805,0.6888073432532282,10.715215570000518,0.07912927030042616,0.7732295427249641,-0.6498194720410778,695.3858925284733,381.91236395523725,620.273808919638,upstairs
6.460767946577629,1.0387594585064066,0.40425941058140963,9.974345004314227,1.1489782003005573,0.09837251032342374,-0.8961513973476883,628.6615537962476,396.62685645784984,692.7525744424154,upstairs
6.510851419031719,0.3267240762055985,-0.10166562427997093,8.975368353156528,0.034873210070247504,-0.26738172492066237,0.35078633123293035,607.9669495081782,366.3303243188258,597.8119771803409,upstairs
6.56093489148581,0.23553079056761195,-0.06303087212425873,8.78177133593396,1.565798130408215,1.344245990945145,-0.3142330972039799,656.6293585135135,356.9873782896912,627.0640156236195,upstairs
6.6110183639399,-0.6839046150991054,-0.7343411329111731,8.336663070418421,-0.3890759142992672,-0.20230065382611961,-0.5180987557972618,721.4719899241938,370.8972217529277,568.4094699867446,upstairs
6.66110183639399,-0.7463341389453675,-0.7215067482130928,8.332302639652571,0.7075659663989288,1.489577621486038,0.5995027458553971,645.1082229488702,308.8263172440571,632.4686972911455,upstairs
6.71118530884808,-1.2537484880550132,-0.5906457386569433,8.785351777215904,0.5767644413602792,-0.5174885422640306,-0.3074877318560827,642.7508055184268,351.16560827439093,559.9337633774096,upstairs
6.761268781302171,-0.7403278458654655,-0.7812236805775474,9.335447411884342,1.3619561348330556,0.8400344990018422,-0.07747085240449193,737.8744604907602,378.86860982464543,561.8215975054908,upstairs
6.811352253756261,-0.27475525727671096,-0.26789957746497195,10.5519145045298,1.6999654865282396,0.5602100034263175,0.5435289559563211,738.7683512488583,370.4109454354808,596.1783652593242,upstairs
6.861435726210351,0.08996991411926782,0.4518804830591456,11.076161670406703,0.9820596295035653,1.110722705822113,0.09084113510890737,713.5514623183614,353.6213660110291,622.4369618311363,upstairs
6.911519198664441,0.5924085644053788,0.5848252907053051,11.52413526491553,-0.946517568474934,0.8207516121040798,-0.005733345993277368,740.8799974447563,344.7710380974699,610.90801211519,upstairs
6.961602671118531,1.1847504132928308,0.5065331702781526,11.501315848950401,0.20621453932050585,0.6148130616435675,-0.47279066179071944,638.9457252977946,352.35576391939685,634.8973922385939,upstairs
7.011686143572621,0.8294460207854832,0.482448412006338,11.168513971064874,-1.376656461316275,-1.3933246899256082,0.8791277318104722,715.2173005916014,442.22394337876324,612.6954714381608,upstairs
7.061769616026711,1.1573574478669035,0.3435278172771303,10.536392822138138,-0.16776519586530533,1.0052380054175465,0.38879782615145725,799.9936417971401,452.1700808642207,591.0706129954641,upstairs
7.111853088480801,0.8101951826971228,0.1146517121608579,9.512964023908417,0.10996097417588897,0.2991435407815386,-0.31747327807830433,714.4777425551124,366.4890348125036,651.23761631034,upstairs
7.161936560934891,0.4096118571264109,-0.3634957641880024,8.650933530144979,0.7908874527329959,-1.3769330030245734,-0.2610117382174339,738.3467640678228,392.1635061250037,668.8705447119136,upstairs
7.212020033388982,-0.018028077281668956,-0.6623400945294184,8.224806045253064,-0.2702277185849775,1.0006560909105149,-0.9786841564954428,665.8431375175683,342.28058029676384,642.8623810787053,upstairs
7.262103505843072,-1.0115771913049834,-0.630065557282,8.51236462716329,-1.2923198692092353,-0.15747444102991479,-0.28108630147384833,654.1888982462411,376.14927352080787,598.7513698696315,upstairs
7.312186978297162,-1.1557275074678397,-0.8474745748709092,8.755597938540365,-0.6062189919120471,0.1622013014870926,0.2684180955554725,615.1631867946178,391.2131255949704,611.5960002045916,upstairs
7.362270450751252,-0.8336617178973694,-0.6191399282325063,9.494840299949077,-0.31753633729956793,0.4977928466488501,-0.09525702093648752,692.6670894303782,409.35069449623813,617.5292188715266,upstairs
7.412353923205343,-0.9271502679140545,-0.5408329859362702,10.067937904322607,0.5269134937071346,0.43571190988742553,-1.0367746858503366,653.7131595236776,333.0920283032641,628.6804297164737,upstairs
7.462437395659433,-0.1368238347586141,0.037773451132305014,10.867410027257863,-0.7635951224223364,-1.063123862711114,0.24606288834056708,599.2221366225108,399.5701894925578,680.2939966778498,upstairs
7.512520868113523,0.6178806357744641,0.2760773552758184,11.17787652759835,0.4212775972979349,-0.3057196349022443,-0.37343051099420405,658.9473593153604,432.15530198156296,659.9584200001499,upstairs
7.562604340567613,0.9479389652377066,0.5511461561478206,11.696769083384764,-0.3582013031478198,-0.5237314519286056,-0.09877585281156331,628.6743693295647,360.5497135116578,666.4883682118168,upstairs
7.612687813021703,0.8023381576942752,0.7367940785552778,11.385994053886499,0.4278522390046914,-0.19873017556481282,0.3269904345929236,623.1201191906596,330.64093831297754,598.2317082419306,upstairs
7.6627712854757934,0.7338147489126913,0.6377493602231457,10.827948302003618,0.3366735581777427,0.29681076720258365,0.32454592768303414,674.4896126426903,411.5750721602354,654.9125261737425,upstairs
7.712854757929883,0.9817915670803934,0.0663227927939948,10.37045031585349,-0.007993695569194768,0.014067145873463324,-0.7794711606409037,605.1244330182592,433.31354660323507,569.9295508295654,upstairs
7.762938230383973,0.44707369321825746,-0.3181936025111322,9.293607223842496,-0.2523748102076299,-0.8161896049449485,0.42639855643889013,663.9660096327348,343.7859335202646,630.2984707913058,upstairs
7.813021702838063,0.11297631436049996,-0.22666084488877813,8.4821018881451,-0.24030999843206677,-0.1447597708922936,1.833406161505449,705.9573871820751,386.0372901341924,630.934477620128,upstairs
7.863105175292154,-0.7386089820732332,-0.3603544529719535,8.46513909319491,1.7375743123845464,-0.2940142185772269,-0.059666754180045814,624.6041562262683,414.39919204662965,585.5526863834207,upstairs
7.913188647746244,-1.051816380631611,-0.39377883287921334,8.491852968021629,0.8057286486384883,-1.2848385203425503,-0.008054871958040603,630.5839955391357,389.57525241797475,668.1738724827866,upstairs
7.963272120200334,-0.8279107548470123,-0.8392492500952171,9.042093606259517,0.09279224891141771,-0.28686115844468435,-0.10773459472420661,675.7885092837921,356.0216407189796,623.2471554117764,upstairs
8.013355592654424,-0.7583238900930792,-0.25188730939510895,9.628310361183944,-1.1978824477154801,0.6899819756540436,-0.3650696084870001,668.5359433704239,392.7610474073329,581.2245295564751,upstairs
8.063439065108515,-0.4698115859566501,0.41815640788981767,9.968424196251041,0.7919260864117427,-0.5569258531593954,0.44008213648641187,624.4789595903392,421.2266062085348,700.3696078202552,upstairs
8.113522537562604,-0.04213285461201255,0.19418803658736816,11.255761933476078,-0.4156589299087261,-0.7621047021355682,-0.29982386388193927,689.1344786489564,403.6520804307623,532.0993597277535,upstairs
8.163606010016695,0.5606792789022306,0.6366589376449174,11.452415961493037,-1.7283601200957013,1.1835473467099211,0.5299093502014297,685.2071537981498,454.6078110039442,587.9395394533758,upstairs
8.213689482470786,0.8277900613357944,0.7827631598501605,11.885834832627515,-0.6312986606308797,0.7404138358061527,-0.37926689334703734,672.017924582226,375.13286942509427,594.0227574463297,upstairs
8.263772954924875,1.212517843683615,0.18952150136627988,11.201831278321569,-0.4036857009779447,0.5283276248076842,-1.0052737700700514,697.7818549801029,421.71095466391955,685.243239966562,upstairs
8.313856427378965,1.0168490450824814,0.560366976899761,10.701690342533087,-0.1877315291281889,-0.4747707782443582,-0.3518916048933105,658.2197505077959,425.0740980749428,606.6957859890981,upstairs
8.363939899833055,0.8577554158436509,0.022658521203743787,9.855494457117864,0.38345892274607263,0.6411265031573529,1.4988760916441557,717.419320509625,423.5457337973383,638.5273602814927,upstairs
8.414023372287145,0.6913722362371465,0.14051031161746988,8.865353807900703,0.7932603586966527,0.7490635937794509,-0.3547920842422599,683.8792797996866,407.7376254166226,567.2917897451055,upstairs
8.464106844741236,-0.11994106711023507,-1.0064881895381153,8.389612433521762,-0.6025962477505408,0.12319480343995189,1.1165889626634244,688.9876502173996,413.6501588402102,592.9843573590249,upstairs
8.514190317195325,-0.7018501781885153,-0.8762034197563089,8.132418981962333,0.6618900987420001,-0.8121397542025891,1.7326057197801195,664.8118114916765,374.2590762027869,647.3787047867719,upstairs
8.564273789649416,-1.236568518498577,-0.9795292863173612,8.94941034441757,0.12121702342264547,0.6150401894667843,1.336768729216568,752.0539099747825,459.1022507884069,649.3962112880587,upstairs
8.614357262103505,-0.7199625025079948,-0.6169227306637137,9.280672047547291,0.05446353873710481,1.0295534278145377,0.3166625493169639,639.1211340963407,339.1824844552012,628.8327077962915,upstairs
8.664440734557596,-0.787031148989889,-0.7726101761249846,9.665755003880134,0.8106999741926212,-0.3883563765520616,-1.0737079923718809,724.3273664589401,370.396645385858,581.1457731681602,upstairs
8.714524207011687,-0.6370038366985994,-0.44324147406834963,10.724079039954526,-0.8141018256846794,-2.009890940235222,0.5222639135786868,591.758180100966,385.53476077062044,575.0807619060215,upstairs
8.764607679465776,0.10893019805349086,0.3927072316176416,11.457598433739982,-1.120284747261162,1.6612667042895972,-1.0529786883237833,691.5294580941078,346.13794092914264,572.6857813310855,upstairs
8.814691151919867,0.7753640957042929,0.6908943486544927,11.647449401007552,-0.10254049775758674,-0.01419094270362641,-0.39028442453820084,646.9382606194112,408.1867774296684,621.6604715729534,upstairs
8.864774624373958,0.8466731455153931,0.4414151414615341,11.728186561195104,0.6637097581400896,0.2136647145544305,1.00714437832673,656.8002770937258,427.8828682564752,650.2466850827798,upstairs
8.914858096828047,0.7860822606024521,0.2690971916014745,10.573153011294762,-0.25202790143424,-0.008169928543297704,0.2602750178992712,592.999272987056,383.08567367672555,666.4973574530543,upstairs
8.964941569282137,1.1017199553492842,0.24837349164601874,9.909466072899546,0.14360516804601434,-0.6407469537438165,0.8094290414708417,641.2381112928606,451.4839044134569,643.318432313252,upstairs
9.015025041736227,0.5049919443569019,0.06353842615123537,9.323706711017842,0.2538640357361221,-0.8991004826186286,0.0691215498872285,710.1300754398884,300.52734877640495,593.8982618980804,upstairs
9.065108514190317,0.1462351474529185,-0.4805815442797369,8.481632082659777,0.01951251084720824,0.9215111680470497,0.0009948628757820083,568.7332982751393,405.76695047152367,628.9759447290768,upstairs
9.115191986644408,-0.4558915086654067,-0.4541441055445002,8.4434035421258,0.2043020029522818,-1.4439762024855052,0.7462735809427133,637.2758543180889,382.93504286861065,587.1234974916381,upstairs
9.165275459098497,-0.7297432532381987,-0.7000353547096481,8.511812980028443,-0.5634681963601745,-0.12196997480576384,1.0247827461157257,656.62961458541,379.8152727058516,596.783295501139,upstairs
9.215358931552588,-0.9242639165960319,-0.49377979717102033,8.927773051279084,0.28998854328718343,0.17908462827249785,1.7622276273819593,530.3603874372129,385.4769152938117,667.3903645629911,upstairs
9.265442404006677,-0.9563386061672506,-0.41191545224334986,9.59488221240446,0.7791568746417837,1.041131892377569,-0.9764001616972062,701.846789250872,317.672347756035,604.5074971039343,upstairs
9.315525876460768,-0.41126007956122107,-0.5164071551090474,10.501088984677919,-0.2746589934441209,-0.5216758889315877,0.40837378093743876,651.7464023182246,419.20306084504085,653.7579188611618,upstairs
9.365609348914859,-0.17780773670371464,0.5299677885655989,11.201695843069832,-0.6742804288074672,-0.956781750978552,0.8621192774913384,693.1906760839175,386.72500158154713,548.6637548161561,upstairs
9.415692821368948,0.3707907556740074,0.695854498222295,11.552368049585908,-0.26182133291410165,-0.5488850746777103,-0.38642794541063263,641.7179348809802,395.42791567483965,669.7870780328545,upstairs
9.465776293823039,0.6747165638666226,0.6056681152763108,11.344530013097856,0.08681664449298776,-0.34378510895631426,-1.4007853000161214,680.4264173550033,393.7605515772325,626.5250728798192,upstairs
9.51585976627713,1.1315218841279195,0.6613191907377678,11.28328311779688,-1.5041720184072331,-0.1754915861798879,-0.7919629012832793,673.9812066956415,404.7624478033156,624.5085331013274,upstairs
9.565943238731219,1.2294682404063852,0.46871723087012046,10.48684345928517,-0.5676714085376888,-0.01599245594765595,0.41907383191759,729.511813630118,398.2803584610391,657.798338188142,upstairs
9.61602671118531,1.0478588572183936,0.45383231515249095,9.456551532992268,-0.043517601820509955,-0.09410923972284031,-1.1715170578387246,761.8133372126489,403.86144518985384,691.6933782048014,upstairs
9.666110183639399,0.50801281877277,-0.12595133085660082,8.915445793246358,0.11122314177806132,0.2708680723170726,0.009860173043059675,650.1984311204438,375.0384765210638,568.747938309403,upstairs
9.71619365609349,-0.2911043594101653,-0.506112667356631,8.300242883285616,-0.7891504966215428,-0.34889613222704463,-0.5145858729117592,698.0758172474879,452.5167591957663,613.871755243458,upstairs
9.76627712854758,-0.703714944349077,-1.0718699797261184,8.661409489173339,0.7386104756457729,-0.29332148712159256,-0.6513481804645302,625.8093929359784,380.78230712762735,618.8512514438819,upstairs
9.81636060100167,-1.1249767878051014,-1.1204223333546208,8.694971618153353,-0.1039593699804453,0.9237724922582575,-0.6932541925015574,763.5714924937652,331.2422885664951,645.691509834489,upstairs
9.86644407345576,-0.9327549570011696,-0.4850817990300843,9.357586078485168,-0.23086820041007647,-0.5682792398401894,-0.7431382781958058,698.937629975406,399.5909301233004,565.3306532725478,upstairs
9.91652754590985,-0.4480612928506515,-0.6942977057969577,9.798896706918821,-0.5738421247063266,-0.8627558466395489,-0.7796108253618932,693.1435567646695,387.94402530502833,635.9715133217823,upstairs
9.96661101836394,-0.6690370839360148,-0.016116029397466217,10.738890883567421,0.5532612719459126,0.9492562985665228,-0.37107994844070996,631.4014775047956,412.28093712691646,625.9990673481491,upstairs
10.01669449081803,0.2874477605949029,0.5133134356668254,11.362915028031226,-0.13170509193316587,-0.28692232744213775,0.15222457962478647,659.8937847793736,350.55000768353204,591.7408631745235,upstairs
10.06677796327212,0.7033687659941509,0.42985790690702663,11.40287313179232,1.062938291959976,-0.0027205877327060235,1.0157585149060153,599.8185016226485,364.0573251052312,589.6082424466301,upstairs
10.11686143572621,0.6372638487442923,0.7982588357188298,11.428219327465124,-0.24988986323627346,0.31654218249591687,-0.3998941285957412,673.5869603037622,380.273651447741,678.6764382471367,upstairs
10.1669449081803,1.2271685225962883,0.2673800970526317,10.353511319811302,-0.07051746917778995,-0.9374174401103956,0.300931981016098,680.6337716930897,366.75711867122305,651.5839120340939,upstairs
10.21702838063439,0.9705777783901441,-0.0029247734240658296,10.198004699645704,0.7358867901769961,0.5863444010668766,0.9333179057397291,699.5160503124107,362.3637106559505,579.3540523975341,upstairs
10.267111853088482,0.36668762450915215,-0.4151186262298307,9.016064878721602,-0.1814527351652095,1.9269131632471235,0.2896871915813161,603.5164740926595,442.6260759208093,635.2536693695308,upstairs
10.31719532554257,0.22071096470191637,-0.32832744261071467,8.462720214727435,-0.18083194648233666,0.7292457577756277,0.06862481127880908,637.6846516847593,408.01713414848706,627.3431759961018,upstairs
10.367278797996661,-0.5625046674227431,-0.8703358800415213,8.515511640594925,-0.5802010015363722,-0.17002904211690417,-1.0220579033205075,781.581488768547,382.0626869234455,555.8600951536399,upstairs
10.417362270450752,-0.8852974102832362,-0.4870871205680696,8.78709469087815,0.9249607374478422,0.014875744990241477,1.1265661809376621,668.5540295464322,378.34495574689333,657.1681167739712,upstairs
10.467445742904841,-1.2518248434195147,-0.7840856713872721,9.076217139919388,-0.21265001381518603,0.28299386545808386,-0.1418442556130052,647.8462966126206,431.4764454466944,622.1607813980185,upstairs
10.517529215358932,-0.548880401450273,-0.22948767773663645,10.379217370802333,-0.8535873189997994,-1.2899681201722508,-0.426952607015925,728.0506021126384,418.4598501892187,723.284918657354,upstairs
10.567612687813021,-0.41829064225724016,0.050288636283017996,10.390579744159881,-0.4472911055106091,-0.4622500498716814,0.7507035684510014,675.0926411126119,346.1970141641818,655.485536409828,upstairs
10.617696160267112,-0.0320903369431786,0.35274444140446676,10.82572739086517,-0.27691989771496867,0.12074152839689131,-1.9171028528301226,640.7939748277563,405.8608629370807,615.035615760468,upstairs
10.667779632721203,0.49345244106252256,0.6586617463424107,11.19938917253792,-0.2183451929469133,0.6646598094737124,-0.06210567208312453,752.0534444337637,437.5793339698239,701.3147278731333,upstairs
10.717863105175292,0.6464198076986761,0.787223451587213,11.230361949544916,-1.0780833073027694,-0.4486782965514528,0.9535551011077433,631.915870437719,347.7113903125654,630.7535289803603,upstairs
10.767946577629383,1.0874237862355325,0.4412964495940204,10.787712579481889,0.6419129651197106,-1.70109548971917,0.4176788969598335,687.5476371922801,417.08027306655276,607.154617679998,upstairs
10.818030050083472,1.4844377309437857,0.4789825400189896,10.470473824546076,0.29674548823375213,0.10646389643258389,1.6731123972847746,751.5293068812504,450.022833465017,630.9292266942443,upstairs
10.868113522537563,0.6517096150296559,0.14208821878131755,9.740317163112259,0.5693788025300383,0.6658555559361631,-0.6693289595309436,722.4715044523766,378.5682570413241,689.078429522283,upstairs
10.918196994991654,0.04538947048079124,-0.24949466458432717,9.347979272952045,0.20841103559475735,0.5053492064764267,-0.2322853100973155,639.162792207945,413.8635572041373,633.4451920048248,upstairs
10.968280467445743,-0.09110588640075422,-0.24730188995105373,8.720623848440523,-0.48777545654837223,0.9073986472888717,-0.10008787430737087,704.0998638076386,390.41355536412055,586.0887677317496,upstairs
11.018363939899833,-0.5774485301467227,-0.8123835158008901,8.346244986839242,0.29485892014870746,-0.2089398578480226,0.20250956915381302,654.2952639381895,440.2741227953994,537.8364379442522,upstairs
11.068447412353924,-0.5777670211330951,-0.7945342501512642,8.595564149421568,0.5888111859404889,0.36269798468707004,0.17760443515105576,588.0825933534878,360.4981309114741,558.858519780966,upstairs
11.118530884808013,-1.1177188524127104,-0.10168793068628545,9.095947919412946,2.053687373756162,-0.15882583599301528,1.6313727238593019,709.044554400271,413.82452415321274,688.4267447619997,upstairs
11.168614357262104,-0.5994322029228688,-0.23274631938651202,9.867355578963144,-0.14233451174742176,0.44791811419174504,-0.3244921713757199,766.8035466460674,406.76928352832346,650.6206856907193,upstairs
11.218697829716193,-0.432499996599276,-0.20318475623619794,10.702494964759653,-0.6878601068271301,0.22808479235566936,-0.23745627118810889,650.7740064032747,397.83588162856563,722.664421391176,upstairs
11.268781302170284,0.21273158482500526,0.1491092199294234,11.407957955382651,0.0994615966409014,-1.2877289061855237,0.359635294232289,695.1294378088546,413.1682660608002,605.9583281523296,upstairs
11.318864774624375,0.6345890062164216,0.8019240901607052,11.6580243945372,-0.45970804173526303,-0.19786255631942,-0.37567709431856483,750.4397581472168,363.9397690873441,586.3210535717162,upstairs
11.368948247078464,1.0650233647089653,0.7039886980764976,11.214927577225422,-0.2481506856585094,0.26863366530631166,-0.5386258040176329,686.3852773021085,369.71102680494016,568.0253718597121,upstairs
11.419031719532555,0.8454892531366984,0.7239828067822436,10.881633675409576,-1.5907874987239736,1.11580617441151,-0.3878162307680682,703.6508088030707,389.17279010758824,543.4305185672213,upstairs
11.469115191986644,0.7811528112008806,0.6290839737683809,9.825134146851754,0.45317488117392973,-1.1930336750914596,-0.2701670491205509,713.4237245111362,349.69637307563374,562.9895137700296,upstairs
11.519198664440735,0.5183632835905653,-0.5891160889635616,9.287521334130686,0.30359142365419006,0.6005815622715516,0.4000099489281612,714.1978477533074,345.8937895513936,610.6657883602724,upstairs
11.569282136894826,0.019915890252091742,-0.293742587013191,8.721583496085827,-0.39243177696051396,0.26272949627387027,-0.5352429617199754,702.5614612646644,457.1532789519554,648.6142367076146,upstairs
11.619365609348915,-0.5643924890277354,-0.7154008341989002,8.40350512612955,-0.7225458618479598,0.16966177193071377,1.1653974314650228,678.1412349526756,369.36520798324057,641.4571630296655,upstairs
11.669449081803005,-0.8077723458696363,-0.6433714669576638,8.456773871648872,0.1901417118668637,-0.7424263805328976,0.5694981045459939,684.4122181082882,351.2080613256393,567.2736279270086,upstairs
11.719532554257096,-0.8440684793486917,-0.5103819632099376,8.756199570860133,-0.23895365808442554,1.1551982920977821,0.9358881151264143,746.7719685750862,433.97076433624284,597.57430825853,upstairs
11.769616026711185,-0.64906853057044,-0.42254126677420617,9.726217039722941,0.9410256618742141,0.5614913880880368,0.4427768117632897,657.2544249307543,372.87145350150695,622.6609151993424,upstairs
11.819699499165276,-0.09520100888884127,-0.08484935013018144,10.535781884151628,-0.9386498160931012,-0.2832885949212121,-1.1080165954784025,597.3091545606678,384.32227092158064,570.0997538561858,upstairs
11.869782971619365,0.32807225001333,-0.04164967332568803,11.352263224175648,0.329381306139572,0.5360506356890543,0.7791753427688779,674.9343015324683,347.76038439193866,586.6216791255524,upstairs
11.919866444073456,0.05699695261439473,0.8712291460577473,11.578092681559806,-0.2640573654102695,-0.46406319970421833,-0.3036421962413532,678.3655309768056,453.36003868712805,678.6593009681405,upstairs
11.969949916527547,0.526041575518811,0.730917729955149,11.38270002835999,0.7644493584800548,0.6555342117229901,0.46583046008026047,780.0656057408243,383.4032903068995,638.8314449071072,upstairs
12.020033388981636,1.1628709541608673,0.3279247871444503,11.473110050192222,0.8604658999754912,-0.6000929410076815,-0.4037070462842223,625.3846214630348,345.66972995255037,568.4981244753433,upstairs
12.070116861435727,1.0055403121506894,0.6052941921158135,10.493978816788529,0.12079570583170195,0.0633954185605035,0.659564078308282,719.8084548402921,332.2972885285181,656.1333430956826,upstairs
12.120200333889816,0.6791638271010069,-0.17014195688995476,9.531489314279147,0.8281580238491599,-0.19689653679768376,0.3031264057570443,719.1264445594659,420.60775826732436,651.2150917169039,upstairs
12.170283806343907,0.05330058463781355,-0.186590373978625,9.221282649385753,0.3067441065827572,-0.5257600495192924,-1.022216474174801,705.3031000703646,394.5174358598175,636.6522278414346,upstairs
12.220367278797998,-0.24570118247590889,-0.42575359117100936,8.362638017990166,-0.20215063118931106,0.18157603072079675,-0.0528785252541821,704.6203655240913,360.8927628110402,690.4265406296759,upstairs
12.270450751252087,-0.5508252107613153,-0.990559154929535,8.526757843163017,-0.21868237429328974,-1.7094711972358911,0.19766175777609413,644.9457238310755,412.93765529272287,667.4700076604986,upstairs
12.320534223706177,-0.6660701455013104,-0.31946107980895083,8.539990210628755,-0.7168849221354925,0.03836268470513635,0.06420354082498446,663.351527409386,425.38341634974825,615.3576934124172,upstairs
12.370617696160267,-0.8819597571290818,-0.3987843751243006,9.269614602686,0.8827376184992783,0.5515704822786971,1.8536216307760522,720.3700866224631,322.92082468681383,641.2188265342496,upstairs
12.420701168614357,-0.7417794693649423,-0.4233978889444261,10.202950844405626,0.5303704489269474,0.07772123496729832,-0.4947697149887083,607.2354803650308,312.3000801065284,570.1364595204498,upstairs
12.470784641068448,-0.04864416000241352,0.4814178731264442,10.817366066219632,-0.11885551247743166,-0.2378736027631871,-0.6483775703558806,706.7553199495102,330.4101123409298,521.4899459423036,upstairs
12.520868113522537,0.3766418270660171,0.4057043963380875,11.070103604967423,0.9029882740442534,-0.6837081528022678,0.4256760224083087,679.8489035633474,428.9278870871053,604.5690499699946,upstairs
12.570951585976628,0.922313644959788,0.64775491464879,11.295566597060942,-0.7059746247572031,0.2849096826382118,0.11616059651940014,712.2924775112891,377.0862781502558,683.7959415069397,upstairs
12.621035058430719,0.5549972167394644,0.45139132794067954,11.313486431247668,-1.6345874765590063,0.6344997513756117,0.4200073988658351,687.0837168344782,335.08842996257334,618.0451568206587,upstairs
12.671118530884808,0.643106455022496,0.539964281531998,10.445510838061423,0.23661370977264956,0.03304648429204133,-1.1698994998509877,830.7468257945238,326.8246675906925,532.3340717725059,upstairs
12.721202003338899,0.5260335059365099,0.38038471659853096,10.503680505699602,-0.019320508380538844,-0.9605089650364216,0.04951075425642137,707.4364373866676,406.67250104763286,638.8136242624759,upstairs
12.771285475792988,0.35779069100175503,-0.12591461702961673,8.900970036851705,-1.0113807727150135,-0.4838298245499194,-1.3620597307492488,748.3325452336819,385.76198526225085,670.7828048285936,upstairs
12.821368948247079,-0.01569740311024974,-0.6941418886162793,8.31186816683685,0.27716575667782123,0.48028892624104547,0.40234899037129906,710.4446513350485,350.7137805941007,626.2172353744155,upstairs
12.87145242070117,-0.7809397423310123,-0.5664171598150292,8.40972443273566,-0.48602858735530297,0.1503443485437034,0.40961364810516404,724.5334308127468,434.2956583936091,603.7329547329385,upstairs
12.921535893155259,-0.7897487415711247,-0.8860385366099011,7.911215801691449,0.2093037943822059,0.6303878589578088,0.19319844900279848,704.9546054365512,372.2987710387035,660.013951118934,upstairs
12.97161936560935,-1.0597282076591976,-0.3604313977102049,9.470553425309173,-0.3617020294180647,0.09328227265107185,-0.18898398885303686,654.473052779192,337.56010926430423,535.506090720274,upstairs
13.021702838063439,-1.158513429413646,-0.2899818465616696,9.68810100802904,-1.026300707834863,0.20218913770484911,-1.2323486028357233,644.456970773459,403.51412108861115,594.496764915737,upstairs
13.07178631051753,-0.01814286730220112,0.10691917001396503,10.174769532404783,-0.0494901497856657,-0.6027451494921718,-0.14502226406599406,694.0047598178279,332.5991989846519,588.3820844910282,upstairs
13.12186978297162,-0.014085700663024364,0.3142061730233029,11.013960194894498,-0.4538359756224354,-0.5032426227824219,-0.4100827841255046,688.511841218761,367.6970894213395,613.6527157086778,upstairs
13.17195325542571,0.5175538730745577,0.7014406301408223,11.510113078626357,0.05262796128000451,-0.7781456856848317,-0.8826407258302177,696.3947040398565,352.3073782068207,658.9032025250714,upstairs
13.2220367278798,0.8809224470518444,0.4989395274850839,11.324530250443246,0.455416053122537,-0.6490389094288569,0.12465277412031649,611.806501669027,422.48037035302264,671.5322637549136,upstairs
13.272120200333891,0.8364634170222368,0.3229966127639896,11.12750657058776,-0.5043792693585953,-0.6494522334947763,-0.7539746044453811,702.1773264580116,354.26675986325176,654.1719436344346,upstairs
13.32220367278798,0.9893087241019853,0.5008666338534589,10.399265721738093,0.5471410502632122,0.12333607437099754,-0.7108916867321882,694.0843942278593,387.0666916209469,622.2536217976236,upstairs
13.37228714524207,0.42214480943954635,-0.15087870442988022,9.587760410917637,0.13030747041319785,-0.28463035767459866,0.6508051949518322,641.3473708224642,423.5951460437521,611.6380683532897,upstairs
13.42237061769616,0.7590356414746611,-0.6092699103631367,8.720896158129692,-0.2683504000832459,-0.9392305351426348,0.7992423002820869,635.1905318857508,395.87530570660977,606.3333959496089,upstairs
13.47245409015025,-0.6457164409809398,-0.601119912642637,8.41516128861544,-0.5409122459335532,-0.22615319953563112,-1.1735033748455146,704.0969054367077,409.14249697989317,603.5663092744327,upstairs
13.522537562604342,-0.7489691239395633,-0.9249089883230663,8.382689325014566,-0.32390934559834356,0.5367230647872887,-1.0608403887716855,739.1111807394636,391.25062021078793,583.1701175237495,upstairs
13.57262103505843,-1.109398367209904,-0.2787635579200293,8.670110876547513,-0.2566548492968869,-0.06445129113176741,-1.2857004529682754,602.232344093185,371.1028315476419,611.5914356600778,upstairs
13.622704507512521,-0.9370016825457054,-0.5233820080565963,9.223698793148804,-0.2348221798282999,0.11972901778530015,0.3384064798160512,729.3924900924053,401.0120000124679,659.3431595744579,upstairs
13.67278797996661,-0.6965981049031973,-0.20306896376932157,10.182006123378613,-0.843240285113415,-1.5757393928330516,-0.014725012378828492,681.7605773121609,361.765087234691,658.2430788821257,upstairs
13.722871452420701,-0.43939022261554556,-0.018375530253171346,10.856511538029608,0.6019342966902979,0.6190417502031014,-0.30277387807990763,656.7512579050447,377.7655833261512,655.9485981815309,upstairs
13.772954924874792,0.21304098583696368,0.7070881417868491,11.270729819773806,0.6088553507018332,0.22950017855941862,0.6045598777477282,711.942064350686,408.2590205899301,657.5394602732109,upstairs
13.823038397328881,0.8870702295379884,0.6032200272949244,11.96211064071871,-0.04542469793543951,0.2711274404461072,-0.1943909466849011,644.1377966513378,379.4470294843257,659.3321977675799,upstairs
13.873121869782972,1.0779625629750338,0.5388519144525101,11.206612105511361,-0.5211642145371388,0.707568242996338,0.17531789852090338,713.877182071824,369.56541562915913,565.0540761181942,upstairs
13.923205342237061,1.171887013292046,0.3226263321880333,10.775531263627515,-0.026235605156888296,-0.6692144892164235,0.09264511382005525,663.6648422675181,339.8088095367628,607.7910386487202,upstairs
13.973288814691152,1.0600967313087268,0.033545719050465606,10.011784981399583,-0.2192437453049598,-0.10421386272103574,0.7994171531329095,677.7526089784311,444.7722618711915,666.6486525721665,upstairs
14.023372287145243,0.5813003867965164,-0.3162065896287415,9.07546383186248,0.9216163352630612,0.06537574425415654,0.5629184084895622,670.8560545840826,395.8393417667704,609.1777732566184,upstairs
14.073455759599332,0.034517025083767514,-0.4750504791666883,8.321093813089686,0.11475263494810882,-0.39662348114704643,-0.34363378326545246,691.2614410335423,347.9704477420016,665.849434100278,upstairs
14.123539232053423,-0.2967712893530351,-1.1077065371285573,8.219383105765626,1.0289498976874367,0.431343489766875,-0.7892932184989482,659.7083854181584,438.7923572841655,585.5066395679579,upstairs
14.173622704507514,-1.1557073462454683,-0.7800131123265821,8.680098892057693,-0.37221600432261687,-0.5468155698219347,0.04558591782516926,691.0762195734335,361.4179176375012,621.1173161188809,upstairs
14.223706176961603,-0.880294822089843,-0.5332003542172048,8.630933937275069,-0.15136673038834267,0.44529765429447155,0.9338115144344817,676.308138819834,378.5580673557157,712.3552803165313,upstairs
14.273789649415694,-0.6559081691551649,-0.22076281590625235,9.903713175423807,0.5000468761722898,0.38329674370915306,0.17749770856291203,644.7291439439674,464.7327483671363,567.5810648413528,upstairs
14.323873121869783,-0.282721271656961,-0.008914226186746935,10.364570662297309,-0.7704383681284679,-0.4155618167659205,0.39685749374379,670.4087423508514,410.28736690327634,652.9494898454942,upstairs
14.373956594323873,0.1373463900257506,-0.10991020040754346,11.247433532214377,-0.6975588846109562,0.7114761425857945,-0.4299783966442226,667.8506427531278,432.2957126462999,629.3938516017791,upstairs
14.424040066777964,0.35517572839276496,0.2966398208294175,11.532378597823584,-0.631215930979484,1.2306994265337914,-0.2826992673013054,638.3721013578718,414.9404731715943,600.6233116667279,upstairs
14.474123539232053,1.092508285019675,0.8358255293814931,11.538871088943496,0.9175547271337465,0.3483185350460607,-1.2693888262118598,700.7335373789678,304.905647713619,671.1828642649501,upstairs
14.524207011686144,0.9577336499915136,0.8468102290091757,11.298585761395389,0.10494734891632887,0.03464586951351708,0.9873634740349355,690.8687264428743,378.43543955724266,558.6785142540587,upstairs
14.574290484140233,1.0751969965139287,0.40309695422130953,10.402297320975352,0.2039837941397134,-0.1531169017531193,0.035704843512071704,678.4389028071733,374.5676476335351,643.2942596165954,upstairs
14.624373956594324,0.8170987914002189,0.32827401457507643,9.509670958632384,0.21617652024805648,-0.6649839685782932,1.5852965863596198,564.1328554672298,303.7917027090894,580.7906264151432,upstairs
14.674457429048415,0.01986924867365293,-0.4230989315281659,8.950911831095832,-1.2259337750244665,-0.1470248422534865,-0.36448841078480054,717.2056664234929,419.59360819667796,650.7312073388165,upstairs
14.724540901502504,-0.3333046241253566,-0.5705199064955273,8.41593063176948,0.20025303657367402,-0.03664625136219746,0.4383799503968327,667.6852594080011,425.08508159877323,662.2979007885078,upstairs
14.774624373956595,-0.5133898170528313,-0.9961197571020579,8.403181182787826,-0.17039674494475834,-1.486554344747583,0.29165553487424273,726.5710536105406,365.95329763171156,551.2989725616378,upstairs
14.824707846410686,-0.4524369123811393,-0.5817514890852971,8.918240293079467,-0.4847620903037474,0.7550307068822281,0.5845207762555914,631.7802525026069,409.8222703233384,622.2340977157891,upstairs
14.874791318864775,-0.9601682736772862,-0.6343862810249086,9.44871929205416,-0.314790887709115,1.4707472119489764,0.2065689025836896,729.0347044105256,401.1987047048782,691.702003499836,upstairs
14.924874791318866,-0.7377686246824009,-0.211506130320304,10.178381637716575,1.491913007502134,-0.751906461442661,0.09898630951536472,721.5326877611946,368.9788747258307,651.3548184240861,upstairs
14.974958263772955,-0.07369395332520447,0.14436812086818612,10.853682809882324,-0.4302963244676157,0.06530030021806228,0.026541477315483224,663.372939092,400.63982722093516,627.8613502027525,upstairs
15.025041736227045,0.5365468670486602,0.475112528862268,11.066794402550402,-0.4779313165349722,-0.21456227433613348,0.38856349145146396,753.0678856614263,353.74077933749857,602.6500510588163,upstairs
15.075125208681136,0.7491814337944661,0.1787459750800694,11.360149895101513,-0.0943669361138696,-0.2042491604402116,-1.1758768979933345,725.549694808635,350.33870900555803,637.6454208952682,upstairs
15.125208681135225,0.9354124079611145,0.32692981232402263,10.987372051727824,-0.4114267125016423,1.8589881017888068,-0.05008071541887171,670.5126310368017,366.75351673555735,687.5354762194903,upstairs
15.175292153589316,1.248869268263181,0.48391672297322036,11.232835231683685,-0.23021661704283183,0.8125238090633263,0.08345340444340303,677.549083100417,395.07751692658707,607.2821906559284,upstairs
15.225375626043405,1.3331451559669294,0.11267417510034994,9.825364589398378,0.8974778942399941,0.5657821337884004,0.7649454742962882,683.8517220816457,379.76654973872735,692.0098997693805,upstairs
15.275459098497496,0.2668063210975818,-0.27028244752082264,9.362151546773696,-0.35191355147844977,-0.14510265840019596,0.016490252946331205,707.824798212402,388.7657968933612,629.9417813949426,upstairs
15.325542570951587,-0.3284201146970906,-0.46027285352405084,8.568872956178199,-0.24715105749510474,-0.2038537806414154,0.16740285097691485,659.6911325449623,427.0483506980906,621.9680281770567,upstairs
15.375626043405676,-0.7173191126829327,-0.8257857637362995,8.514390970391423,0.7742588309981379,-0.5028470883866071,0.28923854469363874,687.0751553181618,360.6728615913504,625.4311370490065,upstairs
15.425709515859767,-0.996409688558909,-0.7384426067319196,8.182898532236676,-0.11890279942967928,-1.0269119313418835,0.5749433021279597,667.8799040325831,343.37949753308925,626.0450175402157,upstairs
15.475792988313858,-0.9274672532786677,-0.9140485798720703,9.00450783764714,-0.3786950971447108,-1.0137788532582064,-0.1377824027285476,585.3554584990386,338.7951488376917,608.3909304547859,upstairs
15.525876460767947,-0.7228861818590635,-0.5075107034033706,9.962004837434392,0.6254177274203102,0.6968046722477527,-0.6798085714739329,706.0501309406185,341.56048989183006,656.1288799526374,upstairs
15.575959933222038,-0.393480610450303,-0.33127875230630494,10.342949210131962,-0.05825210959902025,-0.19668177521221658,1.2783016898227149,690.9014587589247,411.5022520469343,570.8586500016545,upstairs
15.626043405676127,0.04629628128983378,0.24721327163043438,11.438793969355523,-0.1832914496659657,-0.7509361017685592,0.6409444316830821,642.4683987403362,418.2678693399521,659.2832220050941,upstairs
15.676126878130217,0.8619033762468289,0.4008428932365506,11.384444960121447,0.49421775567304677,0.07058309446932118,-0.6625442501969001,742.527573215764,349.9897635105674,634.5571481003961,upstairs
15.726210350584308,0.7634930436989287,1.0613483027895823,11.314220816381287,0.03796942100763085,-0.5175374687633304,-0.16190773277680623,717.4306696123429,448.4183354387234,611.9035909454367,upstairs
15.776293823038397,0.7856400405956275,0.3965213970608638,11.1452442427727,1.29909750444188,-0.09709019069162246,-0.6883944567190039,630.6742539634517,350.44730694571166,656.115913729642,upstairs
15.826377295492488,1.2281687829875707,0.6583748147785391,10.347300237842584,1.9395503197935415,0.10957333307297108,0.043054570055511845,683.520413855322,318.74748103852164,580.2628334275993,upstairs
15.876460767946577,0.6704049791763016,0.11086168940449176,9.466150135134,-0.05675049996009796,-0.2093507630594599,0.12694475176589573,629.1641626048643,429.62798229527897,599.617906662781,upstairs
15.926544240400668,0.20552071094141572,-0.4398347644911918,9.079484739022107,-0.292879556943591,0.6516395865975789,-0.6783179140944647,691.2138923231869,343.6304563867547,583.4808198160019,upstairs
15.976627712854759,-0.3101591962953667,-0.3402704091229218,8.31107840473544,-0.4394053837418995,0.39589134617902727,0.26142511012140734,650.5426166580944,402.3273864733098,701.2510163178574,upstairs
16.026711185308848,-0.5163379317476018,-0.9068528278387167,8.483835677220975,0.7920823706114535,0.3842435295881886,-0.4821481584868437,667.3614592069853,382.9793299576488,687.2696108793344,upstairs
16.07679465776294,-1.0021020943441885,-0.9984071192072539,8.28188693110417,0.10104176573576013,0.1162804787985633,-1.033455090378302,737.4946939436296,367.1816102318506,558.1680722453254,upstairs
16.12687813021703,-0.5785764816461981,-0.6262394432416476,9.498764925926528,0.3301893462424053,0.5666839438699699,0.171776502177122,666.0932372061914,408.40847660963266,599.6855215068695,upstairs
16.17696160267112,-0.6404382409103136,0.022825270162266487,10.19820607574406,0.6880141869297347,-0.4031168216657182,-0.9154665162241388,721.3692552481917,444.3815258369399,592.3210781252362,upstairs
16.227045075125208,0.0306035529739173,0.05969058518259121,11.056105026956462,-1.3583518930768388,-0.8070534756345884,0.35241751852802466,709.6642757732825,520.6410486069237,615.1566408672307,upstairs
16.2771285475793,0.2391858058638413,0.6057144595169994,11.828861049155726,1.0968483090050953,-0.07498901925197837,0.7779471825907425,647.0127246762513,375.66146939933225,603.5211065641209,upstairs
16.32721202003339,0.5676535154788142,0.7683664726363832,11.499451793369838,0.12162315207805877,0.6122174943823716,-0.2625919240826129,620.37467056317,368.08288573668307,625.0113979208106,upstairs
16.37729549248748,0.8095591348030696,0.64160277514279,11.561152317967842,0.563331830761158,0.464662509374683,0.27559060285428766,647.5041697622468,449.3516615945823,615.5050722181489,upstairs
16.42737896494157,1.1240759518570078,0.4577825477227197,11.001381595451639,0.029311874138745517,0.2553371554298596,0.7366141464425362,592.8477098334004,340.6242331589377,626.9163749001161,upstairs
16.47746243739566,0.8056505334214025,0.22595566077857726,9.535683548491315,0.16535279203221168,0.7454820512995062,0.5616995653018465,648.090198135532,366.2747282548972,629.5293481153959,upstairs
16.52754590984975,0.5018734822626394,-0.2478339927149861,8.796600662085163,-0.19567055505192674,-0.1326472324607037,-0.3031819996361354,717.4088769021781,453.7538134539484,638.3773951114673,upstairs
16.57762938230384,-0.35579877786739605,-0.3514530001731179,8.406376102227254,-0.12170957788931713,0.19116714193359644,0.5940147478214436,639.5010862430753,493.82195869948623,699.5274952525874,upstairs
16.62771285475793,-0.6432660899226211,-0.6708223461457241,8.451618518632763,-0.0656854436470574,0.3686665232956931,-0.14038739205725898,699.4907442393712,430.08575521848053,635.4105524797413,upstairs
16.67779632721202,-1.0414933839787839,-0.5751571775912594,8.56302453031279,0.38079415328228183,1.1118999635952447,0.3289636669572083,759.0302281648684,347.9312593853839,586.4416575753494,upstairs
16.72787979966611,-0.769256640951892,-0.7805006784550992,9.018712020811638,-1.1934529394210855,0.6642774505041616,0.8781569645731814,588.9847764238052,291.1938628096274,695.8075094973959,upstairs
16.7779632721202,-0.7814440787449468,-0.15986768489208952,9.509292046524045,0.48330574494009104,-0.6850011384430845,1.0046857137752903,624.8805495212684,352.00796935076033,577.7203704344325,upstairs
16.82804674457429,-0.39637260429715143,-0.14914971558800472,10.474837276436064,-0.35622117528064906,0.20091247220526393,-1.1380725221498311,660.8608629987921,372.8349644356977,613.0954355271583,upstairs
16.87813021702838,-0.17328521525805218,0.3147808117669916,11.18858907784872,-0.7597266941106829,-0.05168881358226507,0.77163617168362,656.2067564296501,383.86086896193166,520.1437337910488,upstairs
16.928213689482472,0.2601579614263746,0.3180793698563206,11.656545109438168,0.31295301476004334,-1.1922291349321075,0.9962270557236211,793.8972165170165,412.2629174253839,737.1585718572004,upstairs
16.97829716193656,0.8388437555330361,0.9248632852134189,11.60374854912779,0.05731305493802993,-0.5359544530501933,-0.9990796936002243,626.331008501304,428.2050537504999,634.1174601820214,upstairs
17.02838063439065,1.2043043384329162,0.4221182310782058,10.91967899850794,0.6084730111793103,1.2611815621192803,-0.3700699997879218,605.5959399902786,352.0752715193014,598.0323660069234,upstairs
17.07846410684474,1.1977802851721384,0.4875426259529743,10.52981653713417,-0.08989413533121751,0.06571718613597709,-0.6515296527023766,671.6843731312223,393.78089980752526,675.5373918964892,upstairs
17.128547579298832,0.861622702435581,0.2528684653845448,9.47324536281573,0.588466876977046,-1.8631117416421688,1.2316637854973138,636.3519833517495,367.0801515503402,574.2508517344409,upstairs
17.178631051752923,0.3758767460669183,-0.6409934379961526,8.357828566668898,0.05663806174139484,-0.6658881874917426,0.5139605377707729,690.4518992120458,437.354882409266,697.4492525924968,upstairs
17.22871452420701,-0.005354537243701399,-0.8647687411258753,8.137750774266193,0.6020033898899202,-0.32647070678716295,0.2474587334097385,683.3305035860402,414.45618920103675,604.1550668019091,upstairs
17.2787979966611,-0.7780286374526477,-0.7838345719624351,8.129415644806281,0.6180487565879236,0.42620036025575486,-1.12686105273794,626.9410393980988,430.0646252286464,584.2886447075698,upstairs
17.328881469115192,-1.2770714781546095,-0.7172705608933629,8.909895423693776,0.9124598089549362,-0.47764352531012066,0.1495532981345047,661.9968391851555,375.61993681870047,602.0472647333206,upstairs
17.378964941569283,-0.8387273604155807,-0.40181993526127935,9.62656486918694,-0.3417078184123886,0.8109195709350155,0.46735141015872267,755.2632999237395,387.308575761767,657.7910290252617,upstairs
17.429048414023374,-0.4569785771937385,-0.180185582923158,10.387925063216016,-0.31832375697038734,-0.04270541508724073,0.7147100235245182,682.1875637901549,355.79143707354893,583.8061914142304,upstairs
17.479131886477465,0.06749633279715604,-0.2851618029249454,10.741378870322695,-0.673629185319372,0.8505287051795416,0.25318105953034153,683.8800374320406,386.4402817338248,527.3543445075835,upstairs
17.529215358931552,0.3306323589992739,0.5414289438637134,11.279995410348183,-0.10679079901016535,1.2215175724095528,-0.5612468548074484,672.7790323546144,403.6642842651709,658.2841778492615,upstairs
17.579298831385643,0.6223735409554043,0.670633912813313,11.279052081031852,-0.5000525035502732,-0.745822509031114,-0.5237420493921127,626.94668774962,392.01892032953924,543.5613274498994,upstairs
17.629382303839733,1.2383027899254038,0.5837737692170224,11.310234234403769,-0.30482097937955677,-0.3083825560992338,-0.33064926171803716,595.5303023827687,408.1604860659546,586.395436503216,upstairs
17.679465776293824,1.1951124567598297,0.4171569462156822,10.351833982262747,-0.27167199954867416,-0.7393544142072803,-0.3169357709838063,786.2004799226277,445.6372732484891,629.7914100785392,upstairs
17.729549248747915,0.5462304684702819,0.18837081934960753,9.8038137676545,0.828610720479694,-1.0098641261495545,0.3697668780377847,625.8010736699234,371.21955373411845,693.8977056291787,upstairs
17.779632721202002,0.21515412616536905,-0.3600903365090309,9.035712773726857,-0.7845490489436209,-0.9075037018527546,0.7889822810638024,658.4455521017331,435.40368012356976,650.9094606676161,upstairs
17.829716193656093,0.08565966340508425,-0.48224530156670925,8.325764623255047,1.0325314082065757,0.02929021077436668,0.3334526227976495,691.1392908819672,392.9954693025907,603.8623741276489,upstairs
17.879799666110184,-0.5134801108865056,-0.8712989582293607,8.287368179129242,-0.4937176296679073,0.29904425040936033,0.43535575597928766,723.8777762173561,382.11386482585453,645.3067661836208,upstairs
17.929883138564275,-0.8457845892549904,-1.0068549536840201,8.915912239431576,-0.8818853322044541,-0.18399724839441317,-0.562914046309049,684.2558419603428,365.89408173694244,597.0687767604788,upstairs
17.979966611018366,-0.8749767160712157,-0.7538651056272876,8.857708458274457,0.05585536574173738,0.12973806095655666,-0.4683626121128427,671.5603068179527,359.4964079961048,716.3345575970376,upstairs
18.030050083472453,-0.7967366560335081,-0.45068944577369086,9.305580338348326,0.8451714587935172,0.5246120423254548,-0.2991708869509571,688.3373363520982,372.98874540107244,666.2651381236543,upstairs
18.080133555926544,-0.45381239278382673,-0.4868518564752785,10.960442587480157,-0.8448762404586349,-0.13316042346765286,-0.28448708493999236,653.1110911896162,365.8140285758273,643.1511400298327,upstairs
18.130217028380635,0.2964138288538046,0.15979735584929058,10.845444822907218,-0.46827473715729684,1.3384875562068623,-0.17130713397424224,656.0008401615621,421.34183228793563,708.4308371876034,upstairs
18.180300500834726,0.878024919154795,0.40663077726745106,11.705796900168828,-0.008937569023509078,0.12199336376236543,0.13485617805593667,716.4683914823181,338.00352049791485,621.6886231109191,upstairs
18.230383973288816,1.1047631440429722,0.2559393130687971,11.374308918624031,-0.5215438906885086,0.052831852277661163,-0.8007310124028753,687.2410771112596,440.6020766228695,653.9270137945488,upstairs
18.280467445742904,1.0232057085786677,0.5125685984562347,10.900453808811116,0.9717302871031351,0.9626067133134522,1.1979430489132754,676.5521191517657,416.582509183259,688.5574474657436,upstairs
18.330550918196995,0.9020072210489335,0.3062576086133681,10.263438180599243,-0.8119417525947529,0.8404890608587244,-0.16151802077866495,629.6599234203347,335.1189216231591,609.2844290772346,upstairs
18.380634390651085,0.5741482634992057,0.08721336513461919,9.58796215932202,1.193052950791266,-0.18762554405938311,0.8497838589701147,676.5917942413097,371.30135317831423,654.6725376207467,upstairs
18.430717863105176,0.04378949451981408,-0.4332722270168838,8.460622441639826,-0.4762483872676976,-1.2524856804489597,-1.3215094509036256,579.9548406731827,349.2310032747819,654.6868405501513,upstairs
18.480801335559267,0.07335298794815935,-0.8552144610984322,8.410865318632984,0.09921023486805693,-0.09786521074305173,0.38888032364552744,727.726383471787,401.09338733725093,637.788036453037,upstairs
18.530884808013354,-0.8867805054263346,-0.9469655479365409,8.34415538762511,0.08173642348441645,-0.11468568139139322,0.0038305308581026726,643.4596039571373,419.8002320329744,676.1330691979488,upstairs
18.580968280467445,-0.7475073679921163,-0.6920480398649309,8.905429959425776,-0.9135599469620355,0.42170967980346086,0.12045943089897287,629.7865195957025,430.3106043575065,657.0621846838665,upstairs
18.631051752921536,-0.7911901695483119,-0.17993400640266255,9.405127600039497,-1.440956033256936,-0.2256788044359155,-0.38693972379519626,712.4468022048159,393.96479863396723,561.5888345742505,upstairs
18.681135225375627,-0.5257437881801229,-0.018731998940238664,10.363408250788217,-0.569262394860971,0.7929108268780383,-0.8347266923928478,645.0214028778505,372.5671868437624,506.59334279664574,upstairs
18.731218697829718,0.06509800587929819,0.31463514188233355,10.92858727482073,-0.4122014103765937,-0.48362502266904506,-1.7609374996042235,658.4519491626318,439.0907855709006,581.65163646482,upstairs
18.781302170283805,0.18022733498551852,0.33854307636992087,11.149021683149433,0.5529170969154874,0.8629102159287155,0.29328624330608566,684.9201025535134,375.5894915830125,634.6975023066401,upstairs
18.831385642737896,0.47386110817243204,0.6607218760497842,11.540945489866424,-1.2572150848731094,0.4072669510854484,-0.29699350600131874,670.9498935454944,406.63647698945226,667.2638121329388,upstairs
18.881469115191987,0.6967652720538174,0.7829163838611337,11.258232994607388,1.5854880784747594,-0.19388398235423185,-0.5068903655689881,647.1249100573035,363.81167319003487,567.312186066787,upstairs
18.931552587646078,1.2464851307446498,0.7832132743443769,10.579227171289673,0.03936357386009659,-0.44819347540683424,-0.3630067261325092,717.9227385231824,360.6175651998823,577.2009398771594,upstairs
18.98163606010017,0.8444903333880779,0.06861525329534757,9.961576102918663,-0.6132394747980794,-0.41853404863337124,0.6212096969700108,643.6293274023718,415.4029371660989,560.332316143672,upstairs
19.03171953255426,0.5724015016796346,-0.47972550334526026,8.801984277039994,-0.5802967376399101,0.44348550375814466,0.37422421389955934,615.9955286736425,364.89393291656665,581.2765042260752,upstairs
19.081803005008346,-0.3307852594294585,-0.4228923287178864,8.604222462670721,-0.25215867993424484,0.24498527534483666,-0.011800832162251591,742.9491446461375,400.01249464755097,579.2630410426427,upstairs
19.131886477462437,-0.12411240072003267,-0.37721509663997665,8.194651297755525,0.14530902498343268,-0.5731840300637239,1.0984651703421306,617.7645784640418,386.2649933215541,601.1049413985131,upstairs
19.181969949916528,-1.2093210296455787,-0.536535676927195,8.849087575822983,-0.6318083386258595,-0.310371954940661,-0.6730955519510794,689.3265821881147,350.5936590746308,720.3539331297892,upstairs
19.23205342237062,-0.8969282450096437,-0.45403510896286164,9.255587332292004,0.2714101003474104,-0.33485159723891117,1.3806764504827955,659.1675034080336,350.9456279107208,586.3438015294159,upstairs
19.28213689482471,-0.7594174723223431,-0.14616452580185593,9.88545305193464,-0.3693530839175371,0.7635560606254489,0.2783661051802963,707.9300576433938,361.31268995965434,646.3911358104643,upstairs
19.332220367278797,-0.5393540273015461,-0.3026932024639569,10.506180683582704,-0.10055588600398754,-0.5667113280364644,0.40631309885525424,685.2386512119003,407.3748098398474,585.7158978441989,upstairs
19.382303839732888,-0.17772916901113062,0.422576589206579,11.536354737082947,-0.5759886092650416,1.4989131994507368,-0.21853910548207459,705.588393875534,356.7647367643339,660.0593833519405,upstairs
19.43238731218698,0.5273846626581286,0.4148135131131479,11.461835586393791,0.4397494935995799,0.41666253528254193,0.416813513731247,713.5914945906515,399.22870216170037,584.7738437483822,upstairs
19.48247078464107,0.930495140759289,0.6105863483674683,11.50850156449328,-1.270965728701209,0.6402914929348379,1.1505240391329057,698.4951756195449,399.4822877360818,592.3742796875157,upstairs
19.53255425709516,1.0630658339556254,0.3409747500895833,10.968210658964807,0.05842529890300522,0.46392115705188275,-0.4069673257063598,695.5760598333446,404.1525897693143,627.4588977313175,upstairs
19.582637729549248,1.0107917134334141,0.17970784640961102,10.453882947302976,-0.12629241554586884,-0.4352406047612256,-0.41998217383855685,677.9140650820656,346.4914642205443,602.1868472272446,upstairs
19.63272120200334,0.6868934955975016,0.0023274575744965664,9.427073520615442,1.1201403505397942,-0.12318506704185181,-0.22992575511093155,681.0680180923433,353.04227193186557,583.9541766631405,upstairs
19.68280467445743,0.1726077764027224,-0.12424633827352277,8.624933800068112,-0.2530372207197817,0.9291795664524519,-0.7875922762948481,719.4247537899224,432.01840835571466,653.8908218187739,upstairs
19.73288814691152,-0.198035444255466,-0.7546524587201249,8.285207012693961,-0.4162405438462822,-0.579091031451642,-1.1050525132777154,672.1224016505503,336.8901605516394,582.9825519744743,upstairs
19.78297161936561,-0.4494495252417035,-0.4157521390252564,8.29241902982621,0.6348416429790904,0.13102166010828148,0.5398568654114896,658.6523533161525,455.0401230479514,636.2721341562188,upstairs
19.8330550918197,-0.7929145201557672,-1.0001248421425601,8.911267451784429,0.17423278553689764,-0.3400286500851855,0.12572594623190972,714.4095954896665,464.0441305471503,602.6005438719762,upstairs
19.88313856427379,-0.8662384298961887,-0.14168414863935003,9.616286993834326,0.2281248513304224,-0.2905314618673729,1.0700018440741548,669.0159450310078,395.9893031339119,624.7129193775271,upstairs
19.93322203672788,-0.6319457899546922,-0.10662855628554457,10.236729694585307,-0.2663100082497586,0.29287315535202846,-1.3284095789512693,686.5267596179706,453.5562475523494,636.1853529513287,upstairs
19.98330550918197,0.05520906794572679,0.2006078612847761,11.108238707557055,0.04837195748773107,-0.17268792548538617,-0.7596755904825558,709.493398097624,430.6627408089804,600.6652199626815,upstairs
20.03338898163606,0.567039745473598,0.5765033613802861,11.493696947656762,0.7163275966103583,-0.1535032759530644,-0.41444367049555164,756.0347391963156,377.2753510000373,718.9673071959137,upstairs
20.08347245409015,0.532770831580965,0.7539210516470995,11.582249488401372,0.2970857741116072,0.6485713911497814,0.6762105142819647,739.9806796846884,410.4059062865845,630.4710244687315,upstairs
20.13355592654424,1.2189481548563765,0.5004160496414503,11.228774559553985,-1.0465469674093246,-0.11516459565568979,0.43336570405883973,683.8043882031582,359.09045715893075,713.1047416728416,upstairs
20.18363939899833,1.0162424247953867,0.11774534545821214,10.366685846694828,-0.7329469869617331,0.5571624161820744,-0.046250574677266454,696.6119755024096,284.13361715735164,587.7434260272396,upstairs
20.23372287145242,0.5007864237374594,0.12540107907158127,9.96306109332687,1.1868199347118678,0.0861228428151517,-0.9553927547990715,693.9259862023656,390.33440898527243,690.4091015565845,upstairs
20.283806343906512,0.09364235696513372,-0.2606807894827055,8.909129370307044,0.43238262306985376,-0.06930290812834926,-0.22659118198363376,629.0297394644863,331.7635849395274,536.0043197448505,upstairs
20.3338898163606,-0.04464015914326787,-0.4541236554993216,8.865831971060286,-0.11223703160522282,0.693140376173239,0.8071973182842339,712.532969493953,413.5370273074284,635.3794306157341,upstairs
20.38397328881469,-0.4497238926803007,-0.665050016793794,8.65041757636878,0.4133532663497624,0.20010989632362464,1.0169930065861046,663.4169487353843,413.1083343992413,630.0411166099024,upstairs
20.43405676126878,-0.7547107283098565,-0.9837214652552746,8.438954880386417,0.028844156697459808,0.6238709574806335,-0.30687777507230457,675.9135529506202,384.409867797201,691.8460376027436,upstairs
20.484140233722872,-1.1773080468278436,-0.7232961677287246,9.253638651114684,0.12504924943689064,0.18249532241082594,0.6233460990199995,695.8179552137409,343.77916498843234,665.1953009310524,upstairs
20.534223706176963,-0.7765964913374971,-0.1366785516978274,10.097732240963813,1.4752290455969232,1.6954035535892846,0.7307127456799059,741.5277597247863,414.67665078660326,597.0160459978515,upstairs
20.584307178631054,-0.46589997393781296,-0.09445269372322852,10.957918706776711,-0.2624479449654609,-0.5075256503340136,-0.8844658846294561,633.1596784250039,378.67688317861075,630.546452010329,upstairs
20.63439065108514,0.4477468720709719,0.8170946799005212,11.44155599591073,-0.05051699159026855,-1.0094441358265998,0.7832048155558317,631.7667627317508,447.0384075918972,687.0827576174086,upstairs
20.684474123539232,0.31192870590269095,0.7422167303492484,11.172951693771303,1.3340807307407112,0.12659500447419922,0.03652549224929905,712.8966008872408,385.0205976502455,551.7974009701072,upstairs
20.734557595993323,0.7976113800848545,0.5998939017898215,11.588641455607814,0.7937059096657864,-0.07916912980106378,0.15160013413423692,647.4499491918781,398.4623240425642,656.0573366389576,upstairs
20.784641068447414,1.0000399337267394,1.0075767557364845,10.73414374386463,0.4431014853094712,0.09106563206131012,-0.14166913515082705,692.4575856010213,389.65604880842665,587.1996859658209,upstairs
20.834724540901504,0.6133561248336802,-0.0009501285013955307,10.072221631192146,0.08992852785929818,1.2980983227905227,-0.8498751049225152,691.8965234298489,334.5699818621356,543.9409784562331,upstairs
20.884808013355592,0.5065238908091753,0.0650150044701763,9.47703009955388,0.7031071099707208,0.18197929388706233,-0.8258495216811764,613.2609475929781,384.0690818893975,662.0387476264108,upstairs
20.934891485809683,0.022355814531558132,-0.36607750551940293,8.970654982603442,0.031097589148000215,-0.00719001467505521,0.6428397165388416,702.9478458495754,354.673739358851,546.9367984286597,upstairs
20.984974958263773,-0.08876151827373542,-0.7763153142158314,8.299915513905074,0.03910695158930776,0.7810729599812506,-0.8517768751008878,698.0888808474798,393.37843059607565,658.4654354369573,upstairs
21.035058430717864,-0.6635237632360317,-0.725401992792509,8.520863186023972,0.4556334342884736,0.7948209830563916,1.2745004120538623,731.860836138968,307.0757187168272,627.3515827364239,upstairs
21.085141903171955,-0.5530723534554044,-0.8740603417491573,8.793204553593904,-0.0777836922926193,-0.5259561820244768,-0.602124914579283,742.5217632264655,362.26327822840733,667.2490601316642,upstairs
21.135225375626042,-0.34407925057650185,-0.6342264968138527,9.615557018521113,0.3545296934936003,-0.6789601324548546,1.060216787188498,718.7344732860894,410.5090945868607,620.3014075888425,upstairs
21.185308848080133,-0.5991059894718106,-0.28629571700261863,10.33478333924879,-0.19961961061282948,0.2825113793340408,-0.8316796311034318,708.4704621162862,360.44169074343324,710.968916548633,upstairs
21.235392320534224,-0.14470267498001826,0.43288954560551435,11.335010298813783,1.3322545818153453,0.7572471929967227,-0.7854181089813241,738.3504904667135,406.34431666335854,580.0940466224602,upstairs
21.285475792988315,0.2667025923206358,0.666822864596486,11.695038146967928,-0.08127130210558807,-0.6642087644338635,-0.2305179187689792,680.4899695292463,290.252522196,582.8531978338249,upstairs
21.335559265442406,1.1652224530435085,0.580956888376932,11.70285685730988,0.5625117146630716,-0.7160670667931325,0.3570290956508084,629.927030125169,393.33959309451694,599.4377374950799,upstairs
21.385642737896493,1.0508576369335814,0.23219862861750318,11.079621520340783,-0.202850517523361,0.3122461585824869,-1.563766377708739,715.497113437619,327.5766735456824,603.615700470457,upstairs
21.435726210350584,1.0529340998360777,0.3360263485175364,10.162329755899725,1.233997419344584,1.0958069635702954,0.005601287205229857,714.1432804603429,431.12429195005245,671.7929879434022,upstairs
21.485809682804675,0.7380031540137257,0.02250470194077628,9.941477047204376,-0.059058922136219515,0.20846440081367418,-0.39562323695709717,567.8972004450364,324.00876623182154,618.2511786113416,upstairs
21.535893155258766,0.15814303883279718,-0.24563336251306242,9.012333756166834,0.14935748648762712,0.10400781716030866,-0.14394699347628453,687.1828212471647,398.17528872717423,617.7419365281484,upstairs
21.585976627712856,-0.25121029345162077,-0.7421822660384556,8.316575168025919,0.31810922320081647,0.14958940550760622,-1.2845902664960267,759.7717291145411,356.2877377618081,627.9176908072301,upstairs
21.636060100166944,-0.2544882215562227,-0.9535534368743428,8.455067429262401,0.6681911769601369,-0.8407102116453014,-0.7007381627811293,688.6021128414867,358.97224134993536,656.1325835791304,upstairs
21.686143572621035,-0.8565725714485498,-0.6241863481049676,8.73233321826383,0.16276924576646304,-0.7645332811632322,-0.06829941194619836,692.2681989253354,304.65714990064697,564.6663466005082,upstairs
21.736227045075125,-0.47509818097618756,-0.13194806970049217,9.213862661269308,-1.171902139314384,-0.39457409557545814,-0.5250400217792828,627.5458058236711,339.89131706133094,599.9841202885987,upstairs
21.786310517529216,-0.8517091030225833,-0.320689412786014,10.053506279044875,0.3760585637358486,-0.17665763090213968,-0.3953548294876758,708.2938992060633,376.7944015545263,645.5768440766733,upstairs
21.836393989983307,-0.40722944031038927,-0.06884385061285452,10.89625174655395,0.8737887125318833,-1.0338387165630545,0.6570567646708261,605.0892283178307,399.57813655192183,673.1928529301357,upstairs
21.886477462437398,0.3742531137930821,0.6427976650717475,11.296448665696099,-0.8354958299668582,1.0040141785808132,0.10666339829544672,655.1343354610684,339.340092806365,681.102928637353,upstairs
21.936560934891485,0.7646116484257826,0.856479120076518,11.386132976046307,-1.1924644231076131,0.12541515544062848,0.16157358168612515,675.6492567882522,372.73356612390694,549.0104213311527,upstairs
21.986644407345576,0.7098832335749931,0.46422922358901836,11.271179452220663,0.23956902325725732,-0.5414753009181111,0.8145106083942807,703.5529351493255,378.22205840975505,664.7384632067635,upstairs
22.036727879799667,1.0458998601034724,0.6354016948694823,10.800027875975257,-0.7386386791871916,0.2256482849091991,-0.3665971802995577,657.7351627001892,387.33503246601776,578.2594072340685,upstairs
22.086811352253758,0.9659943683896342,-0.14143858586838115,9.944834212273513,-0.8235837932798972,-1.624147886010221,0.31361147648995136,652.3048953764093,361.95204976588275,628.0610309357957,upstairs
22.13689482470785,0.6722744266869844,0.43580902900805596,9.298318949927918,0.08983302442391417,-0.18716399010478374,0.5139389474728906,632.5066544372602,350.91882755871285,647.2216781761118,upstairs
22.186978297161936,0.002355912583767314,-0.36017890927082913,8.658679857983467,0.16605334768110006,0.25760256546188676,0.10102567956145664,670.6562330453269,417.0749321092651,546.737682252053,upstairs
22.237061769616027,-0.16687709102994752,-0.766183757441725,8.581415494467063,-0.9472145545954351,-1.3710300450278605,0.6193525658833886,721.9868906068349,428.318449043281,549.3541750322004,upstairs
22.287145242070117,-0.8751632395854616,-0.6473706374620865,8.298004872512271,0.17809806708743545,1.130934764691669,-0.28610141106698855,657.0506773910207,391.3742559695467,673.655497814166,upstairs
22.33722871452421,-0.8245497766921337,-0.6048434124217028,8.88310387509724,-0.046869277620142986,-0.02788901969699397,1.162612423250734,667.644248457698,370.3416808393793,669.5190283241045,upstairs
22.3873121869783,-0.9249843987724203,-0.667258179438768,9.699232592992491,0.08976599965983452,0.16832116760762977,-0.04770767628651701,680.7315776266698,360.7619472008612,550.4332613373276,upstairs
22.437395659432386,-0.7992719696499988,-0.30613185848846103,10.5467404206304,0.9533409190770156,0.8958763837851836,0.13516362205092072,656.1112610035182,381.0665201510014,648.8062667684026,upstairs
22.487479131886477,-0.09800486484779734,-0.05373606916401602,11.157305050042263,-1.0823682098335605,0.8694805853481556,-0.5542694084844371,639.1876892034275,414.8768563290146,656.6796727395109,upstairs
22.537562604340568,0.7708689586913815,0.4466555743041741,11.449052493987626,0.22758351560439896,-1.0535370137293163,-0.7537742128976238,593.7459177007241,374.14231567744065,618.4071000716654,upstairs
22.58764607679466,0.961319239114829,0.3325293783947604,11.596588707342399,-0.4156129213409331,-0.3840635664977017,-0.5100829580772971,742.6977297944887,420.90138907362774,573.2552342133586,upstairs
22.63772954924875,0.6362919117030977,0.9699549638440392,10.752426751092901,0.27629992081086363,1.1981967586250255,0.5311109409722122,592.1949762312054,405.91021795646105,529.5421473920159,upstairs
22.687813021702837,1.3508075338447267,0.26853035374564344,10.451904918109827,-0.8771222234503264,-1.4346301847838712,0.12000391409747002,656.0545751618088,440.0368189331773,578.9629977175999,upstairs
22.737896494156928,0.6712880297400243,-0.3594608535762141,9.80199901477202,-0.03375986641840703,-0.14719280173267127,-0.46376888624928597,728.9572121893063,321.63566822983955,618.6547602690752,upstairs
22.78797996661102,0.5772124132450793,-0.2743271184702333,9.03490710015735,0.1102212087161658,1.334903661081436,-0.01690485804935905,702.2346033291683,448.3144067783114,660.1524499432157,upstairs
22.83806343906511,-0.050280153135725994,-1.0561795745592968,8.541012207455013,1.1449175062166683,0.5074589662919334,-0.36585829921203916,622.2615910164552,370.3398615081123,670.9115158828591,upstairs
22.8881469115192,-0.6900818471285619,-0.5140611486523132,8.545200359999134,-0.2235761574041299,-0.14714808021668735,-0.513542633084652,665.4455564596243,417.78723134991077,582.7839788343224,upstairs
22.938230383973288,-0.726729847144326,-0.7366017787338492,8.472994637627195,0.39786299523088037,-0.08170940018778948,-0.054316377568339604,651.4213279204315,361.65618036807047,559.0528350405353,upstairs
22.98831385642738,-0.9709978823015532,-0.9852353802599665,8.867029177239072,1.1610315710670946,1.435892580420835,-0.1586197091240104,632.9265086470406,334.62951410188106,579.8003811620613,upstairs
23.03839732888147,-0.6475034792600871,-0.3308129134248334,9.837544538506984,-0.36243318142805164,0.3434784079763961,0.695949852014116,608.9438972265717,415.35841297524615,593.6688761191631,upstairs
23.08848080133556,-0.13833225659997928,0.13614648831533527,10.565827711376993,-1.227628969055295,-0.1985743912560044,0.38039607655972213,648.2521745118172,371.43631758290644,620.7722695060305,upstairs
23.13856427378965,0.3500322432134674,0.7535206713270304,11.623221599785268,0.18053177911141544,0.06717324214914253,0.5164559546638389,602.4156597054827,398.778297391188,588.9762660437754,upstairs
23.18864774624374,0.5329360526405157,0.9401097152560189,11.667364418559915,0.2252741558531776,-0.7543988939581725,-0.44168787731130793,733.5500105144619,379.46683064717075,622.662155097925,upstairs
23.23873121869783,1.1805197393893958,0.850958488330342,11.335823991429875,-0.7568684093970053,0.1874828412007172,-0.5669499754157848,689.8818431956281,383.49870985428805,668.0639327635922,upstairs
23.28881469115192,1.010630425369702,0.499385780503044,10.228055675533621,0.7169767530812791,0.5075905007920914,-0.2607188760024423,693.2712969333829,367.1629151216554,657.9201790897088,upstairs
23.33889816360601,0.7177581974133143,0.4560301567376935,9.918856894296516,1.1080568065702587,-1.793365342261119,-1.2431875703745825,766.31371249595,312.6549083536089,654.9317725175196,upstairs
23.3889816360601,0.8455087092884155,0.2514554774814088,8.785831728654179,0.13637144279295613,-0.6467812074086139,-0.20782810324395387,708.7149881773831,343.01670855375244,612.494943189596,upstairs
23.439065108514193,0.1475132479328715,-0.4669204293554441,8.612308625003415,0.12947837093192396,-0.8762310583912292,0.067151237126154,692.7919208878965,447.34091570527755,678.9800938680434,upstairs
23.48914858096828,-0.3417142969177839,-0.6364460770203249,8.306298412625766,-1.336851511493348,0.3730300629156963,-0.530317102709585,627.5690881795314,379.71632628000293,544.5706797140001,upstairs
23.53923205342237,-0.5683460799613357,-0.4405154799861761,8.423136353770488,0.35316083921715286,0.15242860417246468,-0.3229085215783393,707.6194225613117,324.6170164244816,560.8594330935375,upstairs
23.58931552587646,-1.1605176294646469,-0.3900656878066444,8.533559726482478,-0.4538351550266251,0.4113794744682094,-0.7261976000670393,730.2216904285523,355.73647226045586,606.7652799389714,upstairs
23.639398998330552,-0.9038519542437763,-0.1562264699926153,9.633099645592852,0.8659787897944167,0.7782995226416177,-0.7203399473949124,725.2550316629276,386.91985449473714,559.0523962641689,upstairs
23.689482470784643,-0.5786690105289357,-0.3882976416423235,10.258133311981782,-0.4053610946326418,0.075437526675912,-0.25165679721016193,668.9628145219453,411.3634484319515,610.8291247014386,upstairs
23.73956594323873,0.2240091831985302,0.2745010203843573,11.086213609223558,-0.4837588601126213,-0.6320339921726164,0.013254557976175698,725.8387071093449,365.11179458372055,548.665016527884,upstairs
23.78964941569282,0.5619904420087463,1.0429984227944642,11.316578620780732,-0.10028656218616933,0.035376117793764046,0.421584835960254,643.4084574659911,369.19632229872104,625.4669136837284,upstairs
23.839732888146912,0.8808094781580761,0.5989567501510664,11.259368460369926,0.28554828139853655,-0.008415941591241262,0.5385418955226263,736.5498910643183,387.13696428984514,582.3503974133608,upstairs
23.889816360601003,0.7550125934089291,0.4325567974535573,11.21268548737645,-1.0367500255927438,-1.9123969892667485,0.33419254658836667,664.2454847348896,387.2056801724772,644.9549157540113,upstairs
23.939899833055094,0.9219310424607984,0.4785242133151922,10.321431344393028,1.036364164245903,-0.3410744444411724,-0.5078640270422341,770.0558435079134,411.39092014955474,655.7017590643868,upstairs
23.98998330550918,0.933282312069581,0.18673982767172953,9.623531910092051,-1.1076364698880372,0.5415027021958457,-0.5687161556352114,752.4682971069415,355.71654100572033,642.6030759330874,upstairs
24.040066777963272,0.00024656303082791486,-0.10012522666476431,8.893196437296888,-0.7651971189135754,0.19723916570080277,0.6026968260089103,733.5034928894654,455.6607828445233,618.5460900564582,upstairs
24.090150250417363,0.01019247709826808,-0.4686701731804523,8.441955472082315,-0.8569362735688555,-0.9296786168111176,0.027460951379017877,696.8643282334356,406.7235976722798,599.55083554458,upstairs
24.140233722871454,-0.6746172919394349,-0.9550783893140942,8.496503474282516,-0.22821492616904948,1.0159889392684205,0.25659863079524753,581.4596085375506,429.1077668422245,630.906829172203,upstairs
24.190317195325544,-0.9056715369250817,-0.9063493687478652,8.373842879262863,0.8277540923759975,0.14341056374233266,-0.1601999204333538,714.9007886626692,388.56456789535315,568.8437388246066,upstairs
24.24040066777963,-0.9541802362749415,-0.8107166195480944,9.492847070052797,-0.06916813786312515,-0.27963873563992564,-0.15005749135830013,719.7413371497604,416.4330802916168,640.350437747368,upstairs
24.290484140233723,-1.0301238388948788,-0.2895024041073468,10.076847350381788,-0.6186291569014211,0.41760113747002287,0.8058792759161025,735.0344461357645,356.8639111498508,609.0349979992512,upstairs
24.340567612687813,-0.38587532212997205,-0.10586095285090052,10.581465031012273,-0.1365414339639583,0.04596801761396143,-0.425303314911326,673.9543896461978,357.5791877097739,651.9310551148749,upstairs
24.390651085141904,0.08729685556584861,0.3898710590243684,11.562066342002101,-0.3327081962518139,0.19820517524590645,1.2551661824302995,649.5273121255656,417.62040636521635,606.3405596758075,upstairs
24.440734557595995,0.6557765928480548,1.0707656805699841,11.750210838924945,0.16076262762217688,-0.5095225601004759,-0.759835263912918,680.396039571109,403.3377318377772,646.1190862088768,upstairs
24.490818030050082,0.9105453545938339,0.5049164865208813,11.201508872745721,-0.27292559261971444,0.5694919895198437,-0.8067503813536122,660.2826716569373,358.71941514529186,619.3467926778733,upstairs
24.540901502504173,1.0231014557371032,0.24316199709195896,10.876346082381623,-0.027178439170216534,1.0442365332698467,0.5673014911851609,665.4293746150378,349.87217538955207,646.0637768801934,upstairs
24.590984974958264,1.3394493173658855,0.40407397426875463,9.909543041154095,-0.8395121671676417,-0.39579400017612393,0.30234923637168426,755.1802967509238,386.18636757114615,649.974621308962,upstairs
24.641068447412355,0.4324367066306787,0.23241579420827646,9.239960690449918,-0.7987342937003926,-1.4282566954358253,-0.1883547530922051,695.5360689489999,348.0425192185469,677.9772506149271,upstairs
24.691151919866446,-0.24209300750560714,-0.4832521274176053,8.64915623923109,-0.9115088775839527,0.9677815936542817,-1.0063642497000684,696.0730306571697,379.43115296025206,610.7958293682484,upstairs
24.741235392320533,0.1309961438667107,-0.7542104531186369,8.195534187108262,-0.362415261021087,0.4027484987578348,0.20902638411881333,715.7848709492472,432.27191801248534,577.7510291430326,upstairs
24.791318864774624,-0.7466730956480964,-0.8753926966845069,8.202799507462188,-0.21202702478443344,0.7720050615332937,0.2562466293551907,682.741643398783,393.6057610932044,675.2896664206393,upstairs
24.841402337228715,-0.7923767430361048,-0.6775241498970492,8.764977981875807,0.2821708799863643,0.6472062739426606,0.5089150312830357,572.6451630466441,367.788212239069,543.9730365510416,upstairs
24.891485809682806,-0.6147935027854705,-0.4762007601557913,9.618156195184566,-0.7206488393797326,0.7502988169663932,0.21039173995155236,708.6506355712063,469.4056945187922,605.2135317723827,upstairs
24.941569282136896,-0.6410514795203349,0.1359397528894814,10.146440844197599,0.14666191130265405,-0.7282024540661961,0.537535215290136,795.2278524712171,372.2259090231876,570.2017948612288,upstairs
24.991652754590987,-0.05853817473388086,0.526035012591697,10.775042494578727,-0.3220528799085855,0.31566874684546614,-0.27233829256816544,689.1999466185403,430.7781045298689,607.9478021364528,upstairs
25.041736227045075,0.5041570406316812,0.36009000707772953,11.733926026330773,-1.1426390437611167,-1.465635643635352,-0.4689926897079829,622.0588396806558,451.65442591590863,643.7348052522318,upstairs
25.091819699499165,1.0317759482511613,1.123063992680851,11.733197817662846,0.3211317880483024,-0.2861933134389596,-0.06347855325283047,687.245069241385,344.5180062831375,584.2731267854451,upstairs
25.141903171953256,0.994736525389626,0.24727075605397264,11.033014013584072,-0.27955297188429434,-0.5272286945239353,-0.4428565877128535,701.8417469837194,423.16965577786635,640.9865602825079,upstairs
25.191986644407347,1.0621953541970588,0.3293884768597911,10.395286719663789,-0.6502103226553942,0.3809619299205691,2.1261311225489377,664.8017564377488,451.69803537006976,590.3563782681927,upstairs
25.242070116861438,0.7540998880434672,0.009302452223299479,9.762634130391781,0.6362425242659224,-0.2196764583440435,-0.525789148545063,821.788317209055,455.4565541021882,616.6767653199482,upstairs
25.292153589315525,0.11507123949153326,-0.21535940395947284,8.787974539748994,1.9950101477205469,0.3622833813129259,-0.5833506617537714,684.8429945889684,349.0999020848246,600.9030973165261,upstairs
25.342237061769616,-0.21363177639771008,-0.4748991544614914,8.798355661062839,0.17675829947994626,-0.4170752696201264,0.4403103767291876,694.9356225496832,341.26523346223934,587.250594785202,upstairs
25.392320534223707,-0.4521405218169418,-0.9180203697160549,8.116783658411954,0.027087882356680984,1.061315306991753,0.45906835163064375,635.0058789213074,345.28553480545867,607.0321938441433,upstairs
25.442404006677798,-0.7670171180439463,-0.7558702249679494,9.00856371978405,1.1169437440535221,-0.34411933368019304,-0.09632891399349038,644.0590855795463,364.8597060625602,583.0885302496251,upstairs
25.49248747913189,-1.0571508673749086,-0.3969274638761469,9.448889087257948,-0.11563551922088507,0.8057587694385961,-0.6960690651983368,583.4110856461972,391.2649900241831,644.6794142451887,upstairs
25.542570951585976,-0.671685990312424,-0.4765559962366179,10.379177826949167,0.5798487058775623,-0.9274206871201242,0.28586773264880444,695.6611546618561,425.3420278094309,620.9173560557134,upstairs
25.592654424040067,-0.42305190836508927,0.021038323886704027,11.127840065162957,-1.1778574055308977,1.0031219179334538,-0.666640031361508,666.447419902381,374.0428403323283,538.7504353893731,upstairs
25.642737896494157,0.5156422456529423,0.3941850055915231,11.314970300544507,0.46918847237093037,0.5728672749583971,0.03756166983930592,661.64922029791,439.4584887112329,635.6686192794531,upstairs
25.69282136894825,0.6513747059571544,0.23863025997769222,11.309651116962728,-0.46354544221734173,0.18547308465630222,-1.5392063783597552,618.5180580757972,419.75105127367084,571.3944443906664,upstairs
25.74290484140234,0.7662265734518129,0.5328708923501755,11.221620384262653,-0.9820798415615177,-1.3951219664932313,-0.04137832061861982,627.5339032433383,376.8532533077515,672.8767574784839,upstairs
25.792988313856426,0.814414972591796,0.5370850254315969,10.955196856009241,-1.1137409692902904,-0.5410805244241522,0.22625598768426597,634.9505586461247,386.9985853086433,617.7442663006592,upstairs
25.843071786310517,1.1582502923407778,-0.21045157870932057,9.86033207259745,-0.28030524317784244,-0.545540928071062,0.941833981272476,627.6437246302763,335.2717693912941,602.5467006898756,upstairs
25.893155258764608,0.5622455399944419,-0.23528991140867433,9.42489272038712,1.1103528693555869,-0.9146247771879735,-0.8522933870295651,747.1054778845959,369.3802948832674,577.5075433719285,upstairs
25.9432387312187,-0.06784898395194726,-0.37544351463127296,8.862233769416527,0.2259611734320623,0.8901625018047409,-0.25231352717623096,667.1508245295405,430.37695123797,641.3829381097172,upstairs
25.99332220367279,-0.3447524006826937,-0.6652244822702036,8.271719916175943,-0.8225784452198872,0.05875912035358816,-0.058044604374565996,746.419150769181,361.53977444353774,678.7919667660871,upstairs
26.043405676126877,-0.9986985167164039,-0.6053472134101583,8.293194553575468,0.40021798334158176,-0.2810004667593846,0.0888439536839359,667.6956172206685,322.22566604727484,619.7781784876333,upstairs
26.093489148580968,-0.7162753442731552,-0.6148133544728227,9.035567654437214,0.03343290990818339,0.9488260798509803,0.10219567933807931,736.7558162847909,406.92354877670573,624.6887552940264,upstairs
26.14357262103506,-0.6456549069086506,-0.6389011956352861,9.29571036519345,-1.3196774612728916,-0.5699434559528076,0.22719359142248488,654.0336536862135,392.35473281179094,598.2484930295418,upstairs
26.19365609348915,-0.04927025596637476,-0.025164047643564683,10.223808247821886,-0.5347849074004479,0.3091643336696214,-1.2536753271555596,675.909824574014,401.70222918388333,598.2251837792124,upstairs
26.24373956594324,0.26786087582297113,0.13085517072988664,11.114844305567104,0.7133412045226356,-0.6941921262819734,-0.0075289750657544915,671.382756578646,424.35765076602905,680.488659656765,upstairs
26.293823038397328,0.5950273375319924,0.417704511353978,11.809937873317079,1.5826827380225783,0.6552661232439049,1.560713688256491,646.9236536818094,270.9929020366759,607.1257785404281,upstairs
26.34390651085142,1.036712922334085,0.9253501624800617,11.624008133893701,0.7953905238925367,-0.5486362867207513,-1.2341179140909957,660.7119668379463,424.70398762801324,611.4451534323612,upstairs
26.39398998330551,1.1630210145250897,0.45185627548206003,11.043796826934386,0.5718204005738259,0.36084495223361995,-0.6249131849492462,750.2675773126266,378.7952639344615,618.7386883767276,upstairs
26.4440734557596,1.2819719929407423,-0.11941484202861968,10.317298324424195,1.2586273303431876,-0.8811439649437643,0.7982047421108954,612.1118010600912,357.9272714389177,691.0787488864482,upstairs
26.49415692821369,0.6989180322596744,0.011549129104629574,9.58716180724556,1.6102309022709733,-0.16360526152677435,0.7343278474479847,735.7276561862436,377.9327131091119,605.6516649244786,upstairs
26.544240400667782,0.2874388422253767,-0.14252512945239534,9.108337122249575,-0.31267819952786774,1.1509074874247942,0.3209120717840951,654.4478722876951,323.5040420223988,618.1868846617706,upstairs
26.59432387312187,0.0633196397484073,-0.49179142805067066,8.823967439830687,0.4763349220672319,0.12652822488021678,0.40938337051614493,696.5750383786346,397.2671512660614,716.3065786213347,upstairs
26.64440734557596,-0.8585031003992857,-0.7436403250287542,8.583688665207916,-0.0034154663913906463,-0.5499367348494363,0.008686972365356274,689.737828200003,368.74314404118405,594.3115828911112,upstairs
26.69449081803005,-0.652388168929379,-0.7266154435855423,8.7048392480299,-0.8158267161794002,-0.39035826422008363,-0.991586996879179,701.2592373896532,461.15480305775543,711.3635506568938,upstairs
26.74457429048414,-0.881724919536501,-0.4657962499270863,9.304429454501971,1.83176479627429,0.5534097995535443,1.1690637569121296,572.0383962488862,447.92738829553105,669.1304618154948,upstairs
26.794657762938233,-0.6830613648412748,-0.3824044321294146,9.611610933185103,0.9698486020730304,-1.1962043392305355,-0.2633421801169146,684.1519193688313,356.35437215448917,674.3419181480409,upstairs
26.84474123539232,0.12290708579568298,0.10991026976292495,10.76640916467685,-0.043177073882063856,0.02512037189519806,-0.49133236060572444,670.0511809287393,327.3107691220839,620.668919363645,upstairs
26.89482470784641,0.5230713050533723,0.5693613105885822,11.568710577715366,-0.4439038637503838,-1.1735810740263788,0.38037297187606484,646.9574440935146,384.84454896129506,601.4159256174621,upstairs
26.9449081803005,0.6444372561791435,0.9167177975958727,11.819927327840063,-0.10395945203208826,0.5925450661393677,0.303880079921676,671.5708920466611,412.7648818518135,605.4646224883558,upstairs
26.994991652754592,1.0776639041979224,0.5175989391708513,10.866647113956292,-0.6195355394492373,0.19252394809857404,-0.3386154525850816,724.6848648384286,350.1607806464242,548.7499924141291,upstairs
27.045075125208683,0.9417091008014497,0.6119572161629285,10.418329269877091,0.25830484418308747,0.23023569641525596,-0.3612501517820345,697.7451805588788,379.9376483240728,548.7333467272236,upstairs
27.09515859766277,0.9715926881262201,0.008101681162561547,10.162916538713205,-0.37187135904691654,-0.8365093836947344,-0.33460245955272727,687.8190265229257,366.5848855530883,663.4988294802189,upstairs
27.14524207011686,0.38104616281888176,-0.14042762652769888,9.259897345784077,0.057262483331220276,-0.31855759510981035,1.0983667253214566,645.3118561555791,375.44112229370984,635.4659235928461,upstairs
27.195325542570952,-0.004231776413306285,-0.8207509948251741,8.550068271307591,1.4376578130795452,0.2761089496288953,0.026796232993935423,667.5423826417077,340.6487741933426,578.8145314645834,upstairs
27.245409015025043,-0.10594514341282048,-0.7474004292431018,8.358392506609814,-0.4122155226974358,-0.543318124149957,0.6272046692139039,677.5247843924451,379.5245697552232,602.489763197638,upstairs
27.295492487479134,-0.5050695758755853,-0.754028385524895,8.123762717897453,0.47727612949888165,-1.2578306199316245,1.0403345631320249,633.7413292562205,331.0562299782577,632.2169913792962,upstairs
27.34557595993322,-1.1210610983830906,-0.633453740806029,9.052466205084405,-0.14758742194500848,1.327983074334261,-0.6827032010883651,673.465921638798,440.4874729284637,582.4346096320428,upstairs
27.395659432387312,-0.7648438044224161,-0.49580261622752597,9.67324177433534,-0.39208326650501074,0.7002613393551185,0.0960588446209326,692.1541010813136,365.7073291870417,631.3343017754146,upstairs
27.445742904841403,0.03839827525407928,0.2305390245225305,10.460869073398923,-0.7539552545678356,0.9387280908812159,-0.7973070200644778,661.5166743972921,379.4127338156196,631.9039331395846,upstairs
27.495826377295494,-0.08784938467532889,0.26391546326400067,11.040212455951707,0.9362581406845432,0.5353208198515274,-0.016558975874612095,698.242215732393,418.600228729066,556.1945238618351,upstairs
27.545909849749584,0.10074373616349651,0.3626600574221234,11.519008296489703,0.5423952480801327,-0.2853769231047332,-1.105330280937762,630.5701520866362,409.2834990604538,675.5974311334194,upstairs
27.59599332220367,1.1024448040943127,0.6542946186819232,11.355332886497347,-1.1051239379287596,-0.9063541333093577,-0.23379337656578908,579.7879991345601,364.8679093482189,549.6399402968198,upstairs
27.646076794657763,0.9059801854936689,0.6131028111269157,11.15270029733704,-0.7283190011141419,-0.8281094977125399,-1.3016476178873617,660.8482461780086,373.2616651135416,570.034721627202,upstairs
27.696160267111853,0.7320648082456115,0.43970760436414563,10.37252881192632,0.8075186978280959,0.9715685902504276,-0.6247058552567983,659.3566599498722,366.21096828760255,671.8243906549434,upstairs
27.746243739565944,0.6506398802471229,0.30950446675808446,9.599713767373634,0.15228619213966163,-0.13286695937484197,-1.1119812862205625,693.3757783191761,328.0939668250398,587.6688539861635,upstairs
27.796327212020035,0.15032943376367078,-0.4691134786516746,8.996531734964753,-0.0012695289183290307,-0.9451453185034067,-0.08872450189806642,689.9385674481449,392.08258858176924,634.4362065317811,upstairs
27.846410684474122,-0.37405791856908865,-0.4905479407540825,8.187765148048436,-1.467681561320244,-0.33058418144838264,-1.0338729286631692,690.7073585211872,377.82983764547964,674.0200504360765,upstairs
27.896494156928213,-0.8457411758421383,-0.572893722490087,8.415943526696546,0.4513488441589986,-1.96812510852602,0.6027612909541722,726.5615683645236,439.60357052203847,571.5873875875479,upstairs
27.946577629382304,-0.8637373449316709,-0.8192758221530905,8.744144394933757,-1.4787993433288495,0.38754742728904873,-0.5393586668593298,635.4509960629417,410.31596261843015,630.4743093208074,upstairs
27.996661101836395,-0.8278061263655968,-0.16952758850452043,9.097115898798155,0.9372725965520509,-1.0901302994900006,-0.2565749669882306,683.478428763521,340.16659315344106,581.4830094479046,upstairs
28.046744574290486,-0.8608883987078598,-0.386436770486073,9.95795265371921,-1.126407239747663,-0.40594548311227957,0.43309713651485854,696.9955477267698,411.6688940895991,665.9878399383482,upstairs
28.096828046744577,-0.43825675921759627,-0.011435211259927344,10.809375480645334,-0.298205893957368,0.538209916957527,-1.2755188034903364,629.2717103489547,362.77348815889326,612.8475549057576,upstairs
28.146911519198664,0.31923033011484214,0.5442164552750062,11.344944819312465,-0.6743908623453703,-0.3947813706158923,-0.04243792505450615,661.7092499062993,355.24285287850677,629.7778729682678,upstairs
28.196994991652755,0.5920636197209213,0.7000297197939163,11.593414676864512,0.3042527133131775,0.002319400633059931,-0.6962504744958504,682.4536738571107,378.82491817927996,577.7258360417748,upstairs
28.247078464106846,1.1261987289119413,1.0433853782026579,10.913569993197617,-1.0956200483118133,-0.5778770106727134,0.37353259610033335,705.0414150420683,373.9255940849593,588.1789028123121,upstairs
28.297161936560936,1.00063131201405,0.275358850573237,10.681916430662802,-0.02793531917250192,0.9288989018310687,1.7483020597509364,702.9604957415711,356.655729357648,689.9848997442522,upstairs
28.347245409015027,1.1090934476985779,-0.2515248031570488,10.372751505504167,0.10801673086754017,-0.41156362788569406,0.6096178146551176,661.696076466364,404.88422715848577,514.9885682594544,upstairs
28.397328881469114,0.3179421702933961,-0.1639963869706618,9.077016157857557,0.48387641191352226,-0.31593469532696566,-0.6405731734411302,673.6065837882245,397.4188273685439,618.6901696979025,upstairs
28.447412353923205,0.038518383068755366,-0.6997223862001096,8.951956088957909,-0.3829117023594315,0.34392044044121417,0.5064126306137267,664.4590851479434,412.5382979958641,645.3316476780941,upstairs
28.497495826377296,-0.12532561178435697,-0.5071720715615515,8.196865709353816,-0.19299316408796763,-1.073901934036456,-0.286353419937242,633.6261574973917,420.3540726009514,685.9267563717702,upstairs
28.547579298831387,-0.7767701213979281,-0.8855680681434523,8.255385061137043,0.6980141457965355,0.9178893759785839,-1.4900501348300805,724.3840053676902,383.3038230870056,668.4447994879528,upstairs
28.597662771285478,-0.8937269610328635,-0.41582270209869837,8.70744448136971,0.5488579269881357,0.4411765577323235,0.2697623145533804,676.4482569842968,385.85018219617365,637.5423254122347,upstairs
28.647746243739565,-1.0213715700479076,-0.471302224320789,9.846778207690612,0.20341644435176823,-0.5565948254737931,0.7046034690839095,678.9327149447415,370.04407023584406,638.2137756409339,upstairs
28.697829716193656,-0.7321755995646161,-0.25349359652785874,10.591432510786342,-0.6681766339976836,-0.485591977130063,-0.17302592387850876,674.7106779414929,279.32701677496897,604.3456391714344,upstairs
28.747913188647747,-0.038525202613943904,0.34132216609000593,10.92502400935523,0.14717057423859742,1.569864117595415,-0.17575706384969042,634.5515956326005,365.99225970714025,653.7668735941684,upstairs
28.797996661101838,0.46150545344896315,0.4488672207496623,11.313052358192659,1.862224257045874,-0.38071114023841873,0.19015451816312667,693.0785373686513,350.6507665393641,609.7871021510746,upstairs
28.84808013355593,0.6058906804165514,0.8332464226098237,11.770588369495686,-0.00488330842639884,1.8846847521554402,-0.020657281763591957,717.160424080187,364.0699699464824,575.340936760387,upstairs
28.898163606010016,1.1055139633761757,0.46045825629923093,10.830934985780871,0.04812632795348309,0.837210147493662,-0.8062660359712508,637.4571776417873,387.9918586638525,627.7558965337454,upstairs
28.948247078464107,0.9270019984236688,0.3586642280525451,10.226267051827582,0.43052419575738227,-0.9919241985058185,0.556308349512084,629.9356236339459,395.5385099797161,578.7325052110331,upstairs
28.998330550918197,0.6852551941221507,0.08505702740886173,9.535523841145345,-0.9672046983043097,-0.17922906093872157,-0.7106874428428809,755.6002511450679,418.91135060919765,561.4341354682005,upstairs
29.04841402337229,0.13986807220276865,-0.17852307979103718,8.703120045483907,-0.16947633194293216,0.956469653346076,0.054326641328861565,598.2096612584928,360.35376789017045,678.2166906350908,upstairs
29.09849749582638,-0.3888860148872155,-0.8048509694056969,8.056925680201566,-0.0031447370479601817,-1.7328541266749597,0.38670847036291145,586.8430806263198,361.617048299454,546.698153735586,upstairs
29.148580968280466,-0.8479578734675308,-0.8423885993732529,8.1775229357955,-0.12048435604863038,0.6701717894415264,1.332197219453303,640.8801916035169,389.3865702017829,609.5012202374588,upstairs
29.198664440734557,-0.85454975202387,-0.6489346420400948,8.41299506337456,0.45113040498198137,0.08525544686925093,-0.3503569625496493,749.848484466501,423.40646730970235,623.1161998497455,upstairs
29.248747913188648,-0.6858012437157588,-0.38609382182473945,9.281425429031948,-0.8753327827370995,-0.4438066604304764,1.5666741572786416,688.7739941397796,388.54315726691175,585.2281968659438,upstairs
29.29883138564274,-0.469694011445513,-0.322949881273811,10.304385115957343,0.5751774287894365,-0.47095416081339914,-0.19176527820585187,653.2169187443516,416.5566333994149,667.4465501588237,upstairs
29.34891485809683,-0.1717956135698978,-0.052170323250494866,10.983239102723267,-0.5240562404920953,-0.16253659869226195,0.11931384002541057,708.3640769940711,322.75175341077545,543.1098061777319,upstairs
29.398998330550917,0.5109348946769264,0.1258655898872934,11.309703604809078,0.28978045280536574,-0.29591366398358965,-1.4609876602245695,705.0393866738397,404.19431160628056,652.6174686328702,upstairs
29.449081803005008,0.5553012322734281,0.7116105253768885,11.54647496489729,0.2624818047368617,-0.7398453734077731,1.223169305225192,724.4147148156858,341.5422351611699,684.0660043689783,upstairs
29.4991652754591,0.814214842446258,0.6815756983792098,11.638250709455903,0.44403093868171983,0.19658218718744333,0.41854476676033137,573.9046082893256,356.91458615710803,648.5329788561247,upstairs
29.54924874791319,0.9602783797206137,0.28242768058662554,10.759658807986296,0.37038278362904986,0.27439615813681045,0.03854323078188483,627.6436900411068,349.8138214950983,622.433416336628,upstairs
29.59933222036728,0.8849249819899367,-0.18830319456240147,10.28012718895337,0.11441210559277706,0.1286897128804664,-0.1330894351353821,655.793193719198,354.59671998528887,607.0586410479235,upstairs
29.64941569282137,0.3519457449815033,0.0019346827739179645,9.081966024221213,-0.383830260264236,1.183926685325681,-1.1712537778902394,619.8710044443876,349.74951132263004,651.2361289780998,upstairs
29.69949916527546,-0.04975900994107392,-0.5487307954355936,8.736747450922566,-0.04134588818817324,-0.6064128746727492,-1.0450472993749091,659.5745497789503,353.1133389067766,605.3366834895742,upstairs
29.74958263772955,-0.29682203997958506,-0.7770310117482053,8.085824442579687,0.7460775996437814,-0.3599257475998966,-0.639029692293724,666.1365803272403,413.4191474835651,686.3295225326964,upstairs
29.79966611018364,-0.9056470230456545,-0.24788735559784952,8.860246015308885,-0.1743837971268424,0.1904720669669821,-0.1529939411823148,661.0667496028495,333.6404855662553,643.3081186548407,upstairs
29.84974958263773,-1.0501493997593296,-0.6786975286365047,9.137695077876224,1.4324004068397225,0.9971620759948708,0.5915256334091059,736.2050295007982,396.3134953631221,606.3200964393915,upstairs
29.899833055091822,-1.1010073631063215,-0.08935690786387324,9.874235350953166,0.33750230259545183,-0.31949865426869695,0.952914100474342,574.2318505171165,373.3494374395748,638.9691193808128,upstairs
29.94991652754591,-0.5590205271626653,-0.3225601383574717,10.398003236899207,-1.629506287298545,0.635205631722081,-0.13150681439953132,710.708521887936,414.73916113311105,615.2446521989775,upstairs
30.0,0.020157222864235103,0.32251222698101434,11.108626159078705,-0.4514164768975381,-0.20022257689826392,0.45435411997127506,721.6831302021385,406.6337073165363,682.8962869208785,upstairs
