timestamp,ax,ay,az,gx,gy,gz,mx,my,mz,label
0.0,0.23182892256352078,0.30564183329492106,11.3465019210351,1.679365310566521,-8.058901789178157e-05,-0.3663060908951989,641.4545836820079,364.82038330679444,632.9413438527415,jog
0.05008347245409015,1.1650296163623577,1.1332669406042015,12.227349160841083,-0.5660577203220951,-0.02272501559542725,0.4272981955902892,665.8485069236328,384.8799981973011,672.3336296369628,jog
0.1001669449081803,1.7091705101646313,0.9142834535286255,11.878617341658217,0.11450773018284678,-0.10195512381410014,-0.9264039136604629,733.5894191647026,455.4475421031516,630.3853333810036,jog
0.15025041736227046,1.0624638919875369,0.526169078601531,10.089383336546996,-0.5661350297602714,-0.9787183578660164,-0.3176970698288778,660.3644241109521,454.3277243717066,630.8666381635555,jog
0.2003338898163606,-0.32121167741208595,-0.15465621523944495,8.571293018700642,0.5771566204253344,0.10001192576316259,-0.2547129736751076,686.5270230642607,349.1833396015356,689.4206143165595,jog
0.25041736227045075,-1.4800411998421739,-0.6463010204904034,7.725679813433434,0.4820290161973458,0.7124544670309872,0.3331927644813206,672.9210118836008,410.5593901969201,621.9596273181049,jog
0.3005008347245409,-1.9720076674821536,-1.1070231943529125,8.103705937928117,0.1211467416915831,-0.6163408390199301,0.12214371506330737,738.4980948207764,363.58835847491633,615.6244747505202,jog
0.35058430717863104,-0.917441198671031,-0.3225289454852683,9.652009018492755,0.47717546554484064,-0.9866517302780405,-0.3070941256181486,680.0032092685304,356.58952694226684,587.2231536944862,jog
0.4006677796327212,0.09812745223055776,0.5960435650509928,10.65957554097407,0.2673461699688207,0.29990335314180006,0.7993377299237022,663.4256280788314,372.8000393392002,576.6846295003763,jog
0.4507512520868114,1.2872052644790468,1.1825751715857011,12.404479829389196,0.08186392360571829,-0.24077461120106147,-0.2890390091366547,658.5371977872996,417.8368508476765,609.0608886382253,jog
0.5008347245409015,1.8016373698431216,1.074115556835412,11.573995689553932,0.5233168966505402,0.15978200702786224,0.644649642982698,740.2893915792632,389.9436525503481,618.7344687241099,jog
0.5509181969949917,1.7617765498354157,0.13722994041133585,10.328781756865599,1.523306041813876,-0.05423590225528907,1.9812947943947,683.605867781576,316.96563600656503,626.35034489588,jog
0.6010016694490818,0.11370459656314293,-0.1650706869124387,8.514700654216378,-1.8830176580883682,1.2364241298957501,-0.28931297180429055,760.4373421750756,405.8501647729201,591.695777133765,jog
0.651085141903172,-1.182149024983563,-1.0937195288591988,7.728033288274556,0.052683815292501504,-0.5755463127348333,-0.13704528537765878,717.3717867957257,369.12792552982484,556.0472501752525,jog
0.7011686143572621,-1.8735625077661517,-1.047589533965563,8.146250734071858,-0.32053464038336255,0.48776449062082883,-0.4854098293751082,606.2082329343175,319.1680930750063,680.9736317981475,jog
0.7512520868113522,-1.016955426353608,-0.5671111637537374,9.699327948292876,-0.7246409767143187,0.6075804011223259,-1.0194129964266816,682.9772440650347,392.41431093698463,675.2545676359139,jog
0.8013355592654424,-0.36244157856301035,0.3466839481594223,11.50378780855826,0.08596107781406036,0.6247424003534375,-0.47321541273616563,692.4814537231503,346.9984393106506,608.7252441536023,jog
0.8514190317195326,1.8843276330766634,0.7682525485991507,12.165675614080483,-0.2715462952615135,-0.5810081468838556,-0.2536544022190303,689.7665633297963,372.29073591999315,566.535287430859,jog
0.9015025041736228,2.0260501479524313,1.3350149000129923,11.847196074581767,-0.7161069869544127,0.38966374426070044,0.43374886395599616,677.1999998968595,353.70660519893937,581.1524902836704,jog
0.9515859766277128,1.7857455918761027,0.38058712775903636,10.107402526217964,0.18797395547117463,-0.2567297386901574,0.5649856202984546,718.2287776845733,312.6463960198851,679.3309162577083,jog
1.001669449081803,-0.1624557071121167,-0.17494050647947307,8.693367154040219,0.18480658145954146,1.5277648023102943,0.11868834069444116,625.0037329701743,377.6977116030959,547.7085561430747,jog
1.0517529215358932,-1.1108573160477329,-1.2899056386028132,7.8707868702265325,1.095331706833611,-1.1028857934814034,0.6502623848436916,699.374794045313,397.8995714776638,637.1303827013286,jog
1.1018363939899833,-2.2511796507353083,-1.0543996181349788,7.723969844006283,1.1740950999255457,-0.1105853566310831,0.12047509614089896,598.7073819721894,384.9835870326444,634.5146197243913,jog
1.1519198664440735,-1.5829961714990095,-0.7242523417740239,9.32156425241687,0.5727049798664284,0.7227078527768139,0.1850909512294368,679.2529948117177,360.04163321269584,572.8674357228922,jog
1.2020033388981637,0.07646057832352346,0.48331116582221717,11.423640660838988,0.2387364416480888,-0.11918680343559426,0.19165660410699192,691.857564497261,363.6480458101281,641.4842531847394,jog
1.2520868113522539,1.3428232072037412,0.6569392986335711,11.829602764356597,0.5462985349665819,-0.6787675876516002,0.3566629258584343,670.5093964621796,381.3449140987214,559.8447027013376,jog
1.302170283806344,2.085320706019931,0.9980958961586968,11.602311949030101,-1.3481202883565433,-0.21955391395719334,1.1468234541618845,652.8775377144292,385.08226054290856,695.9566337776643,jog
1.352253756260434,1.3005023949791235,0.7298446673742318,10.188149838338203,0.2701413263198303,0.051216005405374604,-0.6589447862518147,610.6463515457069,420.4878105778958,613.6139828848236,jog
1.4023372287145242,0.155002557092348,-0.38380116542663056,8.301629631780044,-0.6000350846800185,-1.002586674339394,-1.9214772353391452,697.499077597044,326.8164131084138,614.9854419076005,jog
1.4524207011686143,-1.3683591933035246,-1.5695629253933392,7.600153815318142,-0.2037697915842149,0.22503014444180955,0.4295861263578412,670.1485653243362,377.1931956166835,746.1597359463052,jog
1.5025041736227045,-1.574048550876715,-1.5285562049772752,7.723980850628946,-0.3503436036610983,-0.40817423234000927,0.7135711578703723,626.9439054396137,389.9030330489865,658.0264517921131,jog
1.5525876460767947,-0.933204088730084,-1.14888267595608,9.638000231763387,-0.735902430659407,0.5913350135244468,-0.9590470861154173,663.5133483154887,403.71668360253733,630.8359798359776,jog
1.6026711185308848,0.056919404420066294,0.6083748150786492,11.196124871124889,0.6541891978029386,-0.17211869163835147,-0.0001530778880715296,736.0658294198188,381.8181396764858,638.5573492827637,jog
1.652754590984975,1.267146429306621,0.995930028108621,11.89292579552706,0.8759053596347561,0.055554659196649966,-0.2755965866571968,720.8108725808296,387.0271312328813,686.9418117228275,jog
1.7028380634390652,1.9081180264671562,0.8543935448308972,11.973659759172081,-1.0374325619544558,-0.5235815880710497,0.4113765065918725,719.1865614847904,389.25756285882926,598.0781687363549,jog
1.7529215358931554,1.2055229118540596,0.6382295650014846,10.487798037824552,-0.1654826497652661,0.21302243150986203,-0.628667050471754,717.7314208074555,314.8131526622823,661.8478390249197,jog
1.8030050083472455,-0.07652194371495931,-0.5010979912255992,8.389382522720691,-1.5204836514970832,0.14871717870111745,0.07496907902091804,719.6321021419272,497.5682723113773,609.8145049219679,jog
1.8530884808013357,-1.3404685454873722,-1.1821534007773589,7.583835914458125,-0.4733911294549368,1.3473807920846328,-0.08789459451220756,684.4607995601591,412.3949224757996,568.5802088343855,jog
1.9031719532554257,-1.5881958788602475,-1.488345213267832,8.17722483919264,0.8737743165477554,-0.29520466569300124,0.3182268325049269,664.1698483427652,418.5546108063549,587.2946096262865,jog
1.9532554257095158,-1.1943790391650058,-0.5652051652262946,9.8257008459494,0.3583754774325432,0.8630487184381338,-0.1637605569323156,688.142800680323,354.21642037974317,551.5018044589084,jog
2.003338898163606,0.0064761074939997665,0.29138634544542497,11.120520655637165,-0.24061441259760724,-0.23398193855191934,0.30400993447277963,680.3263553218314,406.57745384187496,532.523359322234,jog
2.0534223706176964,1.515631289973081,0.8898131310725841,12.44363625315612,-0.9285038646677982,-0.34565961901502995,-1.2879503983644147,737.946855458499,364.3366760189588,572.8482096524253,jog
2.1035058430717863,1.9214626918172415,0.9558516589636348,11.68277523708652,-0.39940906108041935,-0.16429013752919353,-0.8113134100597535,662.8540276166475,419.6534401698828,655.9518056958756,jog
2.1535893155258763,1.0637767079679483,0.6834511053172718,9.638265894559444,0.14378384485515944,-2.355362595665617,0.8765730401428602,670.0972744015946,359.291391177613,610.6753423241095,jog
2.2036727879799667,0.13465898964264164,-0.6790010119500414,8.216071534753372,0.767510679890142,0.027673894084925193,-0.2975303293389637,688.9813026160336,373.8378845986175,660.2352673925806,jog
2.2537562604340566,-1.253915696863689,-1.0902384172894692,7.663165147240408,-0.8693571361608238,0.4937165735970686,0.19463932845770884,602.4922456171128,433.50790484803053,566.449559391832,jog
2.303839732888147,-1.4792298976241198,-1.3941777107932098,8.694523980251866,0.05033133925271871,0.28094694952666466,-0.2342552180165093,649.8424036673742,378.44654602677036,587.8125466043562,jog
2.353923205342237,-0.9014776541299595,-0.39466106268965334,9.730261290553214,-0.40177907992479117,-0.6916534371767494,0.015351345790993754,660.2838362594118,311.2790319315039,673.8845563626708,jog
2.4040066777963274,0.2268881736746881,0.265721642802644,11.506549634647588,0.05482573913577624,-0.3848662530437313,0.18707519443522636,693.6988061548045,442.19871719286346,621.6350594096823,jog
2.4540901502504173,1.6025492767615208,1.320898536673989,12.155750819274292,0.024077066983859207,-1.4643178975094615,0.4592283824214604,684.0857673703385,364.12126229049363,543.4655843645937,jog
2.5041736227045077,1.9118242131707468,0.9525647113969429,11.74466732845841,0.26320901158456783,-0.7617073139354572,-0.19314402134478936,652.4604358491157,317.0122312642312,526.8564127997945,jog
2.5542570951585977,1.0410060311492906,0.36705714256028465,9.93529351386907,1.1049000408963021,-0.21240753392348535,-0.8572933794203882,692.1542958869428,391.2699666511914,630.8443134091472,jog
2.604340567612688,-0.030028645051449837,-0.5991733452262695,8.549839845949315,-1.2843946787944995,0.04376662933335498,-0.4911806632309154,568.7292432641492,397.36295821003785,575.9954968086313,jog
2.654424040066778,-1.2467889034888164,-1.0219181067633596,7.353274932635878,-0.20225795505374536,0.41332391584680717,0.5182656416650829,684.4853976309499,404.4171748103295,631.913254139436,jog
2.704507512520868,-1.5748272310858504,-1.150763132736696,8.364920374116354,0.0806493162180509,0.4739787662247134,0.5374271170507914,748.0206435265802,378.71625542416973,609.2679807734016,jog
2.7545909849749584,-0.8349173558531746,-0.8094391301666244,9.4096325152079,-0.41350504871518506,0.25156641555620335,0.1858687317137543,699.020874159955,385.8261886833504,646.0144564349063,jog
2.8046744574290483,0.384870267961067,0.35883146635658664,11.472563062582266,0.5875544235735725,0.052768932641442313,0.3091698755102538,735.8973098318726,332.9890995235112,606.631268703851,jog
2.8547579298831387,1.431994188669512,1.0986479249200711,11.964349196660331,0.011811732378618319,-1.7496980029642575,-0.17189601577812316,740.1977413916629,384.34168162782106,551.8492336581494,jog
2.9048414023372287,1.8899214317985649,0.802840912393787,11.83740457638289,-1.4633263972770734,-0.07127091669451657,0.19819063213871488,629.6052073777569,348.33838831089975,565.2802214352886,jog
2.954924874791319,1.569314792072404,0.5322028651453199,10.276499427260557,1.1120546274907026,0.767935513142182,-0.45514269984733036,765.6056537086647,413.6683777637558,583.9955612047629,jog
3.005008347245409,0.060906525931605324,-0.4420360248871822,8.933318875136045,0.8078553327483019,0.24008582363245964,1.4412745892090042,665.9356067026749,434.11880346701685,594.2822136568961,jog
3.0550918196994994,-1.1119508940988023,-0.9881339936635178,7.685561737628746,-0.3107373122298287,-0.0031317067332893205,-0.48287108413427543,615.6099411806395,365.81530170707873,607.3957817571389,jog
3.1051752921535893,-1.7057136348820716,-1.408832783827888,8.609036675251783,-1.1519913118825007,0.41963108827565077,1.781312937064574,679.2668076488245,413.42456873553033,660.7062006603107,jog
3.1552587646076797,-1.2598800198066273,-0.5079643892613666,9.59565083105398,-0.27399855880054635,-0.21795531868074522,-0.00303083739321648,617.3320312098756,411.02886522184446,642.8225946221152,jog
3.2053422370617697,0.6016859921709805,0.45392943877430053,11.38507955257955,0.09700114836934554,-0.8800867965339055,-0.1896439401204136,694.3437471283329,305.5041919692281,627.2266833849836,jog
3.2554257095158596,1.7157830536047571,0.6301586203093359,11.97732025212519,-0.9228146724538041,-0.391169714915004,0.417153728951064,669.0249312767182,364.14230829503987,633.4459744848044,jog
3.30550918196995,1.672577400382566,1.127830179474141,11.675362272395963,-0.9953140846536085,0.7582750273563439,0.5304408928331095,716.5502608921782,419.9348044939076,589.5856572589272,jog
3.35559265442404,1.193906982678054,0.4489240350395239,9.730946455449283,0.6552214563788562,-0.1722297235839634,-0.2409657884952923,655.2805151346856,356.38102917284255,622.6063397732157,jog
3.4056761268781304,0.05163153406676434,-0.5860964356414697,8.14816456529054,0.07078740399125391,-0.2740671123157749,0.1844610965141086,667.4701842460627,374.3714053109345,677.726983525141,jog
3.4557595993322203,-0.8924414163473237,-1.0296643873514988,7.598184252348961,-0.6236308221656904,0.024320837536078457,1.356459601839569,593.2486499495155,380.78236508030267,666.259720001123,jog
3.5058430717863107,-1.3037710983462745,-0.9272668671884463,8.286107622207073,0.027894922881361525,0.989282338468832,0.07256698819699578,746.8427299208528,385.54710506066374,568.1434133934499,jog
3.5559265442404007,-1.0394946195739132,-0.21023191192892487,9.382007127509322,-0.4792412403278058,-0.7496597863678799,-1.0716039667078199,642.3415020674628,348.7000760216423,588.515174849513,jog
3.606010016694491,-0.20422285361920195,0.32679659077581835,11.727508885103084,-0.14627874388173834,1.3946021992021214,0.0038954333618938224,626.7230372922404,349.1261894621733,659.033418084897,jog
3.656093489148581,1.778584752119846,0.8991750026202388,12.62631036324159,-0.38975822067447236,0.2564516460822925,-1.189556793600533,707.9119160668844,361.60813619600543,578.3515401238643,jog
3.7061769616026714,2.1596380631231744,1.1570533559452465,11.908223354717883,-0.5948977455248914,0.1985664032626658,0.5417271094431151,686.9623490389419,375.79548372700515,734.9686086651172,jog
3.7562604340567614,0.7143700027099233,0.2188485690762182,9.712262942630996,-0.554450066460409,1.2495959274213109,-0.33634988070892297,692.133054162537,403.98186634035,667.9131457432719,jog
3.8063439065108513,-0.1255438713350765,-0.8262376575129309,8.795684987762588,-0.8728482281609646,-1.5906594889643382,0.4952602608368024,640.0460765702082,400.59032540707653,563.0288598886398,jog
3.8564273789649417,-1.020680198192339,-0.7383453685156247,7.875806626234987,-0.07326702920118312,-0.831054451299788,-0.08159822091651882,669.0206847694125,362.8989016851608,523.4301365595219,jog
3.9065108514190316,-2.1932976109507565,-1.0243379308852605,8.3453690954048,-0.008763742893955491,0.22671921337929224,0.4762414841589306,648.346395459174,450.0520970161916,602.1489145119768,jog
3.956594323873122,-1.3341544915218206,-0.6164916747255651,10.147018828653492,0.8541416050293031,0.4355721934331847,0.060374501400420444,716.6170092475422,400.0206074429385,612.4886203816267,jog
4.006677796327212,0.33100744713220526,0.5552656224082055,11.586418666648273,-0.26899485186984,-0.33133137762957965,-0.3071554743741183,691.2616234481968,404.87956536151773,635.6995014912516,jog
4.056761268781302,1.606563311910734,1.2884281813979939,12.46744526441876,-0.11373356100071472,0.3062952805594937,0.4784547445829002,635.1101668962483,429.3193671841885,510.1691976821939,jog
4.106844741235393,1.659941111221665,0.7961196861357902,11.494662395527893,0.34542168414926244,-0.2125096308577787,-1.0831127064255048,685.9794984178675,437.42775909205375,649.6690514153065,jog
4.156928213689483,1.332675359281588,0.6185284729893104,10.06714346268799,-0.3119870898144235,1.1150337123846203,-1.0312270146938696,685.8121404729393,332.56860780921835,626.2416507895972,jog
4.207011686143573,-0.26369290334484513,-0.840093697646281,8.377047101844644,-0.682684870687607,-0.1573617521252333,-0.34571514831178907,652.1893257672215,315.0723269796051,560.7608332539297,jog
4.257095158597663,-1.2932862220979389,-1.1150685281457058,7.752944508157115,-0.45699005857718034,1.178513706140035,1.4752279890257896,709.7391376711811,338.76207887148263,522.0886139032086,jog
4.307178631051753,-2.0350847253403037,-1.3568896579964846,8.445310978643342,0.8779783711242815,0.38418637035014286,1.3139925861575257,670.4479435231082,371.27312931870847,640.5079229271571,jog
4.357262103505843,-1.0320225897408397,-0.4265156875632329,9.53451031503052,-0.4048624144698426,-0.138829204638628,-0.3262206796809043,604.6071957747614,407.9846021285478,626.5045410832165,jog
4.407345575959933,-0.5356474481155372,0.5299526158634551,10.878196211634705,0.6742874084116235,0.5394507275238828,0.31679845381328064,692.1791422991939,409.1331532802139,633.5002978812569,jog
4.457429048414023,1.4878509532596338,1.2426914607598243,11.996234870881098,0.5104691552208855,-0.21142488223559008,0.4674507856714199,658.0111401570172,419.7218552775661,604.79546440014,jog
4.507512520868113,2.2237886276160737,1.2664381589433487,12.034653233204692,0.8489508267843797,0.8736914142784543,-0.12308899558527432,627.8209887418541,371.94024765605246,593.5198034185737,jog
4.557595993322204,1.6593784479102247,0.3427449175634804,10.210569667975887,0.12644377554921257,0.14785405314385294,0.9081358556205412,685.4193144768607,359.33524178050914,703.994250727693,jog
4.607679465776294,0.14113891921482918,-0.8179455445184121,8.362625864629411,-0.4715281218534446,0.585822974599843,-0.5237451238228258,657.3613674789696,395.3922024649891,626.6130710428727,jog
4.657762938230384,-1.169598858360204,-1.2087563442352915,7.545745475411681,1.0335708430197765,0.6578522723203174,0.8215585068886653,646.8816329056643,314.11859513337487,691.786214728977,jog
4.707846410684474,-1.5917837161142787,-0.8333606452161191,8.075324828407009,0.10011238741742504,1.0710815850322728,1.2621674079118888,591.2946609895055,369.9083791125139,668.7542819786491,jog
4.757929883138565,-0.7213310312445635,-0.5136808105662867,9.96560380530899,-0.2567268004092404,-1.27739080297735,-0.39088504672160024,710.5889940227075,395.03841309611823,653.4904638459788,jog
4.808013355592655,0.7222901117749977,0.07072127592109295,11.707920769726279,-0.47783004127738304,0.2999390754239874,1.5396507186477786,759.3879966430022,400.4266330364592,607.3880357903251,jog
4.858096828046745,1.14065265173208,0.8456531704015746,11.986370771187643,-0.1797498994534835,0.4711231563694174,-1.5331595791808756,695.3349424145762,424.9300039187926,667.4486813526538,jog
4.908180300500835,1.7483200901587088,0.9634705948373383,11.38783538127332,0.12029786188117278,-1.2844788814792023,-0.5239621890399346,730.7767934231161,348.4182731588988,665.1223857480383,jog
4.958263772954925,1.0658529484661015,0.5287059601166013,10.26409500981464,0.8218642065560643,0.12578941848207428,-0.23906320952059665,704.6061952258926,358.7987621280898,578.8251646926386,jog
5.008347245409015,0.06637656689126208,-0.5086029149236835,8.446687221652816,-0.8840787669761783,1.6275321297471725,-0.41079970651939623,643.7358525171734,398.32040952282193,616.1298699973584,jog
5.058430717863105,-1.6552608281426864,-1.342478760514966,8.013679085533546,0.19124473642262207,0.3161272187257069,0.46016888133874556,726.6886922373561,424.6490572454059,635.3026493932643,jog
5.108514190317195,-1.779333803233829,-0.45230000628593975,8.116511097004288,-0.7538367472393297,0.783680473586185,0.5303631631542023,734.5841851332339,414.88666152017896,603.2899391614084,jog
5.158597662771285,-1.0631795350910187,-0.43901923877928206,9.733983276031436,-0.7646834394840466,-1.1898386056737593,-1.0618902453488246,693.4943925214819,344.0396715632296,662.9974099300665,jog
5.208681135225376,0.1947661120098801,0.33143584484768296,11.239132906559789,-0.13994238244971455,-0.0755635379785266,-0.17419568463439383,776.3602885069554,388.5827517438605,569.6257440889244,jog
5.258764607679466,1.467765681544769,0.7246720143958398,12.264512928351143,0.3106105433681283,0.2570568799792065,0.17409146752722118,713.063645552524,414.83535494756063,714.2882259280221,jog
5.308848080133556,1.7713417455645752,1.0947018941953244,11.867499722533593,0.5507961453507065,-0.13819072557524917,0.4194396343100783,676.1974230603914,436.1303798456436,597.7542806862593,jog
5.358931552587646,0.6865844351509119,0.4069912419723979,9.716600433631784,1.6571964334069673,0.1833000994550724,0.24372227512062172,736.8498194284999,399.11032667863896,653.1813339484623,jog
5.409015025041736,0.21850103285765266,-0.4835171986270822,8.701637380703962,-0.3312516107858151,-1.5403360995671618,-0.4137010369657768,675.3794458728634,403.98287140447906,680.3984667946586,jog
5.459098497495827,-1.1147420885246926,-1.4342364867340107,8.001784724834815,0.6696367497462086,0.7630785490812595,0.2758361126700829,626.4507302626221,371.6744086616553,538.9699860946394,jog
5.509181969949917,-1.7553013323268205,-0.7891786597022876,7.9748438912387725,-1.749469122991406,0.9530644932725907,0.10780095705790033,729.6042089775915,348.25325192249045,593.4082168642233,jog
5.559265442404007,-1.0973762087441445,-0.5120270964465741,9.6875851618718,0.18323554994063243,0.9303809425087664,-1.0068587553366084,713.3954589618892,437.4012784134958,575.3313694259102,jog
5.609348914858097,0.8425490226671263,0.5126253066766031,11.418347784190834,0.5805309476390884,0.007465074330026357,-0.05576928998183812,736.1480590274733,317.62865817644035,548.7189883798928,jog
5.6594323873121875,1.4609187847211609,0.9116893278429956,12.467424621574652,-0.2873369505092298,-0.73060200935905,-0.057618394843341865,701.770815696847,405.3446120965525,569.1693757990704,jog
5.709515859766277,2.0829894220293506,0.7951424368234865,11.471655087285498,0.07275126162337232,-0.8170504593113681,-0.15536413866084717,674.1337244739594,341.422771827687,646.1856929130622,jog
5.759599332220367,1.5069342928768703,0.12100154114158315,10.113299007341723,0.44901872839947155,-0.5293152015805488,0.457138951838187,640.730369603901,386.9686061642453,589.8970711817672,jog
5.809682804674457,-0.34107172842632855,-0.32452043792469143,8.36538759276996,0.16833183539476193,0.7356548047911418,0.20671139667790323,665.4833149406097,322.9318481690063,584.4522662731599,jog
5.859766277128548,-1.5686283378310055,-1.0031189565624805,7.352912495600533,-0.28554224530463984,-0.2641538910573184,-0.5379467802029129,640.4863207104439,414.5053062389041,616.879464439462,jog
5.909849749582638,-1.8339132425724247,-1.3687002237335166,8.3550454067155,0.7454836906903245,0.41449031197328423,0.9052087286890759,687.9432489449455,412.56492650048136,670.808529414738,jog
5.959933222036728,-1.2266739239704674,-0.32055316039004955,9.788873372245735,-1.0377782435823906,-0.49429205901089623,1.2166538862127962,659.5184522474464,412.5669389784325,651.5276286477016,jog
6.010016694490818,0.783069011130504,0.37078706433797665,11.709990454740005,0.5649488919790816,0.5282427546324868,1.018756661458702,620.6926552167447,358.7537147113933,599.9224726880211,jog
6.060100166944908,1.380422302165615,0.8147075339049814,12.465910226140249,-0.20681433387644577,0.18436559933010244,0.40051338153121735,705.6954128802214,376.5217057690869,580.316104702196,jog
6.110183639398999,1.9185753223284596,0.9888786290483935,11.46954636101909,-0.4719201461491055,0.4388558967962719,-1.0279196244200062,657.8013011363843,353.4630915178217,564.1960614953517,jog
6.160267111853089,1.0716228543290962,0.2868605035619441,10.276930949449408,-0.8567809718488321,0.7386040969820786,0.5001437963693539,684.7203553527919,449.120339798833,684.4398048665605,jog
6.210350584307179,-0.3907087691277165,-0.749299323298654,8.223854260215326,1.3218389631775553,0.5167054964957906,0.7644966513185811,671.9804282690761,358.56933192726177,625.4606376686208,jog
6.260434056761269,-1.349319687448247,-1.530938158046679,7.750017202388011,-0.6506939019366931,0.24542951234739088,0.5161692731568175,779.3579914162029,426.38600173454944,622.193886148962,jog
6.3105175292153595,-2.2720837345308533,-1.3172046142235116,7.853223386982454,0.4749602680994724,-0.5054498539894121,-0.3058484284163495,704.3168229134541,389.96260391228765,638.939317591762,jog
6.360601001669449,-0.7062137796526965,-0.38116157331209294,9.811216973635647,-0.06284295386517609,1.4600423334664454,-0.6215728424897955,646.0386857847452,346.97372076514745,597.5176280612244,jog
6.410684474123539,0.6288511525355934,0.6823734136323174,11.558942880547358,0.09136028007279721,-0.9373566454869467,-1.4019470092414008,697.2932771724235,388.1697667433995,654.5822424554921,jog
6.460767946577629,2.06480967401002,0.7862827225786988,11.787413558613276,0.8132633609332817,0.2562928297922525,1.0291832211888228,773.7048097259722,351.0633720256638,645.0974427383538,jog
6.510851419031719,1.8514250170231614,0.7449623743281053,11.417807598974331,-1.4315776402054738,-0.4437929844081008,0.2546771250630721,707.9365033175063,437.12516517190795,695.5577778308278,jog
6.56093489148581,0.926166163322615,0.01666266772946634,10.228536331312782,0.167627951751017,-1.5268438367633796,0.41028778237432795,672.2346737791081,463.5237104188211,654.0216382375565,jog
6.6110183639399,-0.35468779955278723,-0.9529855404067271,8.090061727819212,0.6760948085725353,-0.15513507047999728,0.8478320659971588,698.7711270187349,314.8291269376847,561.8954689247505,jog
6.66110183639399,-1.3279523901864656,-0.7818073814873749,7.871013455909451,-0.10621101617685391,-0.40470870219085625,-0.6302145542657698,687.7655300733687,400.1999116371111,678.3106405621486,jog
6.71118530884808,-1.4640325822790623,-1.1963550295343117,8.487635708022422,0.30986264973863525,-0.928636430626322,-0.003821074685163649,617.0466885520134,351.93915915323396,618.4568804109205,jog
6.761268781302171,-0.7286337509933536,-0.9361523985630436,9.975579872534418,-0.418142839267132,-0.127538512376077,0.6948852305317157,630.2212383296242,452.4422539318616,668.4696064699102,jog
6.811352253756261,0.5115893594723044,0.14476765859296947,11.162668008632817,0.21641948556339485,-0.7969677569540095,0.7031682572324769,656.2639349926884,378.8417622770845,624.6880621126707,jog
6.861435726210351,1.609458630647905,0.9669127261256674,12.067073903210657,1.527476991761673,-0.04372865975029237,-0.8540442742910223,600.860189282684,347.3159536881382,670.0865899083454,jog
6.911519198664441,1.8603105502946697,0.9404415461531324,11.9213195482405,-1.2170424358842697,0.4670167186652671,-0.40093896012280317,777.0829744200884,439.7784522925848,631.307477153063,jog
6.961602671118531,1.0763641929197396,0.3126608173823956,10.06361083204724,-0.44195938009360974,0.6250573185253085,-0.138436034174447,691.9401937270819,409.8335131499878,626.4317915565324,jog
7.011686143572621,0.2060774831576232,-1.0698373746079486,8.604034280784404,1.020120841568347,-0.43126415360225545,-0.4167680294596943,675.4088940098952,341.9220196437129,639.0392394713314,jog
7.061769616026711,-1.3239780889977768,-0.9094557108477612,7.828364062391845,-0.26543490255030455,0.28884762573220957,0.0935346256111471,685.4903164638547,388.90344183061586,623.9050086905218,jog
7.111853088480801,-1.5612450574926284,-0.815018686245113,8.353970696794782,-0.4517220912163606,-0.2938201423036753,-0.5553635502456296,744.9726296866567,393.97490894468984,637.6209911807437,jog
7.161936560934891,-1.3254499876427865,0.02578516711511386,9.793693598870789,-0.19734941132388473,-0.6994040433700168,0.02951140544847269,712.9485229809989,476.5293533756013,655.3799854747641,jog
7.212020033388982,0.4539034304873218,0.665437203809427,11.041386257168789,0.38236466980087147,-1.6527034559833882,0.2786130720826937,711.7586390889933,381.5280148410505,562.7037265630327,jog
7.262103505843072,1.971165907377961,1.317024643873993,12.42524318445061,0.5874944703935016,0.7112543796335424,0.052542839270211056,689.531895465788,313.39901277760964,662.280734470376,jog
7.312186978297162,2.0713315908664875,1.163262159210701,11.57805754586641,0.55173224000792,1.462201948142144,-0.35021204882929136,637.1737862190438,403.8978033044466,616.3162866442826,jog
7.362270450751252,1.2968613611651363,0.0084307149787205,9.934430082980834,0.20522473475547073,0.3339998638581486,0.09586756084496652,748.1614744230949,424.0457735711534,570.3511572003907,jog
7.412353923205343,-0.4486408753252282,-0.3821493563770026,8.354216772933576,0.8808654313304767,0.4441307687074871,-1.271793536521547,668.196123343609,367.4704002566586,665.333714899822,jog
7.462437395659433,-1.4258306655164636,-1.4158982143999945,7.677032380346018,0.8312978267609769,0.1972487643005072,-0.5955566047608087,713.6949266596102,362.84529725580217,648.281912239662,jog
7.512520868113523,-1.7864909221827778,-1.7564413793516347,8.133073865247498,1.3054258912789087,0.717644757665287,0.16272627134868092,758.6880869265386,367.4275053686589,664.6825163633408,jog
7.562604340567613,-1.0492100979542063,-0.013735507362967858,10.121041777174863,-0.16790570058833165,0.47880383227755463,-0.7503095080929743,700.1209542124587,433.487425928992,563.7269759664571,jog
7.612687813021703,0.4700260885552242,0.589984247752751,11.897417431203648,-1.0263951838857512,-0.13563707875514502,0.790636213475029,730.7157115493976,427.37886852919655,613.7424683891429,jog
7.6627712854757934,1.5879109889449563,1.6316372122928533,12.122280090056309,0.7261654127043334,0.18674503532114128,-0.810125111718054,735.2508870855968,361.8571380595794,631.7488231066749,jog
7.712854757929883,1.9417457402628133,1.3488344244845623,11.889639550956472,0.14931455520996983,1.3998003002329358,0.3824733270531014,586.3570255206882,408.45814563674605,565.4503223861454,jog
7.762938230383973,1.0184657288979877,0.737662026568942,9.918673938719362,-0.6828584363221216,0.8974213722232106,0.24631519573530547,753.2445196128022,422.4654387904183,584.6225874415672,jog
7.813021702838063,-0.46257048975072185,-0.45530292045974186,8.420099470971676,0.297426487132954,-1.0423740558325805,0.026419782647446818,704.590550821121,313.40564650321386,557.0213236814315,jog
7.863105175292154,-1.6311521696057216,-1.4439688782472717,7.971608000143219,0.7609972723887077,-0.056986071021627234,-0.07222092478691783,622.3665972022678,423.02089156309233,578.8252719598797,jog
7.913188647746244,-2.1023364474410693,-0.9412154502902961,8.65932208776127,-1.2193587873131726,-0.7759169927488578,0.5646529330661786,692.9806981218788,346.4251827539135,634.9866333153574,jog
7.963272120200334,-0.698690195128555,-0.23653952515984888,9.840441156503628,0.03329769879608957,-1.3438929781590543,0.4884915253099048,679.8671898173766,354.53415671228055,543.9898600838621,jog
8.013355592654424,0.4296049299554872,-0.21567918531580937,11.870430793579882,-0.8567819813178232,0.1413814413891631,-0.07438539358986496,643.7494862052392,372.2066387440512,653.652047561183,jog
8.063439065108515,1.7663444124347827,0.8797962258790153,12.162544487787036,-1.2185123645851559,-0.22278805950693906,0.9267908131083642,719.3081246982189,327.67338886213884,592.9980883909496,jog
8.113522537562604,1.9104327049107361,0.5050205996863115,11.347712860539653,0.00091876611791762,0.09324273615312591,0.0396139849041777,692.4669426145064,416.6669662508361,639.6310961429234,jog
8.163606010016695,1.6578178031661954,0.2508571841879525,9.99857150116221,0.5195768358366887,1.1587213908078169,0.19034581585774543,632.1734992446086,414.90506232098835,671.8396479719272,jog
8.213689482470786,-0.7265712737004281,-0.2336413954727004,8.251282497031767,0.795506241459733,-0.11574668155541602,0.28815739772636534,687.9627054431502,370.96452165322995,588.5631733944413,jog
8.263772954924875,-1.2330967639105292,-1.1941871592169142,7.5603356264540835,0.021131369741628908,-0.009144294632212151,0.5418929751690609,676.808862449303,451.2532776352176,619.0724427157068,jog
8.313856427378965,-1.3715313168929018,-0.6688870796916517,8.854633491648253,0.13161711505889526,1.019416560149262,-0.17185534982676726,650.087549507094,429.02019054324586,692.4896175544133,jog
8.363939899833055,-0.6877944299264167,-0.28860666727040946,10.258228568578682,-0.06417151503780796,0.7318187013006202,-0.7277679499205635,663.4441339380455,376.17990530041226,607.950546735982,jog
8.414023372287145,0.5472936815188536,0.3779271835415739,11.45731669251454,0.17724561110146564,0.8097116622095398,0.009688028557153854,750.7500173668305,281.1717098082855,661.8491057061166,jog
8.464106844741236,1.6055258995736874,1.4880441980828014,12.320204237754808,-0.5580716547023534,0.6630052180659357,-0.8126025177168358,696.2025666657074,423.79156015243785,681.8174544032953,jog
8.514190317195325,1.8597476491260898,1.027475304994808,11.17336550912076,0.3069198972415515,-0.11966140873788536,0.8527776978220568,653.1792409587549,348.0083415152594,677.2786477325469,jog
8.564273789649416,0.9674893510047335,-0.04119014963511797,9.514410173958856,-0.043330233336086744,-1.3715133585428199,0.2993223986720722,713.061228753599,391.5522759136191,593.230601327625,jog
8.614357262103505,-0.6036072583494855,-0.38325729335536257,8.345725095975252,0.01723665681427544,-0.14742047424120552,-0.4909780912988387,742.7798584763136,292.8385378862852,676.4095925976018,jog
8.664440734557596,-1.5843563551577584,-1.278096348297044,7.312160266981058,-0.160762312499098,-0.7407502608340909,0.22995231559951454,714.8823340785285,377.68326056379425,663.1381143706376,jog
8.714524207011687,-1.5311656458362144,-0.9410107835550525,7.998147649939591,1.2352206336565894,-0.047926099370347267,-0.7589006568383544,622.8518359893707,403.41129376482223,670.2428297277586,jog
8.764607679465776,-0.5667201135893374,-0.5371145048381945,9.583024932174627,0.5032833417209079,-1.3061001475143479,-0.32304365536480684,655.8236445565949,404.73315931382183,659.6480948612391,jog
8.814691151919867,0.4191390647487385,0.8665444895149019,11.44033652982795,-0.13753937690885862,0.035758457286411686,-1.083732916230839,676.9910564790075,383.10968416377494,609.8251100662687,jog
8.864774624373958,1.7193871141780077,1.4147804907998376,12.200591239466437,-0.7648868298332034,1.2373340183544472,-0.1018739667375599,698.053161328094,365.717502628942,620.5847087144335,jog
8.914858096828047,1.8953798626778715,1.1959964572097606,11.392100264167485,-0.5727572598125396,-0.26685850637005876,-0.014329502277658506,701.9237891009589,414.9949965611898,626.147309762037,jog
8.964941569282137,1.2233270461626562,0.45532184894544275,9.510748687582144,0.5920348934508995,-0.8841243612699516,-1.0259607869963883,692.0646635912273,405.1569075036061,669.4685758842827,jog
9.015025041736227,-0.43276852395475746,-0.3834923419795909,8.476555673594842,0.2716876664383953,0.439860824809094,-0.19166139871191656,637.1483761718953,371.9142627639612,588.5291017755039,jog
9.065108514190317,-1.244842742248353,-1.2534975111400593,7.64057761678796,0.06067028891416658,0.9038286825054064,-0.44057745310293006,621.1213947362112,356.20391942802434,582.2129154568743,jog
9.115191986644408,-1.3960612827926595,-1.2887969641379795,8.817481546403846,-0.5392642459072403,-1.0056387939014089,-0.42264765237836305,720.1055449547637,392.11086900619534,582.7944263585705,jog
9.165275459098497,-0.3411484005529069,-0.23062714348487473,10.151121057938058,1.2483020335505841,0.31945189562987564,0.9754752088884552,637.2313869126607,399.8175316460972,678.1053127066795,jog
9.215358931552588,0.515050912574718,0.5140826030086185,11.514695897325023,0.2778273742328297,-0.07724546983997982,0.11503454809545519,697.9806022949294,422.8022119884376,531.8835971658559,jog
9.265442404006677,1.3308905879001782,1.065423533208193,12.410800120628235,0.1819090082168762,-0.5002749242179662,0.8890022459617449,700.7881014550815,305.55610236645856,649.6185008918928,jog
9.315525876460768,2.3046212699602515,1.0903687499550685,11.082537515824917,0.818405351727191,0.5443674674120267,0.35189013165195476,665.2420296720204,394.62037067932215,640.8655619803493,jog
9.365609348914859,0.8937168582431513,0.4223644536331302,9.560062817810532,-1.0413945026067029,0.28823892175582594,-0.4200510517827295,626.1379768953108,371.3967138553467,629.6039120558768,jog
9.415692821368948,-0.39721905663741197,-0.7788039415427235,8.372544908721823,0.5166901867412528,1.2651797314209012,-1.1710066596887272,614.9549478767728,377.4718398708456,750.7990172534862,jog
9.465776293823039,-1.5999416843169085,-0.9086629685532261,8.490359219420494,0.23928979204843345,0.7660808205989064,0.2222644557219362,683.8348890018003,381.98667726098336,646.9921292271817,jog
9.51585976627713,-1.7116200091085902,-0.9174063735532605,8.214920619427724,1.1098461824476642,-0.6384677564133394,-0.7313839125260834,676.570958122612,427.8959198044424,638.6006973001276,jog
9.565943238731219,-0.6668843563014686,-0.33192900568186484,9.96576257695769,-0.949714629966591,0.6797439564966958,-1.0476167331542614,633.6319983309623,391.9590484697568,668.88466612361,jog
9.61602671118531,0.588274818599063,0.31131768380744557,11.621861503491719,-0.1602949653425217,-0.57009691258226,-0.16440335976264345,742.2096554009014,352.3945771944746,655.5551043596683,jog
9.666110183639399,1.4674209232673743,1.051278180904699,12.353128295138285,0.5686851145820655,0.19813166889353215,1.2068560880787893,696.4332125586642,364.4235689733273,559.6758154094011,jog
9.71619365609349,1.557679224640252,0.8100391663652962,11.369399217836083,0.2064093993603838,0.2040626192916238,0.4605048188222327,701.71253369861,409.65761232603944,610.9395456065023,jog
9.76627712854758,1.7606508686150741,0.5811211713975235,9.853052829059928,-0.2721687685582233,0.26390366609102966,-1.3171398583318852,644.4434775727086,335.9733285877386,622.2637230539182,jog
9.81636060100167,-0.44202543013985124,-0.3943269216797485,8.02485466789827,0.4102926378001263,-0.6633671234638631,0.4221361481826544,681.5420925369607,315.94995845504354,594.0686084780739,jog
9.86644407345576,-1.5341359502315057,-1.2791390461470127,7.4549135155408655,-0.5244533359680629,1.3446555504531978,-0.34711831940607263,676.7589353140701,427.76456516294064,554.6891796869008,jog
9.91652754590985,-1.8643414395457034,-0.9926024325222149,8.411486481173691,0.36613653676058316,-0.7369111840082232,-0.5066921092550069,656.4012648733554,434.405955158673,635.4793402849147,jog
9.96661101836394,-1.0824970855305656,-0.5679841005656949,9.912208633179265,-0.025798377552006476,0.9520730600689248,-0.2417747804015687,666.7850254900335,350.48306899110503,690.8651391599024,jog
10.01669449081803,0.3950406647180904,0.5317932691457083,11.3546352731577,0.06371188453953595,0.19653503902194377,-0.3741162803404669,712.7269882787953,389.96135516113696,622.8724686938099,jog
10.06677796327212,1.4974798827304059,1.2091902989110943,11.707295299755597,0.07538812717207233,0.6276912570034744,1.0332252272171154,689.768616039701,439.61857518009367,524.2809666733441,jog
10.11686143572621,1.7365814019133528,0.8450295163693982,11.500844803366748,1.8198075112834697,-0.06401270785582736,-0.6824713523890581,645.7097676858236,447.62285349597244,667.4765406620814,jog
10.1669449081803,0.8326851346122265,-0.11702492954644023,10.029664540402127,0.9392698484735765,-1.076616729648516,-0.030044956590844468,590.914801940072,401.3528612679229,620.8265481565901,jog
10.21702838063439,-0.3422545594705901,-0.8767574147736044,8.147772530762388,-0.4764166780043278,-0.5179863212253031,0.03566629139545728,708.1229199267717,352.2580322766873,651.2218962794825,jog
10.267111853088482,-1.6035609246923028,-1.220801283656541,7.325442251372346,1.24363385326738,0.1489975469733962,0.46794677186015293,669.0277117491507,325.33769355668164,606.084526602971,jog
10.31719532554257,-1.5724991267697845,-1.4103414041255118,8.439232805451056,-0.7442162568560546,1.2821113469518508,0.25144618328233004,678.0407043463132,409.9121902713662,684.7956431368309,jog
10.367278797996661,-0.7272628626372056,-0.05224473150944264,10.076490797704166,0.28096015139521374,-0.18797450841430072,0.07709214747403366,698.1829816594853,345.87556540318883,675.4987641509505,jog
10.417362270450752,0.5892665000659526,0.9435539925493215,11.695112085721359,-0.2049039861463949,-0.017481078467468936,-0.4057676651815901,692.7879500502955,332.5709345222198,592.1586896662473,jog
10.467445742904841,1.601168729737684,1.337705591030577,12.153023426593222,-1.3277063944375986,-1.144702604790821,0.28649038168220026,676.7396369877679,339.6793495154853,613.3525212032039,jog
10.517529215358932,1.7050432812651533,0.9720318565569264,10.953039819555688,-0.43338493762054514,0.707919076458983,-0.38426250840000153,630.6679883783687,319.81887070095405,545.0732432063719,jog
10.567612687813021,1.0819735630803557,0.3396115858711996,9.714299585084527,1.4374195848157465,-1.4360116656257607,0.6072839955158242,690.951271317544,396.3415888543389,582.0096638952302,jog
10.617696160267112,-0.5318877056855571,-0.39999612373154536,8.57120051969268,0.1823215626004361,0.24839113931503629,0.3929124572313371,692.0644233889832,393.75421301104575,597.1393904053259,jog
10.667779632721203,-1.1926503063888063,-0.8056148042828575,7.828637071359192,0.14898837663426984,0.3288398267286505,0.09976818867851622,687.042762651041,340.6455203191248,611.3827161858283,jog
10.717863105175292,-1.2293306913852289,-1.066285893377936,8.224496421846688,0.7714015628041373,1.35477218224088,0.14911951990429625,669.2843189625582,351.49954320957784,565.7225361924327,jog
10.767946577629383,-0.8675333805702506,-0.3334799420239376,10.210297405290095,0.5896653962249991,-1.2408941537311082,1.508685605108087,667.0632488822611,408.37724554709797,623.9989866332814,jog
10.818030050083472,0.8624397880231235,0.8260979786000184,11.681100430813489,1.1553097576197457,0.8104035947733558,-1.7123947110677389,677.9678629398476,379.81442822235965,624.4102726838099,jog
10.868113522537563,1.686829694281112,0.8488836418981589,12.099958196777125,0.4166192803684623,1.652886595859758,-0.20404685926876506,701.2385540947154,443.3561602548684,596.3945827004111,jog
10.918196994991654,1.6533406738608964,1.124237201895832,11.491105920250973,-1.127317518150118,-0.5770169122417361,0.29493161026083986,689.11312545769,373.2231265900085,624.4399001466895,jog
10.968280467445743,1.0873877178260365,0.10308338753829666,9.465355001829714,0.4910181762519253,-0.8159450688313757,1.0777159364447573,606.9265494299176,336.0838229336056,581.3330392294738,jog
11.018363939899833,-0.8397832984246699,-0.7676917380379962,8.21054528200143,-0.37540010742823837,-0.939713422195699,-1.0853015674848727,693.816889369024,404.54080210620475,621.5628428862593,jog
11.068447412353924,-1.5165655454971279,-1.4479669577109353,7.130394849701178,-0.3605518368275866,0.6787525905368275,1.5921221727016408,651.4079003774955,324.7056322540507,674.8682394398272,jog
11.118530884808013,-1.8256310499940696,-1.2532115712689835,8.169132462059277,0.7491332466863284,-0.5680328703222286,-0.8438137594219707,648.9734618572639,372.5392380687257,588.3397737080049,jog
11.168614357262104,-0.6511285095592526,-0.31093880473789065,10.399718998494778,0.48048185494324785,-0.23853177592546637,0.9099297934336815,748.3746125093302,426.64526353831883,655.0121158338875,jog
11.218697829716193,0.18667516280167745,0.2017300766720197,11.73751107930382,0.2272881763607494,-1.1217135518998986,-1.0997292814528423,651.7162768242932,390.9137422372033,642.4620496275414,jog
11.268781302170284,1.6585766527300645,0.6051112294486118,11.946381582122077,0.2498097337152484,0.4827838553527374,-0.43628842008630353,677.3646690529147,437.7982079463567,637.1523824871535,jog
11.318864774624375,1.9756077741520781,1.1393063708240891,11.0533330153731,-1.7344172292173623,-0.33428996577936404,-0.414723140623131,641.7794318156945,384.8987563748722,583.9625176353054,jog
11.368948247078464,1.0221974284852087,0.4837822908056109,9.820014905253045,0.15011564390116597,-0.6367922522311386,-0.9819666004414983,688.0372557910835,409.9139325699159,530.724457596729,jog
11.419031719532555,-0.23647982992102062,-1.1589115979305649,8.037235538485321,0.3960037482180294,0.6383667187237598,-1.2523821798777042,634.0561928864295,436.8591622313495,627.432798843701,jog
11.469115191986644,-1.610752070576658,-1.4797225097085065,7.572184492821285,-0.4448620242676749,-0.9286885668263126,-1.0185658564891935,591.3244641480617,384.95353049672804,578.9090410565325,jog
11.519198664440735,-1.963906946449375,-1.2546699210659702,8.821306930752556,-0.20215524625781567,-1.016905536453572,0.33901530796801893,585.9023920986933,352.63726305753806,645.2034221199415,jog
11.569282136894826,-0.8617357985795437,-0.5339609292770966,10.181738510502717,0.4210598446919817,0.06467232582726375,-0.8366732614416925,696.7234164065787,310.31721391866023,574.145039627891,jog
11.619365609348915,0.45699954623088473,0.8362112029669491,11.43150956864829,-0.13351873758231753,-1.2437639812183507,0.11939820059445345,670.858698430581,365.590721250923,606.0057553090637,jog
11.669449081803005,1.6877952220110946,1.0448128147885212,11.739774363287014,1.0538889254323491,0.3928285686119767,-0.39180965783084526,751.6644241582898,374.84011927812236,671.4544803804886,jog
11.719532554257096,1.6700911988778013,1.1877261895342084,11.106891187281834,-1.0459393483809327,0.5235376577960791,0.5648582070287219,635.2021989227298,423.5343165807567,621.2522215331745,jog
11.769616026711185,1.2404461419499395,-0.11801581702473449,9.714270936003857,0.3440246300087041,0.16723735947591375,-0.26547490630915294,761.9284362269572,428.3940715736071,658.2079828106391,jog
11.819699499165276,-0.40416443480173153,-0.4005052818637641,8.29822385016364,0.988238699363347,1.544935571634577,-1.4282005915885012,798.2971233482531,406.07491312475054,645.1789889089715,jog
11.869782971619365,-1.072829508780403,-1.6054389948413024,7.754609577500203,0.4559503585532084,-0.07002019199095667,-0.6545674815646054,666.0784831623273,427.04853772254535,585.9140134246097,jog
11.919866444073456,-1.488185198856521,-0.7396399803845151,8.67314278633928,-0.1043387347209213,-0.4331144840747898,-0.29406094195553434,667.8871171718603,357.6008588321426,677.7557875746433,jog
11.969949916527547,-0.4215677805365042,-0.05237898217949227,10.343220431894775,0.4622441551878637,-1.3192023430567106,-0.797201212202303,696.1739774493556,368.1573228595667,613.8767935529967,jog
12.020033388981636,0.32559188085865104,0.7601257045433216,11.655542083044914,-0.6153746534950196,0.5428218151517309,0.6184292398592082,715.7938797497143,386.9761173187665,593.400912403013,jog
12.070116861435727,1.663181028925164,0.9807415125530465,12.28825144273536,1.2650654589248835,0.7509914329744825,0.38989373411770306,627.532883643117,348.68018624678115,609.611216281885,jog
12.120200333889816,1.5342758216368848,0.6673012320161653,10.864048465978637,-1.269308498961661,0.8795350939266867,-0.2617348264574935,610.7905991883276,344.70114788124965,591.7308086395421,jog
12.170283806343907,1.2488476543891267,0.39611918124552553,9.72894965840109,-0.10499140127968788,-0.6679749568287568,-0.5282846629585365,643.8994303343051,374.8672346580232,613.0348892610448,jog
12.220367278797998,-0.40754713580383145,-0.4074053553657479,8.570125223907281,0.16181726910522773,0.28479666750669574,-0.9074859148262769,743.0008272921365,393.17552357914286,608.7300130510969,jog
12.270450751252087,-0.8850948126884485,-1.0542006142245621,7.786969083237255,-0.08243169161629425,0.769854960375294,-0.0789208844586125,680.0023066348051,387.9259028567006,641.248553307621,jog
12.320534223706177,-1.0942910169999727,-0.6959424114669148,8.593300999995463,-0.48488446387199197,-1.1452950368548254,-0.7365002706755565,693.3275350844683,342.81198501349024,690.0478164156555,jog
12.370617696160267,-0.7513843734776456,-0.5851534608572648,10.199100470650272,0.14712283257470538,-1.6118624547772773,-0.15264620127088793,651.5943193796538,397.0801858857647,589.5644848232871,jog
12.420701168614357,0.6533286580541678,0.7102189307123152,12.178990175337228,0.4680751361817391,1.1055330173407443,0.07931407259241643,646.4303297082199,331.3841373326008,577.5750659270868,jog
12.470784641068448,1.704289559522772,1.2471731650245352,11.771320076337114,0.31154365378915105,-0.35322364998059996,-0.09592031473659798,683.9052665556485,383.7330499295051,609.1911446928437,jog
12.520868113522537,1.1542236272423811,0.6890752518033354,11.429169396960175,0.05800075060685176,-0.8076000187899863,-0.7365752150147763,616.4454387362736,470.35551159200645,623.8520289377103,jog
12.570951585976628,0.8401940141436652,0.13866608625258897,9.911894499923344,0.06494910756740607,-0.6155640674915551,0.4062928435534575,642.1948551516539,398.2681672972729,608.4442801168105,jog
12.621035058430719,-0.1971709158402425,-0.7427426567094135,8.162657584802508,-0.20480739110205304,0.7024654948309824,-0.35879659557140803,671.3106558058773,286.1422980232705,666.7328148245689,jog
12.671118530884808,-1.5707911793022564,-1.3195406642395704,7.346416680653762,-0.6308542567660832,0.7432266642455437,-0.6344321064687406,613.8689047640044,477.493887440035,627.7182549401335,jog
12.721202003338899,-1.4588442261114956,-1.3889416905427021,8.364194181610788,-0.4150375807793632,0.6517631133650038,-0.2989165499378272,693.0813334214936,385.7801796633638,616.0996752296936,jog
12.771285475792988,-0.7116102887235656,-0.2928492234566642,9.75383187181745,-0.09513439549635191,0.5994236836825759,-0.37618565203538845,661.4359154999362,396.0004069696891,598.0113361120553,jog
12.821368948247079,0.525516294332226,0.8648790079826183,11.600214613157032,0.2958067645787043,0.8044231782368023,0.4824609759501609,736.3237711363527,388.61043479032395,659.0759500595404,jog
12.87145242070117,1.8778886690062617,0.9042971602181769,12.111011127589755,-0.6254322528928462,0.32691343899979447,0.2883765293253889,688.948740497878,372.86082805402276,579.309320051538,jog
12.921535893155259,1.7548996576882694,0.9120749547048124,11.637304111664918,-1.4891485522468053,0.056865640833782156,-0.7305894504154178,630.3054472054831,471.5912703304043,618.5340247929901,jog
12.97161936560935,0.6693594837626002,-0.022162895159539675,9.898227545735917,-0.5987675599522463,-0.27624000918904024,-1.0316043101402916,710.0563306393568,379.42047655091756,624.6800355695298,jog
13.021702838063439,-0.6026744856202392,-0.7725950520222817,8.364366443783009,-0.25892609993413457,-0.021125476427200897,-0.351881136051599,650.3931364081257,374.38253655726277,628.869943805787,jog
13.07178631051753,-1.8830678854939262,-1.1413551449775279,7.956339472506065,0.9314412402371745,-0.15346525736527641,-0.8876300944167225,707.3940190375858,359.9793727846541,681.7448982065167,jog
13.12186978297162,-1.0359065635975175,-0.9142989489146398,8.005070519977592,1.1270164573319879,-1.475403332079564,1.2908954301051736,673.2963823471887,341.29494472430105,574.6581585773934,jog
13.17195325542571,-0.6734032239774541,-0.362373292852407,10.390268316512852,-0.3485096453466418,-0.12324654157375442,0.20722646433734518,784.1815886764292,355.85372212961136,495.90528121275935,jog
13.2220367278798,0.8553004436475276,0.7033380086766281,12.041658066700837,0.1376271399602606,-0.6094773707447253,-1.0206463420426934,721.1638574799986,443.54945872162637,549.9225691163078,jog
13.272120200333891,1.697624959414474,1.509884761727387,11.921263067285768,0.23074722698884562,-0.03914313188876695,-0.6842947164759142,680.8323226312285,358.2685369163307,671.5022744725122,jog
13.32220367278798,1.437017519410612,1.2242883904972481,10.868983447486306,0.01832339691255228,-0.13227474540245432,0.6572059508011213,682.8397272960067,377.36557037301924,610.4319477155323,jog
13.37228714524207,0.6312269495843171,-0.05585711906058885,8.962758283340426,-0.7462464138036643,-0.027705988221176616,-0.07295291615786009,540.6595513156178,410.5557446673857,507.4348746902191,jog
13.42237061769616,-0.5449961904278474,-1.0485125287471233,8.110002338895418,0.8044420649015329,1.8011445974326663,-0.09692783052987546,686.0944023457965,457.1225493672108,633.0626565849226,jog
13.47245409015025,-1.364453793574987,-0.916246138550288,7.495784236644526,0.20353834822171013,0.48455340998344354,0.39011602204601714,670.1842866802472,354.30238943351884,653.2207074350173,jog
13.522537562604342,-1.9156384928616939,-1.0353005042548338,8.43297939703172,-0.1745624527836096,-0.32480411930571296,-0.4469529583978285,713.2638271580936,365.19874947290435,637.2412830953555,jog
13.57262103505843,-1.0394345752327199,0.06918473862255792,10.213193921979963,-0.11810834668908758,0.3325899711495822,0.013170577537406677,677.6195448393626,455.057526135373,597.0176365703089,jog
13.622704507512521,0.697055004411624,0.49141316389102846,12.252549258421508,1.3183228467001913,-1.3557019214593753,0.5410041658427945,655.5171569865744,362.2638408982918,572.0058369676697,jog
13.67278797996661,1.8898021008595591,1.1469981782081122,12.254738846453266,-0.007419861282046074,-0.016898821432990978,0.6961249126717592,706.0419336964993,389.62114168469145,662.8263971787757,jog
13.722871452420701,1.68263807672629,1.102385868132823,11.058660430759465,0.6288121059817239,0.6618317701328074,1.040122499299486,651.2270166082166,344.7642190266362,560.3488029565327,jog
13.772954924874792,0.7892920846290403,0.057176896679850486,9.430166854666561,0.1153424627342224,0.6875349078407511,-0.2431352263634065,624.1033536671202,359.4143912483684,721.5922679116446,jog
13.823038397328881,-0.7350226237379156,-1.2260646522486045,8.434042731678991,-0.3758734661831417,0.23412745378613617,-0.2142723958119437,694.0510549323467,396.23335304327657,607.1284117389274,jog
13.873121869782972,-1.7261264977743371,-1.3000356175713805,7.762733756171843,-0.6149694821399355,-0.7939023276204212,0.6068319660087641,759.3698072181586,385.00801338128196,688.4189567099482,jog
13.923205342237061,-1.2783377517661378,-1.3717919681565889,8.532451675446284,-0.27539353693969093,-1.1717155101376302,0.14196242951065796,689.4318394546445,360.343747233538,572.7624049119261,jog
13.973288814691152,-0.14428453995612106,-0.30020567220297056,10.162883025324295,-0.569580562129225,-0.7215096037002856,0.38090443638375926,623.0015622320557,378.58358415819293,673.0531615060668,jog
14.023372287145243,0.7822371137205806,0.7814798451752027,11.384799586218882,-0.23762473980552104,0.42192503262719583,-0.9213372461006163,805.3585535919502,338.9488800546119,611.1921105571461,jog
14.073455759599332,1.7570672520506152,1.2734095005259052,11.691818960194073,0.081283004406815,-0.8353035966092942,0.4338770426564679,759.7007822881253,374.79384312074427,674.9148410537969,jog
14.123539232053423,1.31592972544999,1.0523111760732684,11.007590605724674,-0.19368478819687282,-0.5179612407555172,-0.5095940020006275,736.5210547384983,368.42738241285144,599.7279475542457,jog
14.173622704507514,1.2371993921086208,-0.18876919148420912,9.602395492325298,1.4078997849428765,0.16320236051165496,-0.15605297423415912,599.0269185534926,453.9555979211693,625.4262436453461,jog
14.223706176961603,-0.5723735517550156,-1.1935254739102157,7.99143588753673,0.21761363397386835,-0.8050199413004868,-1.8212933439660548,750.8673346267085,372.1441931178385,640.8113735868694,jog
14.273789649415694,-1.1989930082829148,-1.4685392871137168,7.638810968973597,-0.15753121240166545,-1.5963437065613895,0.23819928299817195,665.4829418241263,380.4610368871586,652.640123932947,jog
14.323873121869783,-1.6367709085481281,-1.026367680139615,8.713549910824968,-0.7035241324723481,1.5609446779785767,-0.05813675440137707,629.1087413919557,391.35208666591535,511.9645509607929,jog
14.373956594323873,-0.7226477903586445,0.19118864072381686,10.206878546689058,-0.7980628444074209,0.14082208353467496,0.24189095348205492,629.5141948336781,348.3159849721394,589.8522625518715,jog
14.424040066777964,0.6013709940726116,1.1300381305634835,11.713490862072128,-0.07349942618312601,0.12994133579131284,-0.015176043504784796,587.4227499513188,317.66653042922076,699.8202832694313,jog
14.474123539232053,1.7687882513591033,0.7672680065409396,12.085627397652171,1.5339347882260546,0.5666973082728435,0.19253538249420413,691.4715023588476,413.60763480467557,591.9963671488116,jog
14.524207011686144,1.5224730023134174,1.2584881649993451,11.244945138857888,-1.1166881681614187,0.619248517901985,-0.053175166668528714,765.756451213451,410.5349975574232,625.3268665463772,jog
14.574290484140233,0.7799656270820926,0.16583766036857683,9.785641363294477,-1.351753546551213,-0.4703815777309883,-0.717234453892588,689.1178272086667,306.70502250699127,566.2026187245735,jog
14.624373956594324,-0.5233762475909027,-0.5642124184869224,8.213981532018598,0.3146110994532599,-0.35415864402739483,1.5490400998981841,719.8238765172524,380.1866776419819,648.633801505777,jog
14.674457429048415,-1.3020578283805135,-1.3910026568679754,7.954515467257682,-0.26709554526847484,0.8880042436913,0.7354236097011917,684.1433929790503,424.79546109170985,615.8087927321541,jog
14.724540901502504,-1.7567805528177665,-0.8543513270520515,8.907327672687229,-0.1381275173392113,1.3701875820641816,0.30165961909573474,639.85781773084,319.171764052634,621.9993744687725,jog
14.774624373956595,-0.875986886561969,-0.1128216415360193,10.259014645642235,0.14200654557017534,-0.22499455890937364,-0.4658433897826278,666.8162555212231,342.9184238746387,626.0719617754121,jog
14.824707846410686,0.9088214635059119,0.8094618665730864,12.294641825556027,-1.713923989730022,-0.616147540920947,0.042744037074666626,649.3811373494664,351.6281015999921,593.6272752488188,jog
14.874791318864775,1.8909309974480717,0.9783380489527036,12.307364938417104,-0.2792490867980945,1.4553882973571548,-0.2175103907516126,665.3944601960425,366.48741297877297,602.3824134009301,jog
14.924874791318866,1.7033178866686456,1.2297197931213406,11.2959206044757,0.7141129899472084,-0.6196193136887123,-0.5248187044568697,627.916585446968,418.08642052076476,600.78619346387,jog
14.974958263772955,0.8742872692456278,-0.25068582859353206,9.054412593738292,-0.24515105910438628,-2.792483712472241,-0.7890450584814067,644.203280907946,284.36112326700857,659.5928372311579,jog
15.025041736227045,-0.998697684596567,-1.2377028719891896,7.714329263186441,0.1536373973609576,-0.6289438461642107,-0.07260279799246065,595.3486433103888,440.1765720519129,594.315575857868,jog
15.075125208681136,-1.3906340183414485,-0.5758940473183916,7.72831654185204,0.2080233486359978,0.7803042186182106,0.0500983551067255,678.105968045328,372.6705857713712,618.9987267570367,jog
15.125208681135225,-1.509720714070495,-1.0958358453223391,8.874323675298044,1.086249071336391,-0.2303711485565483,0.3102861102783549,632.0394278836992,341.34485442182176,598.8330947606977,jog
15.175292153589316,-0.7114171757376889,0.22821029171314516,10.076287640155572,0.29916343910273785,0.018420338044796758,-0.026042807350290176,603.7920020792424,324.8267845479114,635.8225171919732,jog
15.225375626043405,0.4149203707564706,0.8045883770999718,11.6729733603019,0.6374094105429964,0.7785381062944782,0.3912396345856647,667.3794350687474,410.1519954652292,549.1805226647195,jog
15.275459098497496,1.9017434938143025,0.6630491202277378,12.175891172965274,0.6979962914603903,0.04134871948961755,0.061838934599505464,681.0937655671158,405.0805591000443,684.9982571217467,jog
15.325542570951587,1.9151464952247126,0.6123810053589003,11.214489648968163,0.22715768449207593,-1.044656235485915,0.21323171888654352,654.5482626486797,382.4369868683398,637.884855843722,jog
15.375626043405676,0.8228959122619931,0.06280738995410917,9.217654037038379,-0.35723359610473515,0.38279169760547443,-0.856976869174887,656.3799020907228,356.8121310101287,615.8982579226538,jog
15.425709515859767,-0.9899911152050219,-0.6181659145253406,8.719577750004792,-0.7496056135325952,0.1528082404409235,1.1286377111382588,725.0661766280036,348.4152981062748,626.6565756952275,jog
15.475792988313858,-1.3310442824332511,-1.3649378409731212,7.795537760633497,-0.24398810659148626,0.2768867930998839,0.7641906179902378,684.4206024163536,378.0810333328744,639.1249693162702,jog
15.525876460767947,-1.4286557543185534,-1.1582167995766528,8.722333920720269,0.24793008307172795,-0.6230054072208179,-0.3575389347700881,671.3986744920763,413.9160962145212,566.6908449621142,jog
15.575959933222038,-0.22702305415461127,-0.19884706959228982,10.547768874646914,0.5648407183492274,-0.6536380538770574,-0.39509576626096243,653.3783700215961,396.2978131137979,668.1939864812612,jog
15.626043405676127,1.0760128173035877,0.4422769914734043,11.813796722319452,0.4413947941274736,0.10439880136145166,1.7469122692407062,627.3466518974124,338.5864257599059,612.1355199866764,jog
15.676126878130217,1.6210129371728057,0.8302930045813706,11.806831659555113,0.576840268160919,0.15719655520428943,0.5741927909914759,727.1684334390567,353.12224162503594,570.9124561914383,jog
15.726210350584308,1.6202129231950881,0.8837209122756775,11.229856829207119,-0.5082944141936409,-0.32317013968612984,-0.8373992165748892,621.9295454636596,393.1427757374747,608.4946669803493,jog
15.776293823038397,0.5069737505664651,0.2277955053018425,9.523965037041972,0.8949123917279086,0.1817270908274963,-0.07404675409314875,674.5470466525555,393.5916544523806,620.90747006549,jog
15.826377295492488,-0.6997629523835632,-1.0771614432128729,7.768598108554948,-0.8401672035287436,0.8325671016368626,-0.3755541546445409,696.432927898018,342.57391702121214,623.9784914536264,jog
15.876460767946577,-1.432740458892649,-0.9212499787561241,7.588686068473368,0.06837763388702014,-0.13837193980472284,0.1497290652646199,644.455357555207,334.82665328635994,568.2713742106077,jog
15.926544240400668,-1.5192674944610771,-0.5737729603379524,8.57567184303162,-0.4039697125800725,-1.177345300032785,-0.12312702956932209,673.8569633385932,432.26633354421756,636.1001016144726,jog
15.976627712854759,-0.8197761914785245,-0.270196816592444,10.733085843106096,-0.14537622296281885,-0.6735810401760752,0.06693675915761012,628.875017543636,416.3835314527621,607.6866139582362,jog
16.026711185308848,0.6108188574246781,0.8302300466762425,11.765680285261704,-0.7377066332230935,-0.643902580987473,1.4931019886784094,671.8320449496922,363.309440948832,580.2596259102434,jog
16.07679465776294,2.0363055516255453,1.0289703870567908,12.027354669101259,0.41053460219440696,-0.7120042068631031,0.5560451254809003,699.0438207489735,449.7250558710216,616.7663054287444,jog
16.12687813021703,1.5449985588948383,1.0405599871933453,11.197626619215013,0.05272733427515874,0.5448020928768134,-0.47997743160900275,745.6135006851342,377.56689851724167,655.6344156612157,jog
16.17696160267112,1.1905530512889242,0.3630297213464982,9.166833737035216,-0.01459216987548454,-0.18283925573509277,0.3797805194776365,684.9572119629635,380.0336999783828,536.387338717546,jog
16.227045075125208,-0.884413177790775,-0.6265670261786447,8.02971950412881,0.7720110409644009,0.29473107943710336,1.1620946815302762,718.6208230559533,327.897196750847,659.5174489422594,jog
16.2771285475793,-1.7470402910224108,-1.4565218517080694,8.095431994538394,-0.2329281285906349,-1.0649020520944559,0.8266821917408979,646.3293370085075,377.3823045737742,592.2314970132106,jog
16.32721202003339,-1.669117650872157,-1.294961448969093,9.309120239618803,0.23596147589946667,0.6854401429023332,0.8218038184889452,641.2224997149904,364.40216048244264,583.226988523898,jog
16.37729549248748,-0.43561463608480794,-0.483206848007292,10.375277729518153,-0.9673753900472555,0.8449727635353778,0.3969396399314708,731.9668184162135,455.66478411321714,672.462825383563,jog
16.42737896494157,0.8041962723086203,0.8970422467694217,11.801026921001423,0.584524200257509,0.5305545079134363,0.5108900391795066,597.4328854842943,366.0145491215976,623.2432477509141,jog
16.47746243739566,2.2371543140735146,0.9080249605269961,12.209964405623468,-1.2219860809377856,-0.884622607509525,0.07272609904273046,607.606654637402,442.7153999979437,632.7796513516831,jog
16.52754590984975,1.8455443035935208,1.0475295029661063,10.911198187149884,-0.25147696207522974,0.5249760082295881,-0.029159159472582772,648.0633925101951,386.3097477374476,587.1351986201907,jog
16.57762938230384,0.4164136570134046,0.20358261898252872,9.550629522242108,0.12475181507717746,-0.9648367649869508,0.35451330045698015,728.4469870671065,358.6379368390053,655.335453761562,jog
16.62771285475793,-0.7386959776944082,-0.5896112485131899,8.199312234590662,0.8046925873046968,-0.07102074345066911,-0.08033472948706366,656.5594767702291,322.16624529641547,597.1353408134769,jog
16.67779632721202,-1.5109368468366633,-1.5772869204804554,7.478770098896979,0.23594115425662382,0.31527051941311257,0.28985043417652195,711.3737463558579,368.60772953567124,532.4701166127112,jog
16.72787979966611,-1.6898983060737984,-1.2251700853533594,8.701512891143837,0.6827963887666167,0.1830335492684598,-0.27944195895544227,803.7567553261287,428.1664501156052,625.9772103296013,jog
16.7779632721202,-0.33349578042296574,0.07683715714350067,10.632776780691055,-0.531182133198665,0.47202770554078277,-0.19931288134990452,694.4146315115187,385.7989979698449,579.7072696214291,jog
16.82804674457429,0.5562540081630523,0.7875004773584682,11.558573752898576,0.6784014175765078,-0.17322638343768196,0.13501582555011446,656.4952347758923,343.30319587442773,659.54271835154,jog
16.87813021702838,1.4153677142331347,1.5197304227977217,11.675109668493624,-1.6342300668159597,0.2283019590175852,0.84265230166581,756.1754399872692,395.1555895524975,663.8135393328562,jog
16.928213689482472,1.793290319000737,0.7283458187240901,10.974047506332058,0.12409310932545052,-0.7866017982313469,0.13961560833304001,663.6485222720604,374.3440710701784,661.8115410314898,jog
16.97829716193656,0.5535777915945189,-0.4949616114775435,9.493760084159922,0.6028429141497936,0.27773275757389926,-0.8047185197474995,690.0956609513498,331.5617933942565,658.9359191646083,jog
17.02838063439065,-0.7907979481776942,-0.7721120843052274,7.858928253495815,-0.38993282647990873,0.3750437472610838,0.4196099955881224,744.6816079474859,364.9206570128043,612.1912456187677,jog
17.07846410684474,-1.7105066903659474,-1.1914191490334545,7.72725810711542,-0.9833669715089095,0.5320960477401583,-0.18250855726087425,699.6706580155766,407.39984542208606,617.6831385053313,jog
17.128547579298832,-1.550638640108438,-1.250272948127469,8.7798577444343,0.06131360503042805,-0.4543553374634704,-0.7813593118704585,618.9214965165623,413.89253847571734,633.7280340893512,jog
17.178631051752923,-0.6216871634093821,-0.27560262744430286,10.696073247968226,-1.0656858825623376,0.2558073909977608,-0.2675696325289917,658.1587989625599,425.29047085777876,618.4212010576567,jog
17.22871452420701,1.0043238034789497,0.6257210998183285,11.565459639379542,-0.5148114572844569,-0.499249072371614,-0.0341520449358619,679.2292789558787,423.03524198640133,635.7764353711565,jog
17.2787979966611,2.0757548506322987,1.2832791389245932,11.96971185080333,0.1930214166554348,0.31234095380923016,0.9910316131479279,640.92607172467,403.27665419168676,630.4094132931732,jog
17.328881469115192,1.9786633947500871,1.0847640829557617,11.106096493663344,0.21944332396317917,0.007982346160270833,0.9917687450205377,600.1576842120669,368.54880558857144,660.9533046533168,jog
17.378964941569283,0.5693803407400457,-0.26970073091903674,9.572046088985987,0.6466908785966291,0.9186957401037715,-0.3925906824246384,719.6593917275108,440.47457941201014,608.5347143651778,jog
17.429048414023374,-0.9936360169571462,-1.0160373832387537,7.957541046496843,-0.5591529631303239,0.02282647223846699,-0.3881196643527373,621.7850341581374,357.5194191057789,696.2039132023411,jog
17.479131886477465,-1.5625453513610226,-1.2054349017537043,8.010623628543726,0.9496457456120381,0.5236713178514559,0.7071983985036323,733.9683657331773,361.799161498505,614.2340170711036,jog
17.529215358931552,-1.39590746265708,-0.810679212967254,9.624389366584603,-0.31283914438507604,0.5384108658788304,-0.26984885309301115,655.2323246326727,465.67875241517277,621.7230527944222,jog
17.579298831385643,-0.6154219935662016,-0.20140393594176412,10.680920856895744,-0.3433756434072848,-0.0990500506977934,-0.5856560152278611,731.7619130379076,329.4133639441199,688.4161162326831,jog
17.629382303839733,1.0816944383271987,1.0757753757478787,12.045238601783367,0.49299745116088023,0.7555792791814638,-0.5061016217715985,676.4182557334168,365.80573963514803,670.9236966054864,jog
17.679465776293824,1.84376496632757,1.0044605054443114,12.454836265844202,-0.17041843833450843,-1.2342807540572036,-0.21612166343082564,653.5156525007927,407.1257337657718,635.4075562512704,jog
17.729549248747915,1.505444560484431,0.6474113332440175,11.119198958369605,0.8552139919043095,-0.4337978054162054,0.325636156040002,598.9864655588881,415.47239144886396,573.2691727223136,jog
17.779632721202002,0.5652468603817308,-0.16075904965242727,9.398938605128148,0.6199265131859589,-0.5074186296317263,-1.4727856920536304,648.8321120598386,425.9420532306349,601.0622809807397,jog
17.829716193656093,-0.8878382361904414,-0.9576317479272187,7.902697304040686,-0.31030496809061825,0.28857444784730896,0.7964363115252202,653.368769463914,386.55665695791555,639.1355535948826,jog
17.879799666110184,-1.7197726947660301,-1.1707039827712418,8.321945172034603,-0.9113287532996971,0.056176147417172535,0.035731061814825577,699.0062869184919,368.0215313246291,634.6827967213882,jog
17.929883138564275,-1.8908005071421778,-0.7141989997505334,8.625776608367294,0.32776227840342986,-0.3209062435132062,-0.24538890786099676,714.3217228834322,376.32909799015044,626.0410413925426,jog
17.979966611018366,-0.1483261797035927,0.048687590043335144,10.47727612766089,0.5067248164792874,0.33978218260031234,-0.24729324689074772,802.6963404363543,443.2312637186337,606.8922346407012,jog
18.030050083472453,0.8786252717443965,0.839197751428558,11.794016867794683,-0.23004458257694516,-0.07794067002610597,0.6343751416146495,662.9549682357101,406.7575406020302,665.2125590045174,jog
18.080133555926544,1.4454584834695625,1.4248506481551173,12.179627072282551,0.2581364080468949,0.22534691538351573,1.058555041766049,706.0728823707476,372.32236108601546,631.4385964304599,jog
18.130217028380635,1.6750288758798486,0.9666246086304431,10.77590304963142,0.8999495578786927,0.6772898940867302,-1.6128370640315297,754.6929127658278,338.8238925915459,652.209595987619,jog
18.180300500834726,1.0526201042770427,-0.03209926817302088,9.614602658726179,-0.4893314293076604,0.4258265377748377,0.475147030182293,701.8733243318059,395.63021885004576,570.7482899377205,jog
18.230383973288816,-0.5997854772563217,-0.7647876916030989,7.780165856252822,-0.2627554291678566,1.102695591717932,0.2473330939872611,706.4057385770706,343.59104707373797,627.2092741298202,jog
18.280467445742904,-1.9593121579428483,-1.4578281684922973,7.702691897597039,-0.20977687456642508,-0.7784317869049213,0.21368388272771713,636.4693032159317,409.10001152493453,636.9575432746906,jog
18.330550918196995,-1.3740940280696754,-0.759768671313706,8.842085900626293,-0.23044137388293698,0.13035463959130147,0.1588309396766908,649.66428240513,401.48834405276716,527.092198236116,jog
18.380634390651085,0.15734422243679141,-0.002837737304139429,10.96283647535839,0.8176561231247961,-0.23965936973460125,-1.1268511124680245,677.1367584375529,398.22772291245417,554.3006450922155,jog
18.430717863105176,0.9437336155102132,1.1289274956259274,11.668026972202323,-1.1078711084923318,0.2995658331577888,-0.9178670217980172,691.2574521976655,348.19248634227057,608.354254153854,jog
18.480801335559267,1.9507590461407587,1.2365349358739,12.074497616998142,-0.5365001797189329,0.1156787807666043,-0.03763930370436091,614.3802513247533,443.8253010565893,692.3360857165102,jog
18.530884808013354,1.6368573403323299,0.7635295361980707,10.973248107754314,-0.529915371273821,-0.23355259102534143,0.2526907645832865,604.9279770958707,356.90662900448535,593.7042113152382,jog
18.580968280467445,0.7415609196698666,-0.10759725088061192,8.92614934354908,-0.7067116998950289,-0.9818264916094707,0.7460060706519891,665.418499053033,342.9619960301117,615.5382148454711,jog
18.631051752921536,-0.7014911878668718,-0.7224945692243316,8.048601240938595,-0.6126276125697112,-0.0026925958801752125,-0.02401172648575209,788.5009486673434,365.6462648947119,572.3124583112573,jog
18.681135225375627,-1.7163844503736574,-1.0727337848822125,7.682318574691297,0.32304825795291936,0.2857921284937364,0.37927155946241486,635.9894513436656,415.4449408948453,614.4728500979008,jog
18.731218697829718,-1.6569509883556268,-0.5882792454922994,9.456924006809219,-0.235000743987087,0.3153094176674192,0.254393220946044,722.6611279777213,316.07749567569266,564.4207952431108,jog
18.781302170283805,-0.652580179178047,-0.2535021962574393,11.19275287890786,-0.4702393227511309,-0.4221198102928939,-0.5660263678322498,737.1784171116964,315.11859541596885,653.7300136258763,jog
18.831385642737896,1.010419352371587,0.7108043212838708,11.560824008341466,-0.08202937666784375,0.01916815291100603,0.51271915841357,703.7150899157347,386.6154990609921,562.7197659312524,jog
18.881469115191987,1.7936007681385324,0.9411557188200372,11.902600174758739,0.3217912117171449,0.6101314506349971,-0.11196849241414675,755.4817367351415,387.43802238696816,546.2423786883485,jog
18.931552587646078,1.5190982387249408,0.6902164103847368,11.09574649940469,0.3621801067677016,0.15818699105304115,-0.004196980854032306,623.6597298515132,425.08811040667786,577.3039762639748,jog
18.98163606010017,0.499201877377509,-0.0036470746806993165,9.169648714549092,0.3332296974515674,-0.42922622861650706,-0.04653273271272715,714.0522147900689,358.70395443111624,595.6672017721062,jog
19.03171953255426,-0.9353471246908344,-0.9366272800678741,8.061989710996453,0.06819498527039891,0.24087742130268275,-0.2067283918824838,728.2293769465099,413.08676292838226,610.1481061276795,jog
19.081803005008346,-2.0298043741807823,-1.3289343272581666,7.487388653103069,0.028588227561072658,-0.867428396399513,0.205730495062593,707.6367262153522,348.7799523030789,594.7122866797317,jog
19.131886477462437,-1.650148104703324,-0.7445806979005742,9.024473783940206,1.0375540282522828,-0.21690583595805638,0.2192576944892479,646.2558921117784,453.9875523441473,692.4058164299796,jog
19.181969949916528,-0.3498100448157848,-0.17871811925394487,10.833358216634792,0.6598755172963702,-0.414622441216945,0.011901220516611704,677.8099776795029,339.5787234178211,661.5989096684428,jog
19.23205342237062,0.9691276677958993,0.6666528169375172,12.472043991330834,0.4007000319043967,0.2378990490951323,-1.501185102919017,721.1796076119465,444.7593908464329,655.0160923679199,jog
19.28213689482471,1.5904701066567584,0.9701383291191943,11.76039150200041,0.01411619792387487,-0.6616208999270862,-0.3953904468711945,689.5339695387133,491.20435834319267,478.4304690033617,jog
19.332220367278797,1.9620148939536144,1.1072797195443607,10.449375043024924,-0.26489632809613356,0.002702213104142139,-0.692705176161723,652.6380031801848,398.0900517543569,641.727384387787,jog
19.382303839732888,0.5418349279103056,-0.1896677268234952,9.118611908396117,0.9326310279338148,1.0032061422646237,0.5663604592162503,686.2958577275461,414.3296988521742,589.4574191835629,jog
19.43238731218698,-0.6114300343265758,-1.138066003378382,7.888169822855041,-1.7868916860928064,-0.33361889468558914,0.6558599619546136,706.2332251951593,395.15883462574016,670.0574130899989,jog
19.48247078464107,-1.4713088372980387,-1.0579613164818562,7.983159531826284,-0.681589750901302,-0.4411838548265565,0.6576244046692644,688.7512376165922,364.2797525718038,589.3978736300357,jog
19.53255425709516,-1.139506825807559,-0.7436920453599276,9.085991412621526,0.11437944785386266,-0.07940592489325839,-0.26533708749697166,651.4110664217508,347.9760287848343,627.708051024138,jog
19.582637729549248,-0.4971046483108214,-0.5046389153699482,10.501932268923769,0.32764028381649896,0.347419733642872,-0.42869598715438173,674.8166457348616,393.4731096120558,689.0140689552662,jog
19.63272120200334,1.370245761574767,1.132615233904417,12.019253923770743,-0.9076198032613224,0.016132440468738803,-0.8918876894438504,618.4606483291022,346.96061599734884,646.8040217561327,jog
19.68280467445743,2.1805464292747114,1.1177894674632176,12.125949358800451,0.3857935856113827,0.2729928891959421,0.013473179353746471,711.908324579851,425.29679370192576,594.4783758311867,jog
19.73288814691152,1.724462277194457,0.4207477554941606,10.933211829232947,-1.3500534346996202,-0.19517304098476856,1.1653474892476692,721.6122552112361,426.73662130965386,650.256015053186,jog
19.78297161936561,0.2814282751141778,0.0001572749646552643,9.177545897303231,-0.32706645576615,0.9296579230026842,-0.1681361114526308,655.2895479401835,352.70230000144386,523.6732727640781,jog
19.8330550918197,-0.9847997025929295,-1.1680861192075973,7.680633164964247,0.41709059546341914,0.20977398177320103,-1.1984866082116823,684.4159461742946,401.3376321945155,589.9287237199851,jog
19.88313856427379,-1.817508095614478,-0.7340628912426361,7.479483008071582,-0.8350935735236954,1.0570001435845244,0.7338537977174006,673.2213050814175,358.8128702486562,617.5319941604777,jog
19.93322203672788,-1.4233513746118545,-0.8574222440180659,8.92470565515294,1.540001865799482,1.3815682624130279,-0.5146770979386951,712.6480797448334,385.8502524736643,624.6377983908869,jog
19.98330550918197,-0.5746587965541846,0.005944718689047404,10.454333373379232,-0.4661823230725515,0.04117848654236982,-0.7840957261758996,746.3381908825169,400.7692940906403,533.6081900161762,jog
20.03338898163606,1.3227436721193553,0.9966366065110659,12.125171517581428,0.33538080726747127,-0.4223474237550098,0.18424390165361337,708.2630681430172,351.17051702195363,672.6558205441138,jog
20.08347245409015,1.5209977660335814,1.4333852379470018,12.161920919977492,-0.6040572534508445,-0.45966470837615775,-0.2199037175146672,728.4360136306827,362.2749418361554,566.5397422246299,jog
20.13355592654424,1.4975352655318148,0.7719795421061184,10.763864417302642,-0.39376624054528675,1.1869239207319842,1.3924077377204256,630.6273806470853,361.58045296165295,656.7136021675199,jog
20.18363939899833,0.22282439046807706,-0.32191482853708064,9.243378199440748,1.0625201817846068,-1.4808398708986543,0.5576884432680297,661.5132030567222,316.6268661154414,559.4297385805554,jog
20.23372287145242,-0.8092928213275292,-1.1859262042218532,8.138981222567864,-0.9453878960801118,-0.9175000727316117,-1.054512289038462,668.8484104468184,407.6956060779333,656.2460538233612,jog
20.283806343906512,-1.7850643065560174,-1.3123857257736948,8.304680347846645,0.13629357620663202,0.396521343932218,-0.2745796858805952,694.0017518660226,442.86030761198674,639.4530351056135,jog
20.3338898163606,-0.9941656432530529,-0.8426999386139842,8.678414728919243,0.4179706139880385,-0.5461469531227456,0.18327064357547568,709.3110959953774,407.48964445940203,593.2207034998773,jog
20.38397328881469,-0.6678514404126864,0.03673037086012819,10.316345030194801,-0.10567468407837581,-0.24205313835922357,0.10400341568199527,733.3655598794192,335.3960088297091,589.7830642251707,jog
20.43405676126878,0.9314611940257133,1.209116603269047,11.91648568583815,0.8569132605335176,-0.14028652517526674,-0.5061060124984746,704.7626697296661,384.1397569837758,637.7478152605547,jog
20.484140233722872,1.8326923467581915,0.9731831380431697,11.879317032723069,0.22158691511841938,0.9656410138622107,0.9771285862778346,648.9921258761682,410.3149558033709,635.9951962276726,jog
20.534223706176963,1.3504086176715586,0.5551271847082817,11.1625944757477,0.615959948093266,0.9285753385547858,0.2527544226689002,642.2862394648738,375.8401015156336,607.9134017845117,jog
20.584307178631054,0.5656567708061937,-0.5534489387239976,8.592967956950499,0.2991276336258565,-0.3647452257781183,-0.09728823461283376,692.7453270063436,441.81840205905974,562.6275788781966,jog
20.63439065108514,-0.4884013182410443,-1.1065114883119573,7.516391957049518,0.026239952430357254,0.3600180886061413,0.635450966664221,688.4475237143544,367.39763724506827,628.8370963719657,jog
20.684474123539232,-1.9829148159299255,-1.1851889959328086,7.5385814562460896,-0.3574538670455206,1.8315659619241673,-0.879051148767245,708.3415494027338,438.6205128089217,692.6578073678143,jog
20.734557595993323,-1.6307671345533807,-0.31045683259389373,9.176528637737718,0.5158628842469684,-1.380136341326353,1.2585687995647377,678.2521881790312,366.4064997989855,611.047806803983,jog
20.784641068447414,-0.3162109857935826,-0.1717994733835786,10.905353210619547,-0.3862474857143921,-0.47971043995601037,0.34443823313334637,690.8279639069038,395.741073153393,566.5050904670259,jog
20.834724540901504,0.8944726216349271,0.46619369517748127,11.616903477503367,-0.9044370727266101,0.8432443363368131,0.29935199357252723,690.4875001842936,369.84813531891854,683.1846273065696,jog
20.884808013355592,1.757324670437574,1.1101966580698586,11.84891779738396,-0.5900514462660748,-0.820380490921469,-0.690245051267914,726.6311599236884,363.85867848922925,531.128981928378,jog
20.934891485809683,1.7170511009626996,0.6593306533807184,10.577319382020859,0.6840431669560596,-0.3907016810085122,-0.6423638584565816,797.0381256894635,381.1758159063798,600.1203848003279,jog
20.984974958263773,0.23413000352851182,0.19132208088070163,9.095985772060553,0.15208643555355977,-0.012213315221314707,1.438740715163235,669.3241958941081,377.8375852593502,593.1469537268804,jog
21.035058430717864,-0.8897562867560744,-1.0246506048087365,7.794548657894065,0.3587878721164685,-0.4965077250196716,0.3835853923240066,703.2434036153105,380.64252972701684,688.5970795182811,jog
21.085141903171955,-1.5507087007839684,-1.3255408956897898,7.749926904724105,0.24996288124605842,-1.2323491554827155,-1.1260729625501145,682.1588881767645,363.6052656213661,568.8974116093627,jog
21.135225375626042,-1.2374777013980838,-0.48469569637557475,8.980411116961697,0.17701553084429594,0.21699951406475534,-0.6318230484473064,658.0303289353686,397.7177486296178,638.8487138882391,jog
21.185308848080133,-0.4755614972408902,0.03386667700659561,10.737579366430435,-0.5479952015089085,-0.3002977749579015,-0.19204768284068233,657.9835487644806,416.72380106334464,593.416069093022,jog
21.235392320534224,1.0061269215859228,0.5066166292534295,11.93941022707258,-1.5573617686122547,-0.5369138053405007,-0.027313296822576764,672.0131640332738,432.9726315766908,675.0190237616498,jog
21.285475792988315,1.9803956102851665,1.6306669404778082,11.81849772606851,0.6416300143633631,-0.7551003496073869,0.9035564504535897,697.8114296909262,384.7543004172829,617.370213095108,jog
21.335559265442406,2.0669559845074486,0.5291929218582745,10.95688566249043,-0.7931942683453262,-0.3408328650521922,-0.7013580807873819,744.1801920597007,489.1608080684598,597.4653409563695,jog
21.385642737896493,0.7160286484657661,-0.16716070214850648,9.828454583859616,-0.2608490713015362,1.159886992260576,-0.7479494974435558,713.5924686565074,361.6204676770399,620.009663749012,jog
21.435726210350584,-0.948675008402842,-1.1327873202049363,8.087923505253023,-0.7877875835285478,-0.7593005647404389,-0.6281892426860471,708.0236397430168,417.15530376605244,556.1178120444466,jog
21.485809682804675,-1.8585832498620651,-1.0551462010052137,7.585312895481225,0.20651577409341318,0.396871915346131,-1.6688141395549383,660.509766894483,382.88500231110373,551.3145904914452,jog
21.535893155258766,-1.7316755977887457,-0.9943490381322593,8.812031316072218,-0.24501414047247064,0.5611503510269337,-0.2911686417916707,653.5042000331979,362.52779195002233,583.0467644630187,jog
21.585976627712856,-0.18685422608664976,-0.46149817319848613,10.979777122336142,0.5608624334889711,-0.1847011917873434,-1.141508055097776,624.5504566763207,463.88931531507023,675.7903176205109,jog
21.636060100166944,0.8921414459140237,1.2842367902388507,11.950590221879464,0.4931017369199213,-0.6574187070062575,-1.2647052606618017,724.9212376969824,366.27240202740603,605.0031435127453,jog
21.686143572621035,1.7929479614366821,1.2453699895459274,12.049101367442601,0.7426335257229425,0.9174976513930968,-1.0963255273246642,658.1101498165241,522.4373116069783,601.8274149497574,jog
21.736227045075125,1.9231714487891058,0.1779366896123767,11.028415252695218,-0.5530449716607384,-0.5362156368687085,-0.5082951894253921,639.6461201866742,438.0229378302722,622.9816414764707,jog
21.786310517529216,0.23444683405938027,-0.04567751565309157,9.23347401137664,-0.11540854744759275,-0.4532290840561329,-0.052295288831477965,731.007255288518,343.47959983191834,618.4619934354254,jog
21.836393989983307,-1.1506195186352006,-0.8700897665955447,7.529642775346556,0.9235864937832503,-0.6498171215197094,1.3430908445513128,612.8831723795166,373.6050990893021,594.3924869876995,jog
21.886477462437398,-2.2432315625462276,-0.9526047027898312,8.141460001203669,0.09372739704027054,0.06450404470235872,-0.41994656837129335,637.3706253891856,413.4570811624399,602.5193289195224,jog
21.936560934891485,-1.20751884231413,-0.9960853967240644,9.282685729540207,-0.5012964432842647,-0.3416791108607356,0.08069456714173315,747.8030611892724,374.0595478704187,597.0929876330877,jog
21.986644407345576,-0.3413312706214159,0.0046328034721986044,10.969527984508582,0.5518358449378259,-0.1613660797898212,-0.18706858929179673,642.8120425076146,362.85858188249455,640.8859521958766,jog
22.036727879799667,1.096616059494432,0.69229491064971,12.230582876516104,-0.5659809528283483,0.13336985366127296,0.9519158656564021,628.0104900215189,340.60099304598765,733.7054132620852,jog
22.086811352253758,1.8846179764036048,1.2949147222087807,11.827427370560093,0.8280472552666595,1.4878794300815206,-0.4909293927704667,640.5856257368409,452.36113340910856,685.1975350654913,jog
22.13689482470785,1.4952138616348074,0.5143822679002561,11.13415810374629,0.36839528663457405,0.33268193423178755,0.330608947596607,705.5025829595538,335.83583890202135,590.4915714896082,jog
22.186978297161936,0.958842925465326,-0.3754210491264312,9.211727765990704,-1.1449802259676891,-0.05243387676782017,-0.014496190614169357,621.7525417468744,396.19413374170153,640.1353628246787,jog
22.237061769616027,-1.349465766300377,-1.0348177210261245,8.14225657307568,0.09686046901923974,0.45212540955534575,0.309809066109553,707.8757087930728,382.1478867461556,597.589122561825,jog
22.287145242070117,-1.9407567240691153,-1.008348497507083,7.8935001897209975,-0.09693703000521488,-0.10060394439202593,0.7196595739264183,681.5161181466718,401.3219646026044,573.756476166325,jog
22.33722871452421,-1.6981057545051237,-0.8186743678060706,9.272472536044054,0.42225457482129164,-0.008470227470338858,0.14324132304196432,693.3698405908231,380.69927561455387,720.424953177205,jog
22.3873121869783,-0.4002487393870267,-0.8529868194861305,10.682721497615276,-0.31283758704201775,-0.06543390962519913,0.08233647314256957,788.4443488662923,363.99888735831064,568.831479728793,jog
22.437395659432386,1.7189998534231266,0.34229721038206956,12.078350278012046,-0.07104510536774672,1.0787206618970497,-0.9883700792541317,647.756349418816,452.10748679031167,580.2952783751541,jog
22.487479131886477,1.8598256559770816,1.2412122231250189,11.900520719758356,0.4724180167709911,0.45686115366366026,0.3309379180526347,635.6325389234995,452.0853613618642,587.3979717928256,jog
22.537562604340568,1.6143894928960143,1.0554992625316588,10.847094279238743,1.1550771150664823,-0.764491943241624,0.26979134596750987,621.9717496840722,402.7438604182908,551.7900978801704,jog
22.58764607679466,0.07950821649082222,-0.08768077253950106,8.593483064670952,-1.3121871216188723,-0.20459519930951864,1.120897768600268,689.4028273472327,434.8547614522238,626.8286693168711,jog
22.63772954924875,-1.0369930399006213,-1.4425225915056463,7.9573767537861455,0.2685113047731705,0.2093309723951361,-0.09222521034872705,642.1310601875133,413.9493929147938,582.4300739926026,jog
22.687813021702837,-1.5451787790765712,-1.2832595216272378,8.042092301792584,-1.641564483268206,-0.2576079497144806,-0.9624064375724356,661.5017551942191,396.30993245816404,563.5411066230508,jog
22.737896494156928,-0.975827664877775,-0.9803024239310776,8.801850873816367,-0.6649573263401725,-0.607777002795808,0.5702497823809898,693.9216769710067,321.4969278122197,621.1724104073621,jog
22.78797996661102,0.24703816689089342,-0.015689126945287263,10.487799552812502,-0.05046222149974743,-0.3717809609183903,-0.445901812350809,700.1182457191711,352.9399735791706,642.3731986972301,jog
22.83806343906511,1.1926734170899613,1.2257216021699096,12.192489932294341,0.25095041440415844,-1.8629801740665823,-0.09396959884307021,586.9154268758939,361.2483863018269,579.9107055037703,jog
22.8881469115192,2.23909363458932,0.7614087701873886,11.744424021703855,0.42058335696181537,-0.9887209312185146,-0.5489986290690886,683.4818124759701,330.889475773026,682.0068266682874,jog
22.938230383973288,1.739590617874132,0.8540164436696376,10.734402672634435,-0.8375809639868202,-0.055899048085628546,-0.6092951193473222,674.8367293136879,369.81656824142516,630.4426994379296,jog
22.98831385642738,0.5716664890887286,-0.4705342254294492,9.296682968560924,-0.05340626435614561,1.2064894935547057,0.6288442851653017,685.3630064436192,418.23470688728804,644.3226888001832,jog
23.03839732888147,-0.5405838255474986,-0.9550598270634147,7.6020258446093205,1.1206770934150105,0.19571338877883723,0.23586914783549462,655.9437393687072,368.19060340308573,611.619966129383,jog
23.08848080133556,-2.028676259059967,-1.6523206981401621,8.112443963423802,-0.24729099657922404,0.30657435329719396,-0.8550172254450019,722.5199240633586,389.7345871564749,576.1418865005933,jog
23.13856427378965,-1.6035309641933433,-0.6498266643387127,9.07758682991878,-0.26374484234513,-0.32774329691572424,0.06313313049063517,676.312625534001,435.31147507742924,547.2558420899263,jog
23.18864774624374,-0.12262791159135271,0.055614674897118965,10.866552188938323,0.21119280484648206,-0.2672886007191065,-0.46240251668493043,639.4352774619813,364.9261359411397,620.4836275053975,jog
23.23873121869783,0.7769687520700879,0.8389051735824451,11.80276240647592,0.15556592069597186,-0.7206127956174201,1.3484275592188826,729.6070056867977,379.65647386285843,600.1197322125926,jog
23.28881469115192,2.0567891596921295,0.7870441247918483,11.95734768784005,0.4928312082972209,0.851084891077197,0.5971449275962672,731.6632993739057,408.3208844787631,571.5092533457384,jog
23.33889816360601,1.45786267679104,0.8399229091644937,10.524445279367283,-0.41273672297789604,-0.1780681038107868,-1.2577021288430739,670.5487017896727,379.4081572423294,581.2116759607825,jog
23.3889816360601,0.4293871618893719,0.11990975070123383,9.151314713475074,1.1480636697447713,-0.04770159288728221,-0.8862683733279778,748.1398776053376,341.18358543512744,631.4545794541539,jog
23.439065108514193,-0.6326759262826017,-1.0250837545751152,7.5290012931991095,0.17827087218564971,0.17992265926941378,0.014092068368360368,734.3698908404776,338.36465733037414,666.0262909880571,jog
23.48914858096828,-2.0264201381260447,-1.3068995458078823,7.8971719973438335,-0.36426573008023444,-1.3003864053160983,-0.9527478829720104,659.1153235155804,333.3585053778841,599.3475679749318,jog
23.53923205342237,-1.4335789258439444,-0.8224283020056222,9.015384120021974,0.47245584747464275,0.16063068848806883,0.6449022531130965,686.224707006825,380.09211204111455,646.5447978996087,jog
23.58931552587646,0.05711998975958725,-0.08688068472397303,11.117833641683882,0.45890714882141637,-0.24801166324194887,0.5730997105128818,664.2757827916339,315.83883010310427,609.3228589332089,jog
23.639398998330552,1.2171725676849274,0.9462741210073982,11.51195341943058,-1.6100855866024242,0.12016211525165595,-0.4952267442814146,667.580064429593,427.4029353219734,581.859063753355,jog
23.689482470784643,1.9459073872976216,1.3079751372401769,11.583467200603819,0.5877406379849678,1.0778408072598793,1.8156726234296392,632.0122030821395,384.648813010657,644.819402648329,jog
23.73956594323873,1.3712875624813798,0.6731475346868263,10.76394063670758,0.9770112570980578,0.151042427487476,-0.9349084126348235,696.4919302522619,439.1782021631893,647.353768384594,jog
23.78964941569282,0.24397108658093614,-0.1567565102455909,8.90217161539523,-0.4634555579971351,0.2196063279739528,1.0767623334597223,729.1782402501829,393.1656255082628,653.6900886507365,jog
23.839732888146912,-0.9530681898302099,-0.8477351689771768,8.089451768937797,0.5033523109582189,0.10130214458224134,-0.14791352058659976,725.7175085876422,452.00218679394027,543.0500660519615,jog
23.889816360601003,-1.9108582182154845,-1.458776018667483,8.285561917965758,-0.292200402975617,-0.020421823011246894,-0.20873144006598682,663.4402726422369,395.4017561660006,535.1282237423139,jog
23.939899833055094,-1.8062122864395338,-1.0817486515689088,8.936411817414974,-0.24475539091018356,-0.35092270710427087,1.1447061062707011,763.0175132776294,442.4886068047151,585.1064418652577,jog
23.98998330550918,0.027393351453823586,-0.11680016041923219,10.479549988030021,0.6064631663531915,0.30920570696240157,0.9172588338780547,710.664422824525,381.69797312177366,568.6889531101067,jog
24.040066777963272,1.1485088915801218,0.5140615529546748,11.559452659740298,-0.30560712108948146,0.01907163496727896,-1.3051291391223732,655.3609995624988,421.34340727782717,665.1864159714198,jog
24.090150250417363,2.1066001008004984,1.0750041320359185,11.616939974592114,-1.37587421296834,-0.2000351807051526,0.0533652501492006,702.9036079187591,395.65396256231566,618.7553261679676,jog
24.140233722871454,1.1409577163506197,1.2821259985691276,10.969275974983256,0.38730981081015625,-0.8546627720310923,-0.7651695706971304,676.8523559189975,376.376578493087,568.037628695231,jog
24.190317195325544,0.48789061129736433,-0.5074820045295847,8.785077187012746,-0.24116806041804542,-1.0310391019684115,-0.006465225060426166,677.7678032157397,409.6954282120611,696.6066620297488,jog
24.24040066777963,-0.5053820305842229,-1.20630475229228,8.063546688922289,0.3557533651562727,0.07648736265813605,-0.7754308298003756,802.9501760221657,386.96286408265104,677.3955273387537,jog
24.290484140233723,-1.6784220443932427,-1.3232360022783343,7.714003907368507,-0.29063325792785294,-0.3040641671525123,-0.7791243187245006,639.8497160143845,410.776680794573,613.1561321953174,jog
24.340567612687813,-1.1188618036952578,-0.5729781651841628,9.252736170624651,0.46406880971581027,-0.7213915382631275,-0.13430024745840752,624.781060163946,392.06879418685656,671.3536043827112,jog
24.390651085141904,-0.2576447869626329,0.4476141550655442,10.359202049467765,0.291690411497164,0.9116937599125715,0.46143319814339756,710.3707298617578,409.965628997633,620.1945995258312,jog
24.440734557595995,0.9312971119593797,0.4588999559206665,11.461437812296763,0.34988829839655317,-1.4524017173101196,-0.5254087194788783,688.3554729201886,388.70988571796175,612.7486766791855,jog
24.490818030050082,1.6086720135558756,1.4603460524399132,11.66421432434967,0.05748940981563285,-0.09137639801087494,-0.6754894861990697,739.0080433817191,373.0898069441174,643.9727493381764,jog
24.540901502504173,1.4428754132717052,1.0534206933108552,10.837515300080533,-0.6597083002933353,-0.6265993495245061,0.42819953478974365,656.6775275036241,384.68877731680766,687.1603250186665,jog
24.590984974958264,0.4128035882648879,0.07025300401400744,8.954794713454408,-0.0771533952889309,0.48716301321884525,0.12690332848078706,584.0252642063799,383.55626193538944,614.451558123315,jog
24.641068447412355,-0.4938730632979274,-0.7083911491411023,7.527380949929734,-0.49335440390024315,0.07011785386369417,0.836406732390702,694.9387794446218,437.6077913301775,639.4408954576118,jog
24.691151919866446,-1.6387748829351307,-1.2358365253366614,8.141492645603098,-0.11627017867868929,-0.8472277391324008,-0.01738164444007427,661.1514394893856,366.4820081572484,666.1665577152988,jog
24.741235392320533,-1.2192348135287303,-0.30774559592253403,8.947964912515294,0.050591413909282165,0.6792085312816311,-0.7966499782103788,645.2141389601067,352.71067578252945,602.360204287409,jog
24.791318864774624,-0.3431485777161702,0.07144975818920651,10.747518327933017,-0.30906952342811517,0.6832233584990551,0.26212668569164144,669.6094029383386,409.6877736296951,649.4092751874471,jog
24.841402337228715,1.340428789455991,1.331845123592774,11.756975633417296,-0.08722155431750556,0.01964564326665399,2.1483441000172134,721.4800885650583,347.5194016620088,603.6761879496933,jog
24.891485809682806,1.762327404247785,0.9065978974467379,11.732360340229729,-1.1537289510037976,-0.8056288004071259,-0.2513237456613496,669.3032323950877,407.4289419207511,611.5108249061326,jog
24.941569282136896,1.7861697460691837,0.7006662812255491,10.728827134992937,0.5983651900231113,1.9591378013449163,0.36122977208525475,700.0349483523986,336.18303350091685,573.3791554777063,jog
24.991652754590987,0.39534991340039805,0.08733238699617468,8.81549333824263,-0.402070888682861,-0.36732207430756675,0.5087284074510364,627.6190263180026,491.6211753197856,520.8364178939562,jog
25.041736227045075,-0.9282162533704535,-1.2371345935375215,8.029856476145216,0.7819633957676512,-0.3738481152912208,-0.46757216670407975,593.3576112019816,333.5924322934898,585.4845061735609,jog
25.091819699499165,-1.856696413893648,-0.7923493916555746,7.651563037894189,-1.2818990419576555,0.04122043024880505,-0.3499128595913242,679.2353369712897,369.3330214430079,664.412759314943,jog
25.141903171953256,-1.3018443773236885,-0.5167255122746783,9.271995438950745,-0.19560583135800966,-1.5696628021765366,-2.1777738756985365,670.0778257997063,389.7155971756078,610.6414479935755,jog
25.191986644407347,-0.29074306106787506,0.3299799643971309,10.49525879836882,-0.31322416420576654,0.05747415437808341,-0.8219873700662357,647.4917027325915,367.04834982177266,580.7306381543659,jog
25.242070116861438,1.239247056685607,0.7421707374038495,11.782981800626766,-0.7724502574839478,-0.10086927180291952,0.8307003109315757,654.3658634054763,426.47433724997995,574.9586528965244,jog
25.292153589315525,2.0401118589349623,1.2712321678218272,11.624580225405989,-0.7938714799787016,0.38250117660964533,-0.5549320343925171,678.304125526086,362.2576900698149,591.7592915702933,jog
25.342237061769616,1.3918817359760018,0.4355213092463806,10.42112155067989,-0.5197724127582982,0.24141811055099063,-0.6703684786256585,631.0367360924836,413.2728667796603,629.3464753651989,jog
25.392320534223707,0.02390342821104134,-0.5403574802449278,9.43535911591923,0.6688064961183734,0.3970925362067892,1.19911270745452,695.0339286339458,393.0298894307294,683.3672599646443,jog
25.442404006677798,-1.1934454000190406,-1.187639209462472,8.30764728882527,-0.027773729208344474,-0.9085301915906453,-1.2557928156075076,628.5999856636126,319.0105420125989,532.6463337411042,jog
25.49248747913189,-1.4944972132617567,-1.0362777607603777,7.5851841630943895,1.5010518196345493,0.017707097141293027,-0.28036158569715386,654.1315381217948,328.88329321635484,612.1541703454237,jog
25.542570951585976,-1.2862173357037512,-1.1760308579388912,9.72349890212468,-0.054261191900466424,0.6908536457915809,-0.6480039159088918,651.1357815324998,433.06606350748825,610.048712021484,jog
25.592654424040067,0.06428077921925486,0.08525976619884562,11.024045961083534,0.6977102922832351,-1.0206707109621354,-0.6201659362875076,654.3181010808461,355.47784818503806,614.0055348459892,jog
25.642737896494157,1.1297049583594663,1.291042688103094,12.096579620490255,-0.49616345960538166,0.3731161404365036,-0.8737916068555611,674.0369640342961,417.44110999414175,574.4817775928502,jog
25.69282136894825,1.7491851623679737,1.1045091214860583,12.24027486085184,-0.6675025651600155,0.35977833959726374,-0.19140590839492586,681.8018810649609,396.9636310032815,590.4662262646998,jog
25.74290484140234,1.7285325859394551,0.4556142224842182,10.714464144547009,0.7652592441372755,0.14401980489240454,0.4203248513470115,625.1455295191869,257.8984790129252,606.0010629578921,jog
25.792988313856426,0.30534532789867314,0.045776831617383607,8.87274192212576,-0.12393436408688702,0.8695022797462525,1.3408623153324115,587.9242230450429,319.2082431281135,620.3987627973432,jog
25.843071786310517,-0.9091437949779844,-0.8112713263717528,7.3861456953706055,0.056087583552551085,0.4283744410050231,-0.9932844506894812,666.5789896157427,375.83551313583484,603.8744610386071,jog
25.893155258764608,-1.7426557788341508,-0.778089528215697,8.288153287833442,-1.619801851892239,0.2634655174447314,-0.6059383983298974,651.5767746231087,427.53564774404435,742.4747676272249,jog
25.9432387312187,-1.2471716273134206,-0.5308432907768466,9.685438256012993,0.014700273086257256,0.24100476973466847,-0.8231646348599356,564.0509713658173,428.2402242553685,565.4558816818634,jog
25.99332220367279,-0.3399474949376992,0.49125284034191147,11.226860117397134,-0.6128202779825176,0.7441811920817298,1.2147002671283096,684.6635569885785,399.21863282659035,634.3502668001701,jog
26.043405676126877,1.1921087909895116,1.068926571907858,12.05223110059872,0.13422065719200243,-0.025385709887342036,-1.3152466933269977,689.2446042208899,335.82936982357205,554.700662839708,jog
26.093489148580968,2.086081952128937,0.9167078298398132,11.512678543281512,0.8220681585781718,1.1796241983149247,0.0001265366640580836,746.8515194607314,326.01368950775594,609.5880981316025,jog
26.14357262103506,1.058426776150861,0.5444751802955361,10.407160562306851,1.0352515558863156,-0.6316936335437251,-0.046666165927089075,757.9995230928233,424.8909342665135,606.1130661362117,jog
26.19365609348915,0.05598378439252395,-0.659667995822232,9.017503433139948,0.8408313266984718,-1.0490887665799797,-0.347672380045477,698.7176926534652,498.31959322257796,644.1620672361412,jog
26.24373956594324,-0.9360496127935155,-1.4153416425786287,7.709410327647612,0.4573232651556788,0.17729736742096866,0.3616169973855067,604.2506063259851,354.65155538908425,666.7090969922922,jog
26.293823038397328,-1.8062799258461084,-1.054238210596348,7.480632883455703,-0.08042490575879609,0.8068577581342299,-0.7302046312212608,662.4266539438914,427.4033632278782,498.18754594603496,jog
26.34390651085142,-1.2310602697249722,-0.611059662651146,9.064424642597361,0.6587503293030853,0.9093696483363222,0.5294254969652755,712.220484381226,417.32437125973433,604.5995169229918,jog
26.39398998330551,-0.03343578667239448,0.2177031998718933,11.259403083245001,-0.6112072212512115,-0.33073089312889237,-0.6885233727552494,700.8553818195484,386.886723861375,671.543766219369,jog
26.4440734557596,0.8740305321976384,0.753973811298924,12.43071703014676,0.11945473313913038,-0.25347907431998284,-0.8636649715575474,706.1669157575037,399.73114792782985,675.6655882352354,jog
26.49415692821369,2.372411762033936,1.2835388253375233,11.58378083935929,0.12168604420683624,-0.17739496100842286,0.21703518114600945,783.6743383308119,387.8146574153708,622.9496728104689,jog
26.544240400667782,1.6665084327010888,0.7131568590199251,10.397494943469626,-0.3045352942520694,-0.8206590082864113,0.39242548229790325,650.3684915920232,379.02431836655813,594.1525129953595,jog
26.59432387312187,0.29185388579185345,-0.5292689454118646,8.364015345599466,-0.8076024555054963,0.04383702767894188,-0.21022288901590128,634.2088337157128,406.2516826213677,650.45212389352,jog
26.64440734557596,-1.1266964595637456,-0.6589018749640227,7.719696735800058,-0.9985669617555363,-0.6264156749280947,0.11348090984594708,662.4133784717277,351.09002481247273,612.0918568185366,jog
26.69449081803005,-2.242597273778092,-1.5671370501243815,8.01580327059825,-0.7767014595553082,0.6029385798224185,1.2809350494481329,664.2532196614758,384.84118706844083,612.7954657335296,jog
26.74457429048414,-0.9023348245717622,-0.5271908896065491,9.758856492004462,-1.122991309974325,0.013782667222230966,0.37214422575696393,669.6120498984874,348.5010108505279,662.2455107520116,jog
26.794657762938233,-0.4697230160349018,0.19389874551902136,10.732676040138937,-1.2060288258916791,-0.7334842876318673,-0.9302803055941653,689.77689351228,360.4342373537258,673.085473733377,jog
26.84474123539232,0.8771345499545012,0.7384869433141474,12.046874584225849,-0.10161232162886846,-1.0229647331630618,0.023228782505566304,606.557957981063,450.27441560464365,735.8524722196468,jog
26.89482470784641,2.385120237023031,0.8720154116382304,11.709805778886956,-0.8284027042855278,0.9930286255182332,-0.5475068848412848,727.4309814046006,432.4071934237289,582.4261538997907,jog
26.9449081803005,1.393597432475349,0.35564454634507975,10.400780569167539,0.30049572611493797,-0.47061547996195063,0.40127654159272286,734.3295730531171,374.6303815372002,624.1466333097902,jog
26.994991652754592,0.49622517824707063,-0.4404943373425292,8.703555652028177,0.7189104736826162,0.5872147243492049,-0.5431430172232302,740.1210152625804,334.0190115731639,635.7753331596704,jog
27.045075125208683,-1.262068664275887,-1.2372883258847711,7.552920929486709,-0.7615467656076886,0.10363851941519638,1.046515119356425,701.319759825249,413.996598593116,576.1665181111529,jog
27.09515859766277,-1.4573677244416483,-0.9319599885704983,7.803901338045004,-0.5711153601420692,1.5143004787792798,0.9394233742088206,768.9835146593206,389.91852181388344,620.8825226730108,jog
27.14524207011686,-1.160511520672982,-0.7517583386526392,9.715209404901117,-0.42651790998983774,0.33047816145749115,0.36362573993859726,665.7333287765847,386.2621736699653,693.9119886218386,jog
27.195325542570952,0.20297039299021696,-0.17066041703979906,11.096871439826689,-0.14875107815339897,-0.11394985071805162,-0.19731204654118567,709.4027914994767,370.9078879431469,560.4805053222076,jog
27.245409015025043,1.4748478695297145,1.3582268699696942,11.924891300358228,0.8760027128628345,0.6043594011288123,1.13442364480635,692.1035896154649,356.2890466974312,600.9711171421527,jog
27.295492487479134,1.9175152200250187,1.629719476625145,11.917011363455925,-1.0412562882498726,-0.2377837997500197,-1.0265355963811877,716.8351961341839,414.9895106431242,610.0924118569221,jog
27.34557595993322,1.5398352503940902,0.8099837966553332,10.51377972015063,0.5509587828287235,0.7051051137777741,0.4751317123191106,750.4099406150505,294.0032185707142,563.0531755618865,jog
27.395659432387312,0.7853581474570291,-0.28969543093630756,8.632463909424,0.33818508244712253,0.20546412233369138,0.9428532719396323,692.4155392503177,337.75092222751726,552.7816541261441,jog
27.445742904841403,-1.2101000785897695,-0.999998343650317,7.822798711983579,-0.739105906145688,-1.3584622155571764,0.7905540520031165,654.5620596075727,346.2997272683967,600.9773303387797,jog
27.495826377295494,-1.6428509636675006,-1.0594121368561968,7.930012507307072,0.7295772558155951,0.8780280568498112,-1.4997540538437415,781.660351878788,406.8838737638413,580.7927650303001,jog
27.545909849749584,-1.6636636967316745,-0.3443047656168168,9.396474231791208,0.2319466989317285,-0.5531362944591638,-0.547546173988477,661.1261310112981,430.64260091472926,604.601989955522,jog
27.59599332220367,0.008644374769287158,0.07076139385837585,10.716548202126344,-1.0716567383078506,-0.9279088423099394,0.672296101452876,719.8681540988738,339.02869946609445,603.1414985890738,jog
27.646076794657763,1.1210966355443301,1.0826088811367955,12.099304298764212,1.418244642384465,-0.4821140493118376,-1.1251426567765657,691.2243764244731,374.72077826419314,615.7271395585866,jog
27.696160267111853,2.2843049189196507,1.046874463501036,12.017883355040542,-0.7285014631275326,0.19896657522249234,-0.49827794484631244,704.8599299787506,430.3051247819212,575.3704999357866,jog
27.746243739565944,1.6231898888706608,0.7935589471030642,10.786216361349991,-0.6983225920065562,0.33635106966587025,0.5978441927042308,735.2898326761818,418.30780475253647,611.7515778135538,jog
27.796327212020035,-0.2793817833800789,-0.43556268727816544,8.37292790906589,-0.10810681329622453,0.9042074678713025,0.0008599534261801668,694.6422495508936,336.5211219658656,609.4657835694543,jog
27.846410684474122,-1.4649346391233213,-1.071757555985717,8.027703928687691,0.4808351560549956,0.3037731884511067,-0.4678778733488909,697.1668826213281,389.4951393684719,687.2443060501621,jog
27.896494156928213,-2.0574541498811074,-1.3298939591882646,8.531648713254205,1.2453719084315986,0.42646636760106515,-0.00016069889739674028,696.9545750407053,329.08583176578423,665.6851721380581,jog
27.946577629382304,-1.181255386706419,-0.5249848035317444,9.850021322882144,0.6077482963224257,-0.2717245843601308,0.5078721950392074,725.3681540665211,404.99915303555656,641.7280405520248,jog
27.996661101836395,0.3647277594654433,0.5787809261138348,11.033827350366824,0.37918079466505605,0.7315064436375216,-0.2217243642829039,652.3694231596287,412.3872564160426,681.4663026558105,jog
28.046744574290486,1.3133665153778982,1.233684272023389,11.658808720948421,0.07875058156058126,0.024172798330299512,-0.7404607097838705,738.6952555812461,317.9125519316976,625.9715249885063,jog
28.096828046744577,1.786166477030543,1.8365698890199422,11.720329944013283,0.0629732653752639,0.2994657256446006,1.045619636093155,680.8460834039365,427.57950050044286,624.7572658780722,jog
28.146911519198664,1.389187291700621,0.40664746256842405,10.626717596798555,0.48501122106009803,0.5078900213066,-1.2386163857303316,649.6727928252174,386.278009425901,624.8534619146026,jog
28.196994991652755,-0.1219067346856176,-0.23664526885441325,8.580966358610995,1.5226864672212006,0.7515165076959637,0.37020969845933943,695.2629976816986,443.89807954901096,674.3349395196625,jog
28.247078464106846,-1.1008318556936902,-0.8784361660165223,7.689686709349548,-0.3017217027376679,0.2690226142110373,-0.35164530660694304,744.0247579960586,366.81808235552893,617.722016799056,jog
28.297161936560936,-1.6185377839382982,-1.3971689828471583,8.149280505362997,-0.2998733876860064,0.8198401496495085,0.27722561064924506,619.9133101381892,385.13406118765016,642.7468702291006,jog
28.347245409015027,-1.232737252424582,-0.7330600548220763,9.69256186857418,0.021963547337592874,-1.9379629555173612,-0.5949557673189977,711.8334527242373,330.8657247036955,621.1952346357598,jog
28.397328881469114,0.39014226971168164,0.5608173325216852,11.238161331730334,-0.009070797459907933,-0.1424331574055056,0.5736430988140707,688.2086993020487,402.0381385557096,655.2976944375548,jog
28.447412353923205,1.2819378414859794,1.2633532392379299,12.144558055708766,-0.9595838680849508,0.07326938842831113,-0.03631850004991116,602.3976078566375,414.30114948243585,748.9048606279947,jog
28.497495826377296,1.6658281765000278,1.080419573878034,11.549735934075416,-1.0854215954957265,-0.09123727525010311,0.7012955247298097,677.8040890334701,475.2347429508851,624.2691898844964,jog
28.547579298831387,1.7056776512617873,0.4496909517325118,10.525464795755388,-0.4380708799178177,0.4526401463886705,2.0711542835052974,691.1191039863138,423.6955879702558,598.9933376727627,jog
28.597662771285478,0.20788547431413906,-0.6077787262584309,9.119032199427593,-0.24883105506920397,0.7624362901327292,0.9631493950372613,725.4937806210286,397.81623599963626,631.1190179510202,jog
28.647746243739565,-1.8294026651265187,-1.1608200966223383,7.641246454460004,-0.13941245737560082,-1.043747640608158,0.6542963905636064,748.8222091126813,406.5627584334182,598.5018532850422,jog
28.697829716193656,-1.5258780480239211,-1.6733656098781196,7.808146230223336,-0.5692122463330579,-0.44800074657957295,0.15901643302062543,623.3197528440635,430.71976553412253,593.7352907077924,jog
28.747913188647747,-1.014985999328594,-0.5032033876898407,9.609453577959902,-0.08529615769292187,0.70532105963286,-0.41506295538935023,704.7071688165951,429.23430522996705,694.5789523395221,jog
28.797996661101838,-0.03352696667997372,0.3309760947071089,11.317827101448984,0.01639109670601423,0.04320567797467911,-0.0541407918796594,623.0303749466427,396.1248303108643,561.0685898269364,jog
28.84808013355593,1.239317721699843,1.091693814468545,11.787580330682317,0.47968977261554585,0.7585804940920144,0.718457027356635,743.543592990901,347.4938813491111,627.7669820432088,jog
28.898163606010016,1.3376391139995107,0.9042820631511448,11.580137285056209,-1.0839944226421492,-0.436512054065782,0.7417147178126896,717.9094376230613,400.2389553423806,562.1925642117326,jog
28.948247078464107,1.0664403712622634,0.977598828324578,10.478216040085803,0.8603482206373951,0.18617742819042857,-0.9954086214865453,732.0123930795979,357.9821857918995,592.1646684653767,jog
28.998330550918197,0.08840751063894564,-0.27993181981705184,8.584027380123153,-0.43598999798306676,0.27608361896193484,0.2358402296958538,708.6113121110335,373.0006394838874,578.5558238317292,jog
29.04841402337229,-1.0740387359549526,-1.0243297216388823,8.140050439159417,-0.3954447767372887,1.2525374009061663,0.2330027515791786,682.8288667454735,328.02102776906867,586.4512970473144,jog
29.09849749582638,-1.6652144904835762,-1.0935494826140588,7.970555968959966,0.5327460258899789,0.3580766303697525,0.032225332982263814,801.4997638139507,304.6135935752368,612.1739335942069,jog
29.148580968280466,-1.4777754750877836,-0.6388585792175596,9.511570263321962,0.9174256877193786,-0.11395024267992498,0.30483860730996165,677.630781404645,385.3002097914045,664.6917389227932,jog
29.198664440734557,0.15227180906757898,0.2297577400283351,10.500524657308892,-0.09793854974598146,0.8359295457657359,-0.33482832155690523,652.9210718216377,399.2146162899308,613.1890463621891,jog
29.248747913188648,1.3989813117958594,0.985680338190148,12.088240548865793,0.2317953751910448,1.4569035814455702,0.766834742203221,626.2686281458988,372.4878746082026,655.9500775780854,jog
29.29883138564274,2.096277315046227,1.0501774152686683,11.930981331452875,-0.08076727936439988,-0.17646369821434646,0.07860751689136392,611.6337634614422,417.9704876939955,615.637815318658,jog
29.34891485809683,1.4449238197350944,0.40547726573265697,10.754176102405575,-0.9881830450685376,-0.7972871548443455,-0.7053766891441765,674.4265162490032,345.80008617189094,584.8152502477626,jog
29.398998330550917,0.14826438071551484,-0.6810374986085754,9.033661452184797,-0.5955933725135877,-0.3177819788242404,-0.2834893088799698,634.7542492518812,385.05988430161756,731.4506564299526,jog
29.449081803005008,-1.1414068533161983,-1.2163858322572207,8.11106703677985,-0.21232439651224644,0.8806780376293148,-0.5240132570293282,641.0112192095128,365.44212268584045,669.2243366891685,jog
29.4991652754591,-1.6373644476868296,-0.6502040856493301,8.050392108847378,-0.6469058387367649,-0.15810034108450663,-0.22971571594018422,705.3835111548337,421.69316949869943,612.5453393246456,jog
29.54924874791319,-1.4372011702785552,-0.7430258385714008,9.31418580687058,-0.6365276163640942,-0.9896073916559067,-0.3442037204018207,606.117562083179,345.6046683514347,693.017842684259,jog
29.59933222036728,-0.10795040959700587,-0.05075295850122269,11.075322552229906,1.649335617552234,1.0641917446705231,-0.32351827663150273,650.4560121466151,377.41131135785224,566.5163361459277,jog
29.64941569282137,1.2309181987085345,1.0044119947065697,12.292045365269281,0.601868606182057,0.43524713436327317,-0.39544157258649587,708.5033693897873,385.2767699249134,616.6157272779842,jog
29.69949916527546,1.8278226792201708,1.0546210583010973,11.916995320021064,-0.9629069913479233,-0.44344075113452985,0.3629329086639052,726.5912336603691,381.94166113513654,606.145692144342,jog
29.74958263772955,1.1853821375098155,0.5877220795320337,10.484235299549827,0.03220062317601902,-0.41066440091530687,0.10493670281896761,608.9213495657423,402.3743569193965,663.8178084059372,jog
29.79966611018364,0.31803427651758087,-0.8509906570916781,8.613044573154125,-1.0524746283261968,-0.1381006008307327,-0.3236772584041111,655.2364770007141,447.6039123912177,634.2294178196969,jog
29.84974958263773,-1.230981881619142,-1.1094113788444346,7.8994367604964175,-0.44711874811455204,-1.072521164696577,-1.2271802531175084,696.0892820035799,395.01512777072145,586.5622362482072,jog
29.899833055091822,-1.8615425441794073,-1.1339863907999066,7.927548242766615,1.0393933345728161,-0.31820564670813206,-0.1300973140661695,671.906018686656,349.2132685779899,643.8085530933654,jog
29.94991652754591,-1.096347547644251,-0.8307040252618767,9.784482548071491,-0.4542641992673405,0.13668985994513413,0.8130776354111843,617.5224693215923,381.08708603571534,657.1820015942162,jog
30.0,0.10721964953860731,0.29260340255449907,10.962113573678895,0.11808081899669852,1.8050414043420042,1.2373256170421543,776.6970895925616,425.71117387674207,570.0522020457496,jog
