ax,ay,az,gx,gy,gz,mx,my,mz
-0.2910156,0.1450195,0.6931152,24.77099,6.435114,-6.030534,-130.64,-83.72,-16.56
-0.3371582,0.1162109,0.6547852,7.923664,9.534351,-18.61069,-130.64,-83.72,-16.56
-0.4104004,0.229248,0.8835449,-58.01527,-31.87023,-7.458015,-129.72,-81.88,-16.56
-0.5393066,0.2429199,0.8840332,-62.49618,-18.31298,-7.114504,-131.56,-72.68,-11.04
-0.6069336,0.2202148,0.8935547,-65.29771,-21.36641,15.00763,-131.56,-72.68,-11.04
-0.5437012,0.2355957,0.953125,-61.32061,-37.85496,31.67175,-131.56,-62.56,-5.52
-0.4875488,0.2980957,1.03418,-52.1145,-42.62595,22.43511,-131.56,-62.56,-5.52
-0.5078125,0.3618164,0.9272461,-45.74809,-29.69466,26.64122,-131.56,-62.56,-5.52
-0.5288086,0.369873,0.8183594,-58.1832,-22.26718,34.98473,-132.48,-51.52,-4.6
-0.5273438,0.3583984,0.8513184,-69.58015,-20.38931,48.22137,-132.48,-51.52,-4.6
-0.4868164,0.373291,0.9248047,-69.28244,-20.96183,27.65649,-132.48,-51.52,-4.6
-0.5217285,0.4465332,0.9025879,-67.85497,-15.8855,20.51145,-131.56,-39.56,-2.76
-0.5561523,0.4470215,0.9106445,-59.83206,-21.22901,37.84733,-131.56,-39.56,-2.76
-0.4790039,0.4824219,0.8981934,-53.43512,-23.35878,47.22137,-131.56,-39.56,-2.76
-0.3850098,0.5056152,0.8908691,-44.67176,-22.18321,32.69466,-130.64,-28.52,-0.92
-0.3793945,0.5168457,0.890625,-38.45038,-10.84733,5.854962,-130.64,-28.52,-0.92
-0.4660645,0.5297852,0.8725586,-32.45802,-4.648855,-9.824428,-128.8,-22.08,-0.92
-0.5163574,0.5410156,0.84375,-16.51908,-7.908397,-8.603053,-128.8,-22.08,-0.92
-0.5058594,0.5217285,0.8937988,-4.641222,-9.633588,-10.84733,-128.8,-22.08,-0.92
-0.5180664,0.503418,0.9052734,5.59542,4.335878,-18.31298,-127.88,-20.24,0.92
-0.5231934,0.458252,0.880127,16.45038,12.61069,-23.24427,-127.88,-20.24,0.92
-0.5375977,0.3925781,0.8752441,21.9771,15.03817,-12.96183,-127.88,-20.24,0.92
-0.5063477,0.3557129,0.8535156,30.45038,6.015267,-13.79389,-128.8,-22.08,0.92
-0.5175781,0.435791,0.8701172,27.54198,0.4732824,-2.916031,-128.8,-22.08,0.92
-0.4130859,0.3779297,0.9521484,37.71756,11.28244,-29.64886,-129.72,-25.76,0.0
-0.4787598,0.3886719,1.02832,38.0,20.80916,-28.34351,-129.72,-25.76,0.0
-0.4772949,0.3266602,1.036133,51.8168,29.45802,-33.19084,-129.72,-25.76,0.0
-0.480957,0.3530273,0.9953613,52.63359,31.74809,-24.29771,-131.56,-33.12,-1.84
-0.4333496,0.3134766,1.037842,50.59542,29.33588,-19.03817,-131.56,-33.12,-1.84
-0.4006348,0.2463379,1.04541,62.39695,32.62595,-20.29008,-131.56,-33.12,-1.84
-0.3796387,0.237793,0.949707,62.59542,30.44275,-22.74809,-132.48,-41.4,-3.68
-0.3674316,0.2446289,0.8752441,59.35115,34.91603,-30.83206,-132.48,-41.4,-3.68
-0.3850098,0.2160645,0.8791504,53.63359,37.25191,-41.32824,-133.4,-51.52,-5.52
-0.4438477,0.213623,0.8693848,48.64885,39.41221,-33.36641,-133.4,-51.52,-5.52
-0.4812012,0.2185059,0.8793945,48.40458,28.81679,-10.44275,-133.4,-51.52,-5.52
-0.4128418,0.2331543,0.8381348,43.69466,20.78626,3.519084,-132.48,-61.64,-4.6
-0.3632813,0.2214355,0.8017578,33.91603,20.54198,2.519084,-132.48,-61.64,-4.6
-0.4013672,0.2067871,0.7797852,32.38168,29.14504,-5.603054,-132.48,-61.64,-4.6
-0.4267578,0.213623,0.8024902,23.0458,24.48092,-12.50382,-132.48,-66.24,-7.36
-0.5024414,0.1914063,0.8039551,14.54198,10.9313,26.59542,-132.48,-66.24,-7.36
-0.4104004,0.199707,0.7651367,9.916031,1.763359,22.29771,-132.48,-69.0,-8.28
-0.3562012,0.1501465,0.7822266,6.648855,0.1526718,3.938931,-132.48,-69.0,-8.28
-0.385498,0.1467285,0.7609863,-2.763359,-1.480916,-6.015267,-132.48,-69.0,-8.28
-0.4396973,0.1452637,0.7807617,-15.68702,2.061069,4.396946,-132.48,-69.0,-9.2
-0.4741211,0.1179199,0.7907715,-19.87786,-6.534351,1.496183,-132.48,-69.0,-9.2
-0.4597168,0.1264648,0.7944336,-27.23664,-17.43511,7.145038,-132.48,-69.0,-9.2
-0.4506836,0.1418457,0.7697754,-34.87023,-19.61069,5.343512,-132.48,-65.32,-9.2
-0.442627,0.1186523,0.7797852,-49.57252,-14.41221,8.916031,-132.48,-65.32,-9.2
-0.4501953,0.1162109,0.829834,-57.10687,-21.41221,20.16031,-132.48,-57.96,-6.44
-0.4245605,0.1147461,0.8479004,-61.39695,-31.53435,34.0687,-132.48,-57.96,-6.44
-0.4064941,0.1691895,0.8261719,-67.54962,-37.51145,38.70992,-132.48,-57.96,-6.44
-0.3166504,0.1738281,0.8962402,-77.92367,-32.05344,27.14504,-134.32,-45.08,-4.6
-0.4536133,0.2089844,0.9074707,-85.51145,-26.29771,19.35878,-131.56,-33.12,0.0
-0.2871094,0.2072754,0.9082031,-97.1145,-27.72519,0.07633588,-131.56,-33.12,0.0
-0.2971191,0.1772461,1.009766,-98.41222,-27.08397,2.839695,-131.56,-33.12,0.0
-0.2678223,0.1943359,1.050781,-91.64886,-32.25954,-6.519084,-127.88,-20.24,3.68
-0.2937012,0.1816406,1.097656,-81.58015,-28.41221,-19.83969,-127.88,-20.24,3.68
-0.3278809,0.1916504,1.110107,-75.63359,-30.21374,-28.96183,-127.88,-20.24,3.68
-0.3994141,0.1799316,1.115723,-65.91603,-26.99237,-45.43512,-122.36,-11.96,8.28
-0.5024414,0.1540527,1.06543,-59.8855,-18.71756,-45.63359,-122.36,-11.96,8.28
-0.5515137,0.1218262,1.065674,-52.45038,-18.39695,-19.05343,-118.68,-6.44,10.12
-0.4724121,0.1594238,1.022949,-37.00763,-27.85496,-4.954198,-118.68,-6.44,10.12
-0.4038086,0.1674805,1.035889,-29.0,-21.76336,-8.312977,-118.68,-6.44,10.12
-0.439209,0.1679688,1.024902,-24.08397,-11.1145,-14.72519,-115.92,-1.84,10.12
-0.4726563,0.1599121,0.9890137,-10.48855,-11.1374,-4.038168,-115.92,-1.84,10.12
-0.4282227,0.1572266,0.9604492,-0.1984733,-9.114504,-5.885496,-115.92,-1.84,10.12
-0.4421387,0.1467285,0.979248,2.687023,4.419847,-18.38168,-115.92,0.0,9.2
-0.5441895,0.1179199,1.022949,12.61832,10.07634,-11.26718,-115.92,0.0,9.2
-0.5761719,0.1352539,1.014893,28.14504,6.78626,11.36641,-116.84,0.0,9.2
-0.5441895,0.1379395,1.051514,35.19847,9.374045,29.74046,-116.84,0.0,9.2
-0.5068359,0.1245117,1.084717,42.96947,19.91603,20.96947,-116.84,0.0,9.2
-0.5153809,0.03027344,1.102051,47.41985,34.66412,4.519084,-118.68,-1.84,7.36
-0.6362305,0.1071777,1.139893,61.61832,28.57252,31.26718,-118.68,-1.84,7.36
-0.4924316,0.192627,1.145264,69.12977,29.61832,47.87023,-118.68,-1.84,7.36
-0.3498535,0.182373,1.297363,75.64886,39.0,32.25954,-122.36,-5.52,4.6
-0.3225098,0.2192383,1.277832,91.8855,59.79389,10.1145,-122.36,-5.52,4.6
-0.3481445,0.1821289,1.213135,104.4504,64.06107,11.74809,-128.8,-14.72,2.76
-0.298584,0.1584473,1.179932,109.1069,56.33588,21.67939,-128.8,-14.72,2.76
-0.2075195,0.1154785,1.121826,117.3969,60.25191,17.69466,-128.8,-14.72,2.76
-0.1899414,0.1035156,0.9926758,114.6794,63.64885,5.625954,-134.32,-28.52,-1.84
-0.2336426,0.08203125,0.885498,105.7557,64.89313,6.839694,-134.32,-28.52,-1.84
-0.222168,0.05517578,0.822998,94.36641,56.35878,9.442748,-134.32,-28.52,-1.84
-0.1877441,0.04052734,0.8168945,80.25191,45.54198,11.32824,-137.08,-44.16,-8.28
-0.1589355,0.02172852,0.7844238,69.96947,38.22137,0.1603053,-137.08,-44.16,-8.28
-0.1948242,0.01464844,0.7177734,54.0458,28.51145,-6.755725,-138.0,-54.28,-12.88
-0.1984863,-0.03808594,0.6760254,37.32061,19.00763,-3.030534,-138.0,-54.28,-12.88
-0.2158203,-0.01220703,0.6149902,16.94657,5.587786,7.175572,-138.0,-54.28,-12.88
-0.2102051,-0.03295898,0.6376953,-7.938931,-2.10687,-7.145038,-138.0,-58.88,-14.72
-0.2143555,-0.07983398,0.7004395,-30.52672,-9.412213,-14.56489,-138.0,-58.88,-14.72
-0.2766113,-0.07397461,0.755127,-46.23664,-13.44275,-23.52672,-138.0,-58.88,-14.72
-0.3864746,-0.0847168,0.8129883,-58.96183,-26.37405,-5.648855,-138.0,-55.2,-10.12
-0.3208008,-0.01660156,0.8774414,-71.45038,-45.24427,12.14504,-138.0,-55.2,-10.12
-0.2265625,0.04736328,0.9619141,-75.67175,-52.80153,5.770992,-138.0,-45.08,-6.44
-0.1789551,0.08422852,1.037842,-82.10687,-48.89313,-19.29771,-138.0,-45.08,-6.44
-0.2734375,0.09106445,1.077881,-89.71756,-40.25954,-38.60305,-138.0,-45.08,-6.44
-0.3920898,0.1105957,1.127441,-88.56489,-43.45038,-20.74809,-134.32,-33.12,-0.92
-0.3659668,0.1276855,1.163818,-85.8855,-48.29008,-3.877863,-134.32,-33.12,-0.92
-0.5822754,0.1791992,1.204346,-87.41222,-59.9084,58.61832,-134.32,-33.12,-0.92
-0.411377,0.1455078,1.123535,-67.94656,-46.9542,18.74809,-129.72,-20.24,0.92
-0.4157715,0.1835938,1.110352,-66.229,-37.0229,3.435115,-129.72,-20.24,0.92
-0.4812012,0.1403809,1.096191,-67.41985,-22.51908,-12.27481,-129.72,-20.24,0.92
-0.5739746,0.154541,1.037598,-55.67939,-22.82443,-12.1145,-126.04,-10.12,0.92
-0.5327148,0.2043457,0.9716797,-59.06107,-27.0687,30.46565,-126.04,-10.12,0.92
-0.4111328,0.2270508,1.006348,-56.29008,-27.79389,34.01527,-122.36,-3.68,0.92
-0.4194336,0.2741699,1.019775,-35.09924,-6.664122,17.51145,-117.76,3.68,1.84
-0.4006348,0.2988281,0.987793,-18.0458,-11.9084,21.0458,-117.76,3.68,1.84
-0.3525391,0.3215332,0.9506836,-11.72519,-6.91603,13.0916,-117.76,3.68,1.84
-0.3791504,0.2963867,0.9616699,-5.51145,2.832061,-5.664122,-116.84,6.44,0.0
-0.4560547,0.2607422,0.9748535,5.801527,10.73282,-11.43511,-116.84,6.44,0.0
-0.5075684,0.2421875,0.967041,14.58779,18.76336,-1.015267,-116.84,6.44,0.0
-0.4870605,0.2504883,0.9387207,23.83206,22.44275,10.43511,-116.84,5.52,0.92
-0.4382324,0.2590332,0.958252,30.29771,19.84733,13.54198,-116.84,5.52,0.92
-0.3952637,0.2426758,1.008545,35.58779,24.64122,1.19084,-117.76,4.6,0.92
-0.4194336,0.2385254,1.029785,37.58015,33.32061,-8.503817,-117.76,4.6,0.92
-0.494873,0.3132324,1.114746,43.44275,30.66412,11.00763,-117.76,4.6,0.92
-0.4221191,0.2038574,1.202881,57.51908,34.38931,11.33588,-120.52,0.92,1.84
-0.3789063,0.1599121,1.265381,66.55725,39.74046,6.374046,-120.52,0.92,1.84
-0.3911133,0.1083984,1.249756,77.45802,51.59542,3.824427,-120.52,0.92,1.84
-0.427002,0.09838867,1.154297,83.90076,52.13741,17.34351,-125.12,-5.52,1.84
-0.362793,0.05371094,1.087402,89.17558,44.36641,29.53435,-125.12,-5.52,1.84
-0.2763672,0.07226563,1.026855,85.25954,41.26717,31.66412,-130.64,-14.72,0.0
-0.2421875,0.1022949,1.06665,79.99236,42.42748,19.58779,-130.64,-14.72,0.0
-0.2805176,0.04858398,1.05542,80.23664,48.9313,18.74046,-130.64,-14.72,0.0
-0.3234863,0.04956055,0.9768066,75.74046,45.0458,35.96183,-136.16,-23.92,-3.68
-0.2629395,0.01977539,0.916748,74.20611,32.9771,45.0687,-136.16,-23.92,-3.68
-0.1901855,0.0390625,0.8596191,66.9771,19.40458,43.59542,-136.16,-23.92,-3.68
-0.1379395,0.05810547,0.8139648,56.83969,15.54962,29.43511,-139.84,-31.28,-12.88
-0.1567383,0.06542969,0.7836914,41.38931,17.90076,11.50382,-139.84,-31.28,-12.88
-0.1831055,0.0637207,0.7634277,26.86259,16.63359,7.694656,-141.68,-35.88,-17.48
-0.192627,0.09814453,0.7573242,15.0916,0.648855,11.71756,-141.68,-35.88,-17.48
-0.1777344,0.09082031,0.737793,3.083969,-9.549619,1.251908,-141.68,-35.88,-17.48
-0.2199707,0.07592773,0.734375,-10.78626,-7.671756,-10.0916,-141.68,-35.88,-19.32
-0.2219238,0.0480957,0.7619629,-21.9542,-17.81679,-3.984733,-141.68,-35.88,-19.32
-0.1745605,0.1218262,0.7719727,-38.25954,-29.06107,9.893129,-141.68,-35.88,-19.32
-0.1694336,0.1281738,0.8745117,-47.09924,-30.94657,-20.71756,-141.68,-32.2,-17.48
-0.2790527,0.1362305,0.909668,-57.06107,-14.81679,-46.29771,-141.68,-32.2,-17.48
-0.4033203,0.09790039,0.9333496,-63.51145,-11.29008,-29.1145,-139.84,-26.68,-11.96
-0.4575195,0.08618164,0.9741211,-61.41985,-33.27481,-1.259542,-139.84,-26.68,-11.96
-0.380127,0.1159668,1.028809,-60.29008,-37.1832,-0.09160305,-139.84,-26.68,-11.96
-0.3637695,0.1569824,1.049561,-68.70992,-18.41985,-8.343512,-136.16,-17.48,-9.2
-0.3867188,0.166748,1.069824,-68.0458,-10.17557,-11.58015,-136.16,-17.48,-9.2
-0.4030762,0.1560059,1.052246,-69.28244,-5.458015,-20.59542,-136.16,-17.48,-9.2
-0.3625488,0.1647949,1.015869,-75.03053,2.534351,-24.84733,-130.64,-11.04,-4.6
-0.3688965,0.1560059,0.9995117,-75.25191,1.061069,-35.75573,-130.64,-11.04,-4.6
-0.3674316,0.1315918,1.008057,-72.0687,-4.564886,-40.63359,-126.04,-6.44,1.84
-0.342041,0.1223145,1.029297,-75.25954,-1.78626,-45.90076,-126.04,-6.44,1.84
-0.4553223,0.08374023,1.047607,-69.50381,2.51145,-50.41985,-126.04,-6.44,1.84
-0.5280762,0.1386719,1.009766,-52.63359,-29.0687,-18.35878,-120.52,-1.84,8.28
-0.3674316,0.1865234,1.013184,-48.51145,-29.43511,-7.045802,-120.52,-1.84,8.28
-0.3830566,0.1730957,1.019775,-47.35115,-8.923664,-21.83206,-120.52,-1.84,8.28
-0.4621582,0.1838379,0.9963379,-45.57252,-4.51145,-23.50382,-116.84,2.76,8.28
-0.4807129,0.1845703,1.023682,-32.98473,-16.68702,1.755725,-116.84,2.76,8.28
-0.3945313,0.2143555,1.026611,-17.72519,-21.85496,9.160305,-116.84,2.76,8.28
-0.3522949,0.2121582,0.9992676,-15.63359,-8.374045,-0.480916,-114.08,6.44,8.28
-0.4072266,0.1833496,1.009277,-10.67939,3.282443,-10.0,-114.08,6.44,8.28
-0.4455566,0.1569824,1.022705,4.389313,-0.5954198,-0.5725191,-113.16,8.28,8.28
-0.404541,0.1464844,1.027344,16.0,-0.6717557,4.732824,-113.16,8.28,8.28
-0.4267578,0.06030273,1.029053,27.61832,19.32061,-13.29771,-114.08,7.36,7.36
-0.4899902,0.05053711,1.00293,34.9542,14.05344,2.679389,-114.08,7.36,7.36
-0.4499512,0.04516602,0.979248,40.61832,15.0229,10.69466,-115.92,5.52,7.36
-0.4128418,0.05126953,1.029297,41.25191,17.70992,17.07634,-115.92,5.52,7.36
-0.3869629,0.0637207,1.076172,43.80916,21.76336,17.20611,-115.92,5.52,7.36
-0.4375,0.06689453,1.108887,49.0916,21.31298,24.45802,-120.52,2.76,4.6
-0.3964844,0.07885742,1.105469,58.54198,15.15267,38.51145,-120.52,2.76,4.6
-0.3486328,0.06445313,1.137451,60.29008,23.35114,41.16794,-125.12,0.0,1.84
-0.3452148,0.06201172,1.107178,64.72519,32.1832,32.64885,-125.12,0.0,1.84
-0.3557129,0.05151367,1.071777,71.85497,28.40458,46.33588,-125.12,0.0,1.84
-0.2990723,0.05859375,1.075195,73.9313,15.21374,62.42748,-130.64,-5.52,-2.76
-0.2287598,0.05322266,1.065918,75.0229,22.32061,55.98473,-130.64,-5.52,-2.76
-0.2055664,0.04492188,1.021484,72.15267,27.14504,46.27481,-130.64,-5.52,-2.76
-0.1706543,0.03564453,0.967041,73.1832,26.12977,29.81679,-136.16,-9.2,-9.2
-0.1743164,0.01806641,0.9216309,65.23664,27.51145,11.12977,-136.16,-9.2,-9.2
-0.208252,0.001708984,0.8688965,51.29008,32.8855,-3.038168,-140.76,-16.56,-14.72
-0.2229004,-0.01611328,0.8344727,37.29008,30.24427,-0.7709923,-140.76,-16.56,-14.72
-0.203125,-0.02514648,0.8112793,30.66412,19.50382,-9.633588,-140.76,-16.56,-14.72
-0.1982422,-0.0324707,0.8054199,16.93893,15.48092,-15.12977,-142.6,-22.08,-15.64
-0.2067871,-0.008056641,0.7861328,1.862595,15.03817,-16.93893,-142.6,-22.08,-15.64
-0.2302246,-0.01635742,0.7871094,-8.068703,5.030534,0.1526718,-142.6,-22.08,-15.64
-0.1469727,0.01879883,0.828125,-19.43511,-8.610687,4.091603,-140.76,-23.92,-12.88
-0.1325684,0.01635742,0.8884277,-30.29771,-7.229008,-18.86259,-140.76,-23.92,-12.88
-0.1728516,0.006103516,0.9128418,-35.41985,4.923664,-43.43512,-139.84,-22.08,-8.28
-0.2839355,0.02172852,0.9104004,-43.78626,8.709924,-41.38168,-139.84,-22.08,-8.28
-0.3088379,-0.008789063,0.9030762,-45.57252,-9.389313,-29.37405,-139.84,-22.08,-8.28
-0.2202148,-0.0144043,0.9182129,-53.0687,-28.9084,-13.34351,-136.16,-19.32,-1.84
-0.1525879,-0.01367188,0.9770508,-56.53435,-35.22137,-30.07634,-136.16,-19.32,-1.84
-0.2128906,-0.01928711,0.9958496,-63.01527,-20.39695,-75.08397,-136.16,-19.32,-1.84
-0.3322754,-0.03881836,1.008789,-76.14503,5.694656,-94.09924,-132.48,-12.88,0.92
-0.5141602,-0.03125,1.014648,-74.90076,-15.38168,-50.31298,-132.48,-12.88,0.92
-0.3571777,0.04223633,0.9995117,-66.85497,-50.9084,-11.22137,-126.04,-8.28,7.36
-0.2436523,0.1494141,1.034668,-64.19847,-49.37405,-18.53435,-126.04,-8.28,7.36
-0.3149414,0.02490234,1.065918,-69.90839,-30.79389,-35.35878,-126.04,-8.28,7.36
-0.3686523,0.04443359,1.053711,-68.10687,-35.70229,-21.45802,-120.52,0.0,7.36
-0.3081055,0.05126953,1.101807,-57.53435,-46.44275,-14.09924,-120.52,0.0,7.36
-0.3308105,0.04638672,1.057373,-53.01527,-37.9313,-27.43511,-120.52,0.0,7.36
-0.4367676,0.03955078,0.9958496,-52.1145,-27.16031,-23.21374,-115.92,6.44,5.52
-0.4648438,0.04394531,1.020264,-50.98473,-27.38168,2.259542,-115.92,6.44,5.52
-0.435791,0.06347656,1.054688,-41.9771,-28.46565,10.43511,-112.24,11.04,4.6
-0.4389648,0.08300781,1.066406,-33.41985,-21.16794,15.55725,-112.24,11.04,4.6
-0.4299316,0.08642578,1.041992,-20.15267,-18.12214,17.24427,-112.24,11.04,4.6
-0.3947754,0.09863281,1.039307,-14.72519,-10.64122,20.00763,-110.4,15.64,2.76
-0.3657227,0.1120605,1.073975,-7.053435,-2.572519,19.0,-110.4,15.64,2.76
-0.3718262,0.1013184,1.108887,4.114504,0.2748091,21.70229,-110.4,15.64,2.76
-0.3427734,0.08813477,1.103516,19.70229,6.129771,11.66412,-109.48,17.48,0.92
-0.3596191,0.06835938,1.087891,30.22137,13.21374,9.984733,-109.48,17.48,0.92
-0.3769531,0.06567383,1.065918,37.80153,15.71756,13.80153,-110.4,17.48,0.0
-0.3681641,0.07104492,1.075684,43.10687,21.40458,12.01527,-110.4,17.48,0.0
-0.376709,0.1040039,1.092285,50.91603,30.29008,7.351145,-110.4,17.48,0.0
-0.369873,0.05834961,1.13916,55.06107,25.90076,19.05343,-114.08,14.72,0.0
-0.359375,0.0625,1.203613,65.48092,33.76336,27.10687,-114.08,14.72,0.0
-0.3508301,-0.0168457,1.132813,83.28244,51.22901,35.80153,-118.68,10.12,-0.92
-0.3220215,-0.04345703,1.088867,89.51908,47.0458,41.70992,-118.68,10.12,-0.92
-0.2902832,-0.03515625,1.071777,86.82442,45.28244,36.57252,-125.12,2.76,-1.84
-0.3251953,0.0007324219,1.05957,85.46565,45.64885,42.90076,-125.12,2.76,-1.84
-0.2932129,-0.005859375,1.060547,85.59542,33.00763,51.0458,-125.12,2.76,-1.84
-0.2307129,0.015625,1.018066,84.49619,29.92366,53.80916,-131.56,-4.6,-5.52
-0.1696777,0.0222168,0.9829102,80.22137,33.96947,41.32061,-131.56,-4.6,-5.52
-0.1425781,0.02246094,0.9384766,72.59542,31.66412,31.00763,-137.08,-11.96,-11.96
-0.1027832,0.02661133,0.8935547,67.54198,28.72519,15.74046,-137.08,-11.96,-11.96
-0.1171875,0.02490234,0.8400879,52.39695,29.38931,7.114504,-137.08,-11.96,-11.96
-0.1315918,-0.006103516,0.7880859,42.10687,22.98473,0.3053435,-140.76,-19.32,-16.56
-0.1516113,-0.001464844,0.7575684,29.65649,12.56489,5.687023,-140.76,-19.32,-16.56
-0.1469727,0.004638672,0.723877,16.70229,2.267176,-0.3969466,-140.76,-19.32,-16.56
-0.125,0.02490234,0.7507324,0.129771,-8.175572,5.496183,-141.68,-23.0,-18.4
-0.09765625,0.04199219,0.7631836,-12.83206,-20.47328,4.992366,-141.68,-23.0,-18.4
-0.1291504,0.02832031,0.8388672,-25.80916,-25.0916,-6.206107,-141.68,-21.16,-18.4
-0.2348633,0.09228516,0.8920898,-36.25191,-27.8855,2.244275,-141.68,-21.16,-18.4
-0.3261719,0.09863281,0.9616699,-27.67175,-36.73283,21.77099,-141.68,-21.16,-18.4
-0.2382813,0.05419922,0.9304199,-26.77099,-54.0229,43.53435,-139.84,-14.72,-19.32
-0.1052246,0.09277344,0.9155273,-36.46565,-58.53435,40.0458,-139.84,-14.72,-19.32
-0.1254883,0.105957,0.984375,-46.75573,-38.98473,2.129771,-139.84,-14.72,-19.32
-0.2519531,0.1323242,1.028564,-59.80153,-13.25954,-5.21374,-138.0,-4.6,-23.92
-0.2731934,0.1188965,1.055664,-54.30534,-28.44275,23.54198,-138.0,-4.6,-23.92
-0.1318359,0.177002,1.023926,-51.51145,-44.52672,29.80916,-133.4,3.68,-24.84
-0.09375,0.1843262,1.071533,-56.79389,-32.96947,-9.641221,-133.4,3.68,-24.84
-0.1577148,0.1276855,1.060059,-65.36641,-9.083969,-32.35878,-133.4,3.68,-24.84
-0.2060547,0.1096191,1.024658,-76.80153,6.763359,-30.31298,-128.8,9.2,-23.92
-0.159668,0.1020508,1.021973,-76.72519,-8.770992,-15.41985,-128.8,9.2,-23.92
-0.04248047,0.1269531,1.035645,-76.0229,-28.72519,-15.0,-128.8,9.2,-23.92
-0.01904297,0.1469727,1.098389,-79.29008,-16.64886,-47.77863,-123.28,14.72,-19.32
-0.3256836,0.1071777,1.087646,-96.42748,29.65649,-35.16031,-123.28,14.72,-19.32
-0.6257324,0.05249023,1.405029,-82.90076,9.519084,-37.51145,-117.76,16.56,-13.8
-0.4211426,0.09838867,1.054688,-52.64885,-20.19847,-13.92366,-117.76,16.56,-13.8
-0.2426758,0.1333008,1.086426,-36.51145,-24.12214,-34.60305,-117.76,16.56,-13.8
-0.4365234,0.1916504,1.009521,-44.31298,0.5267176,-18.9771,-114.08,20.24,-12.88
-0.4272461,0.1743164,1.029541,-40.75573,-1.78626,3.099237,-114.08,20.24,-12.88
-0.3691406,0.2155762,1.049805,-32.1145,-9.236641,17.23664,-114.08,20.24,-12.88
-0.310791,0.2150879,1.056152,-21.79389,-1.679389,7.053435,-110.4,23.0,-11.96
-0.3405762,0.1987305,1.099609,-15.48855,8.091603,7.053435,-110.4,23.0,-11.96
-0.3513184,0.2011719,1.133789,-0.5954198,-2.534351,21.60305,-108.56,25.76,-11.96
-0.2619629,0.2038574,1.141113,17.44275,1.229008,17.10687,-108.56,25.76,-11.96
-0.2414551,0.1750488,1.163818,26.74046,13.9771,0.3587786,-108.56,25.76,-11.96
-0.2543945,0.1738281,1.168701,38.71756,16.0229,-3.671756,-109.48,25.76,-11.96
-0.2038574,0.1179199,1.156494,45.83206,17.8855,-5.816794,-109.48,25.76,-11.96
-0.2956543,0.1054688,1.174072,57.38168,15.65649,4.877862,-109.48,25.76,-11.96
-0.2592773,0.1313477,1.0896,65.92367,0.610687,36.39695,-113.16,23.0,-11.96
-0.1184082,0.09814453,1.155762,65.75572,7.946565,12.83206,-113.16,23.0,-11.96
-0.1166992,0.05932617,1.183105,59.38931,47.16031,-23.10687,-118.68,21.16,-14.72
-0.309082,-0.01342773,1.21582,65.48092,47.87786,-1.732824,-118.68,21.16,-14.72
-0.3181152,-0.08496094,1.195068,84.0229,14.94656,36.83969,-118.68,21.16,-14.72
-0.1364746,-0.08374023,1.13501,87.41985,2.358779,53.32824,-126.04,15.64,-15.64
-0.009277344,-0.1113281,1.210938,79.80916,14.12977,45.89313,-126.04,15.64,-15.64
0.05395508,-0.1567383,0.9291992,90.37405,18.71756,13.16031,-133.4,10.12,-22.08
-0.01538086,-0.2075195,0.8388672,72.59542,30.35114,-5.015267,-133.4,10.12,-22.08
-0.06811523,-0.2143555,0.7426758,46.41985,30.1145,-7.007634,-138.92,1.84,-27.6
-0.09082031,-0.2255859,0.7124023,24.23664,20.24427,-9.480916,-138.92,1.84,-27.6
-0.08227539,-0.2033691,0.7150879,4.656488,13.03053,-7.656488,-138.92,1.84,-27.6
-0.1123047,-0.1933594,0.7687988,-13.1374,-0.2824428,-0.6717557,-140.76,-2.76,-28.52
-0.130127,-0.1584473,0.8120117,-29.01527,-7.793893,10.01527,-140.76,-2.76,-28.52
-0.1230469,-0.1320801,0.8662109,-37.20611,-15.15267,15.51145,-139.84,0.0,-25.76
-0.1169434,-0.1044922,0.9572754,-46.28244,-26.65649,27.56489,-139.84,0.0,-25.76
-0.08056641,-0.07006836,1.004883,-48.91603,-37.48855,42.0687,-139.84,0.0,-25.76
-0.03393555,-0.04858398,1.028076,-48.63359,-45.46565,47.28244,-136.16,8.28,-26.68
0.0004882813,-0.06298828,1.034424,-50.9084,-47.16794,41.0,-136.16,8.28,-26.68
-0.03515625,-0.007080078,0.9880371,-52.21374,-45.98473,32.89313,-136.16,8.28,-26.68
-0.01513672,0.01147461,0.9899902,-60.21374,-46.22137,29.83969,-129.72,18.4,-30.36
-0.03857422,0.05126953,1.036621,-70.23664,-44.87023,13.40458,-129.72,18.4,-30.36
-0.1655273,0.07836914,1.117676,-71.51908,-28.9313,29.05343,-121.44,27.6,-33.12
-0.1884766,0.06469727,1.080078,-67.26717,-30.14504,48.80916,-121.44,27.6,-33.12
-0.07275391,0.1179199,1.049316,-68.47328,-31.35878,60.55725,-121.44,27.6,-33.12
-0.01318359,0.1501465,1.120605,-67.74046,-42.08397,37.12214,-112.24,36.8,-36.8
-0.002441406,0.1645508,1.121338,-61.41985,-32.29008,20.22137,-112.24,36.8,-36.8
0.02490234,0.1679688,1.077637,-63.19084,-11.41985,16.64886,-112.24,36.8,-36.8
0.08227539,0.1958008,1.05542,-72.21374,12.57252,0.09160305,-103.96,43.24,-37.72
0.04516602,0.1789551,1.099854,-68.78626,21.84733,-16.29771,-103.96,43.24,-37.72
0.001708984,0.1804199,1.131348,-58.20611,10.84733,-12.8855,-98.44,45.08,-34.04
0.09521484,0.2126465,1.152344,-48.35878,12.96183,-24.77099,-98.44,45.08,-34.04
-0.05566406,0.1933594,1.195068,-38.16031,28.9084,-32.32061,-98.44,45.08,-34.04
-0.1179199,0.1542969,1.168701,-25.22901,33.17557,-33.83969,-95.68,46.92,-32.2
-0.1508789,0.1242676,1.185059,-12.61069,29.55725,-19.55725,-95.68,46.92,-32.2
-0.1369629,0.1281738,1.162842,9.961832,19.9771,-12.20611,-95.68,46.92,-32.2
-0.09838867,0.1159668,1.165283,21.16031,21.43511,-17.0229,-96.6,45.08,-29.44
-0.1230469,0.1040039,1.155762,28.52672,35.23664,-25.67175,-96.6,45.08,-29.44
-0.197998,0.08837891,1.180176,39.17557,37.85496,-20.62595,-99.36,42.32,-25.76
-0.2233887,0.07250977,1.207764,55.20611,36.58779,-13.84733,-99.36,42.32,-25.76
-0.2089844,0.06005859,1.193359,64.68702,44.31298,-2.175573,-99.36,42.32,-25.76
-0.1777344,0.03515625,1.189941,73.26717,45.43512,2.206107,-104.88,38.64,-22.08
-0.1679688,0.02661133,1.182129,80.14503,40.0687,-1.10687,-104.88,38.64,-22.08
-0.1311035,-0.005615234,1.200439,86.46565,40.90076,7.625954,-104.88,38.64,-22.08
-0.06884766,-0.009033203,1.179443,90.8855,40.45802,10.12214,-113.16,32.2,-20.24
-0.04663086,-0.04614258,1.138672,98.25191,41.9542,1.198473,-113.16,32.2,-20.24
-0.03686523,-0.05834961,1.064209,94.37405,42.70992,2.572519,-122.36,23.92,-20.24
-0.04443359,-0.08422852,1.034912,89.89313,38.20611,5.633588,-122.36,23.92,-20.24
-0.02172852,-0.08886719,0.9726563,87.21374,28.64122,3.412214,-122.36,23.92,-20.24
0.001953125,-0.08959961,0.9174805,78.67175,29.9542,-0.8625955,-129.72,14.72,-21.16
-0.006591797,-0.09375,0.8481445,66.24428,33.06107,-4.763359,-129.72,14.72,-21.16
-0.02148438,-0.1230469,0.8374023,51.75573,20.63359,-8.427481,-129.72,14.72,-21.16
-0.01806641,-0.1237793,0.7932129,35.53435,18.43511,-14.22137,-135.24,6.44,-23.92
-0.02148438,-0.1455078,0.7687988,20.12214,8.244275,-17.9084,-135.24,6.44,-23.92
-0.03491211,-0.1472168,0.7329102,2.022901,-1.389313,-27.71756,-135.24,6.44,-23.92
-0.05834961,-0.168457,0.7714844,-16.10687,2.244275,-32.25191,-137.08,1.84,-24.84
-0.1142578,-0.1704102,0.8041992,-35.07634,1.412214,-37.89313,-137.08,1.84,-24.84
-0.2026367,-0.1599121,0.8425293,-45.41221,-12.98473,-25.22137,-137.08,2.76,-21.16
-0.05151367,-0.1347656,1.007568,-73.86259,-31.00763,-9.916031,-132.48,9.2,-20.24
-0.09545898,-0.09350586,1.067627,-76.03817,-20.99237,-40.0458,-132.48,9.2,-20.24
-0.1542969,-0.1186523,1.097412,-80.83206,7.374046,-52.64122,-132.48,9.2,-20.24
-0.2446289,-0.1179199,1.08252,-83.29008,4.664122,-38.82443,-126.04,14.72,-14.72
-0.1816406,-0.1157227,1.134033,-83.9542,-19.48092,-15.35114,-126.04,14.72,-14.72
-0.07348633,-0.09521484,1.185547,-75.83206,-31.47328,-22.20611,-126.04,14.72,-14.72
-0.09155273,-0.08666992,1.139893,-68.771,-16.35878,-56.63359,-118.68,21.16,-11.96
-0.1694336,-0.1279297,1.085693,-73.75572,10.83206,-59.07634,-118.68,21.16,-11.96
-0.2585449,-0.1154785,1.066406,-77.17558,4.725191,-52.60305,-113.16,23.0,-9.2
-0.2800293,-0.1320801,1.162354,-70.70992,-9.946565,-54.40458,-113.16,23.0,-9.2
-0.3979492,-0.109375,1.119629,-61.22137,-11.19847,-34.22901,-113.16,23.0,-9.2
-0.3937988,-0.07641602,1.046875,-55.51908,-20.34351,0.7099237,-108.56,24.84,-7.36
-0.3015137,-0.01416016,1.035645,-49.69466,-29.12977,24.15267,-108.56,24.84,-7.36
-0.2006836,0.02246094,1.076416,-40.69466,-30.41221,15.78626,-108.56,24.84,-7.36
-0.1706543,0.1005859,1.05957,-42.19847,-7.526718,-4.694656,-103.96,29.44,-10.12
-0.2822266,0.1000977,1.106445,-36.29008,2.755725,-22.91603,-103.96,29.44,-10.12
-0.3830566,0.1062012,1.13208,-20.36641,7.641222,-17.80153,-101.2,32.2,-9.2
-0.3967285,0.1179199,1.143311,-4.977099,0.4427481,2.473282,-101.2,32.2,-9.2
-0.3579102,0.1240234,1.174316,12.56489,6.824428,5.48855,-101.2,32.2,-9.2
-0.3239746,0.1191406,1.189209,27.83206,18.85496,3.870229,-101.2,32.2,-9.2
-0.2998047,0.09033203,1.18335,42.69466,28.45802,-2.343511,-101.2,32.2,-9.2
-0.348877,0.03979492,1.173096,54.68702,40.90076,-6.137404,-101.2,32.2,-9.2
-0.3659668,0.0078125,1.163086,64.91603,39.90076,13.9542,-103.04,29.44,-7.36
-0.2893066,-0.0222168,1.175293,75.16031,40.1832,25.64886,-103.04,29.44,-7.36
-0.2797852,-0.007568359,1.20874,88.19847,43.99237,24.9542,-107.64,24.84,-5.52
-0.2456055,-0.08984375,1.181396,93.0,46.41221,26.00763,-107.64,24.84,-5.52
-0.2314453,-0.1335449,1.183105,93.03817,44.0,36.03817,-107.64,24.84,-5.52
-0.2519531,-0.1230469,1.148438,97.85497,32.0,47.31298,-115.92,19.32,-3.68
-0.2409668,-0.1567383,1.130371,98.19847,32.06107,61.35115,-115.92,19.32,-3.68
-0.168457,-0.1516113,1.102539,97.70992,22.26718,73.85497,-115.92,19.32,-3.68
-0.0300293,-0.1342773,1.097168,98.37405,13.42748,72.30534,-124.2,13.8,-7.36
-0.009521484,-0.1262207,1.056396,95.09924,15.82443,40.9542,-124.2,13.8,-7.36
-0.09106445,-0.1889648,1.0,88.51908,24.68702,26.12214,-132.48,7.36,-13.8
-0.08569336,-0.2250977,0.9416504,78.9313,20.57252,25.24427,-132.48,7.36,-13.8
-0.03417969,-0.2131348,0.8942871,70.35878,10.80916,17.21374,-132.48,7.36,-13.8
-0.01025391,-0.2116699,0.8425293,56.1832,6.38168,4.992366,-138.0,0.0,-21.16
-0.006347656,-0.2272949,0.7973633,40.36641,4.541985,-13.44275,-138.0,0.0,-21.16
-0.046875,-0.2453613,0.7426758,20.51145,2.442748,-23.74046,-138.0,0.0,-21.16
-0.09106445,-0.2529297,0.7092285,-2.274809,-4.740458,-24.12977,-139.84,-4.6,-23.92
-0.1298828,-0.2563477,0.7165527,-28.35114,-8.839695,-25.75573,-139.84,-4.6,-23.92
-0.1809082,-0.2619629,0.7580566,-47.39695,-9.900764,-21.26718,-138.92,-3.68,-23.0
-0.2126465,-0.2387695,0.800293,-65.84733,-20.69466,-1.847328,-138.92,-3.68,-23.0
-0.1054688,-0.1901855,0.8505859,-81.54962,-33.66412,22.47328,-138.92,-3.68,-23.0
-0.01049805,-0.1645508,0.982666,-94.16794,-46.19847,11.0229,-134.32,5.52,-20.24
-0.06494141,-0.1445313,1.019043,-98.10687,-41.42748,-19.94657,-134.32,5.52,-20.24
-0.1535645,-0.1499023,1.057373,-109.9313,-30.28244,-17.42748,-134.32,5.52,-20.24
-0.1296387,-0.09155273,1.098877,-112.2901,-40.41985,-3.0,-125.12,16.56,-18.4
-0.0715332,-0.0324707,1.208252,-112.8473,-43.16031,-4.480916,-125.12,16.56,-18.4
-0.1662598,-0.0300293,1.250488,-104.5115,-26.50382,-29.90076,-125.12,16.56,-18.4
-0.2561035,-0.03588867,1.218994,-100.2672,-18.90076,-28.99237,-115.0,26.68,-16.56
-0.2565918,-0.02368164,1.201416,-95.23664,-20.75573,-18.25954,-115.0,26.68,-16.56
-0.2080078,-0.00390625,1.236084,-87.08397,-28.9313,-5.725191,-106.72,32.2,-15.64
-0.2302246,0.008789063,1.133057,-63.0458,-2.938931,-25.34351,-100.28,35.88,-17.48
-0.2402344,0.007324219,1.135498,-51.91603,-1.664122,-24.0,-100.28,35.88,-17.48
-0.293457,0.02783203,1.115479,-38.33588,-0.8549618,-17.64122,-100.28,35.88,-17.48
-0.2668457,0.06860352,1.109375,-27.18321,-3.832061,-2.801527,-97.52,37.72,-16.56
-0.2431641,0.1049805,1.123291,-15.73282,3.022901,1.381679,-97.52,37.72,-16.56
-0.2431641,0.09960938,1.150635,1.19084,5.564886,8.274809,-97.52,37.72,-16.56
-0.2133789,0.1142578,1.172119,17.32825,8.816793,15.53435,-96.6,39.56,-16.56
-0.1606445,0.1123047,1.179688,28.18321,13.55725,12.67176,-96.6,39.56,-16.56
-0.130127,0.09082031,1.209961,47.38168,21.17557,-4.503817,-96.6,38.64,-16.56
-0.1914063,0.0378418,1.201172,60.75573,34.41221,-8.862596,-96.6,38.64,-16.56
-0.2268066,-0.02050781,1.20752,71.87786,36.80153,-12.99237,-96.6,38.64,-16.56
-0.2802734,-0.0769043,1.216553,83.9771,43.66412,-11.00763,-102.12,34.96,-14.72
-0.3242188,-0.1083984,1.214355,90.24428,41.73283,9.770992,-102.12,34.96,-14.72
-0.3413086,-0.1479492,1.328369,98.62595,36.58015,31.23664,-102.12,34.96,-14.72
-0.2468262,-0.2111816,1.266113,105.1985,44.90076,44.80153,-110.4,28.52,-11.96
-0.2250977,-0.1987305,1.25415,112.1908,33.46565,56.70992,-110.4,28.52,-11.96
-0.1396484,-0.1711426,1.20459,123.6107,24.70992,67.12977,-118.68,23.0,-13.8
-0.0480957,-0.1730957,1.164551,123.8015,22.98473,56.70229,-118.68,23.0,-13.8
-0.05444336,-0.1672363,1.071777,116.9847,27.59542,46.87023,-118.68,23.0,-13.8
-0.03344727,-0.1875,1.019287,113.4504,23.70992,40.12214,-128.8,14.72,-19.32
0.0,-0.1730957,0.9648438,104.313,18.26718,31.0,-128.8,14.72,-19.32
-0.006347656,-0.173584,0.8793945,91.25191,18.13741,17.78626,-128.8,14.72,-19.32
-0.008056641,-0.1696777,0.8154297,76.86259,15.8626,6.664122,-136.16,5.52,-27.6
-0.0002441406,-0.1728516,0.7651367,57.54198,5.961832,-1.381679,-136.16,5.52,-27.6
0.01953125,-0.1635742,0.7329102,38.44275,-3.839695,-19.58779,-140.76,-0.92,-33.12
-0.003662109,-0.1567383,0.7099609,18.46565,0.9923664,-19.90076,-140.76,-0.92,-33.12
-0.06542969,-0.1647949,0.6828613,-2.854962,2.129771,-18.61832,-140.76,-0.92,-33.12
-0.09741211,-0.1733398,0.6955566,-25.47328,-5.358778,-13.29771,-140.76,-3.68,-33.12
-0.1098633,-0.177002,0.7216797,-45.9771,-11.99237,-4.48855,-140.76,-3.68,-33.12
-0.09057617,-0.1806641,0.744873,-65.41222,-19.70229,-2.496183,-140.76,-3.68,-33.12
-0.05224609,-0.1716309,0.8564453,-85.70992,-23.24427,0.129771,-138.92,0.92,-29.44
-0.05297852,-0.152832,0.934082,-99.48092,-28.85496,-13.1374,-138.92,0.92,-29.44
-0.1193848,-0.1623535,0.989502,-107.458,-25.0458,-17.03053,-131.56,11.04,-23.92
-0.145752,-0.1469727,1.047852,-112.3969,-33.79389,5.51145,-131.56,11.04,-23.92
-0.08764648,-0.09350586,1.137451,-114.6947,-42.37405,13.61069,-131.56,11.04,-23.92
-0.123291,-0.08569336,1.171143,-114.3206,-32.22901,-4.08397,-121.44,23.92,-22.08
-0.1547852,-0.09301758,1.200195,-119.8015,-18.58779,-2.312977,-121.44,23.92,-22.08
-0.1315918,-0.05371094,1.199463,-116.4733,-21.59542,3.916031,-121.44,23.92,-22.08
-0.0637207,-0.02490234,1.236572,-112.7481,-27.51908,6.740458,-110.4,33.12,-19.32
-0.003417969,0.006347656,1.309082,-102.5267,-34.45038,-5.587786,-110.4,33.12,-19.32
-0.009033203,0.03222656,1.274658,-85.74809,-26.70992,-33.45802,-110.4,33.12,-20.24
-0.1057129,0.02758789,1.250244,-76.41985,-15.24428,-45.24427,-100.28,40.48,-20.24
-0.215332,-0.003662109,1.240234,-60.71756,-9.824428,-46.01527,-100.28,40.48,-20.24
-0.2734375,-0.0004882813,1.204834,-37.40458,-10.94656,-28.12977,-96.6,42.32,-21.16
-0.2565918,0.01782227,1.166016,-25.59542,-9.717557,-9.984733,-96.6,42.32,-21.16
-0.2214355,0.01611328,1.13208,-12.89313,-2.122137,7.51145,-96.6,42.32,-21.16
-0.1696777,0.03320313,1.118408,-2.641221,1.259542,12.58779,-94.76,43.24,-23.92
-0.1484375,0.04516602,1.142578,8.870229,3.450382,5.229008,-94.76,43.24,-23.92
-0.1391602,0.02807617,1.134033,20.10687,11.53435,-0.1908397,-94.76,43.24,-23.92
-0.1486816,0.01879883,1.118164,30.08397,20.29771,-1.427481,-94.76,44.16,-23.92
-0.144043,0.006103516,1.141113,40.0687,23.38168,-1.038168,-94.76,44.16,-23.92
-0.1418457,-0.03759766,1.204834,69.32825,28.26718,-1.541985,-97.52,42.32,-22.08
-0.1245117,-0.05102539,1.21582,81.63359,30.54962,2.458015,-103.04,38.64,-20.24
-0.128418,-0.05883789,1.212646,90.09924,34.22901,2.717557,-103.04,38.64,-20.24
-0.1420898,-0.09448242,1.232666,98.58778,32.73283,10.15267,-103.04,38.64,-20.24
-0.1464844,-0.111084,1.237305,109.3435,35.26717,7.984733,-111.32,33.12,-19.32
-0.157959,-0.1518555,1.175537,112.4046,45.61832,11.48855,-111.32,33.12,-19.32
-0.1540527,-0.2045898,1.127441,110.2519,45.9313,24.53435,-111.32,33.12,-19.32
-0.08447266,-0.2185059,1.067139,110.0458,34.0687,32.74046,-121.44,23.92,-19.32
-0.002929688,-0.1779785,1.008789,106.4351,27.71756,18.55725,-121.44,23.92,-19.32
0.02783203,-0.1999512,0.9360352,93.08397,38.60305,3.541985,-130.64,14.72,-23.92
0.004394531,-0.2058105,0.8696289,76.86259,39.34351,-2.435115,-130.64,14.72,-23.92
0.003662109,-0.1914063,0.8325195,62.60305,32.39695,-2.274809,-130.64,14.72,-23.92
0.02026367,-0.1901855,0.7946777,45.61069,26.39695,-6.267176,-136.16,5.52,-24.84
0.02026367,-0.2150879,0.7685547,28.83206,24.48855,-9.389313,-136.16,5.52,-24.84
0.02929688,-0.2126465,0.734375,13.9313,17.98473,-8.641221,-136.16,5.52,-24.84
0.03637695,-0.2001953,0.723877,-4.122138,6.648855,-10.0458,-138.92,0.0,-24.84
-0.004394531,-0.197998,0.7456055,-22.05343,-5.480916,-18.69466,-138.92,0.0,-24.84
-0.09130859,-0.2165527,0.7563477,-36.0229,-8.21374,-18.38168,-138.0,0.92,-23.92
-0.151123,-0.204834,0.7800293,-56.96947,-16.87786,-0.610687,-138.0,0.92,-23.92
-0.1340332,-0.2021484,0.8701172,-68.94656,-35.9771,19.45038,-138.0,0.92,-23.92
-0.1022949,-0.161377,0.9326172,-78.82442,-38.51145,31.1145,-133.4,9.2,-22.08
-0.1369629,-0.1494141,1.037598,-83.59542,-37.20611,37.53435,-133.4,9.2,-22.08
-0.1352539,-0.1257324,1.090576,-87.35878,-37.48855,34.0229,-133.4,9.2,-22.08
-0.1005859,-0.09008789,1.125244,-87.06107,-38.61832,30.19847,-125.12,22.08,-23.0
-0.06201172,-0.04785156,1.13916,-86.229,-39.37405,26.0458,-125.12,22.08,-23.0
-0.04736328,-0.02368164,1.13623,-87.05344,-29.33588,25.86259,-115.0,33.12,-23.92
0.008789063,-0.02246094,1.123535,-89.07633,-24.0458,12.05344,-115.0,33.12,-23.92
0.004882813,-0.007568359,1.166016,-89.31298,-21.90076,-9.816793,-115.0,33.12,-23.92
-0.07666016,0.03735352,1.137207,-83.19084,-11.70229,-19.78626,-105.8,39.56,-23.92
-0.1452637,0.03198242,1.158203,-77.90076,-12.16794,-4.473282,-105.8,39.56,-23.92
-0.1362305,0.0769043,1.217529,-64.1832,-17.72519,7.366412,-105.8,39.56,-23.92
-0.1477051,0.1035156,1.236572,-52.1832,-10.76336,2.450382,-97.52,44.16,-24.84
-0.177002,0.1152344,1.23999,-36.87786,-5.114504,3.725191,-97.52,44.16,-24.84
-0.1608887,0.1230469,1.232178,-16.58779,-6.526718,6.648855,-92.92,46.92,-25.76
-0.1164551,0.1208496,1.206543,-4.80916,2.244275,1.824428,-92.92,46.92,-25.76
-0.1206055,0.1030273,1.205566,4.938931,12.47328,-5.587786,-92.92,46.92,-25.76
-0.1303711,0.07836914,1.208008,18.26718,16.19084,-11.29771,-92.92,46.92,-24.84
-0.1293945,0.04248047,1.200439,34.92366,18.71756,-16.23664,-92.92,46.92,-24.84
-0.1416016,0.03369141,1.166992,42.90076,26.80153,-18.0916,-92.92,46.92,-24.84
-0.1550293,0.002441406,1.164063,51.43512,31.12977,-15.32824,-96.6,45.08,-23.0
-0.1352539,-0.01586914,1.188721,60.86259,30.96947,-16.71756,-96.6,45.08,-23.0
-0.1445313,-0.04907227,1.189209,66.0458,38.38931,-24.16794,-96.6,45.08,-23.0
-0.1679688,-0.1008301,1.209717,72.9542,49.10687,-19.57252,-103.04,41.4,-21.16
-0.2001953,-0.1577148,1.203125,83.16031,46.80916,-9.763359,-103.04,41.4,-21.16
-0.1843262,-0.1696777,1.165771,90.09161,45.0916,9.564885,-111.32,34.04,-17.48
-0.08569336,-0.1862793,1.155762,94.82442,37.68702,18.18321,-111.32,34.04,-17.48
-0.05151367,-0.1748047,1.101318,97.40458,33.67939,9.366412,-111.32,34.04,-17.48
-0.07543945,-0.1928711,1.019287,96.85497,39.01527,11.83969,-120.52,26.68,-16.56
-0.05224609,-0.2060547,0.9853516,92.61832,25.56489,18.45802,-120.52,26.68,-16.56
-0.02026367,-0.1989746,0.9448242,88.13741,21.49618,17.14504,-120.52,26.68,-16.56
-0.01147461,-0.192627,0.8920898,78.41222,16.54198,17.61069,-129.72,17.48,-20.24
0.04614258,-0.1645508,0.7692871,47.53435,-0.7709923,13.83969,-135.24,11.04,-25.76
0.06616211,-0.1577148,0.7351074,27.0916,-2.282443,4.89313,-135.24,11.04,-25.76
0.04125977,-0.1486816,0.7302246,3.503817,3.381679,-9.832061,-137.08,8.28,-29.44
-0.04711914,-0.1665039,0.7526855,-15.43511,-3.679389,-11.47328,-137.08,8.28,-29.44
-0.07348633,-0.1376953,0.7819824,-28.26718,-17.17557,2.603053,-137.08,8.28,-29.44
-0.09716797,-0.1352539,0.8569336,-40.86259,-26.45802,14.22901,-135.24,10.12,-29.44
-0.121582,-0.1462402,0.8742676,-48.70992,-29.68702,22.16794,-135.24,10.12,-29.44
-0.09106445,-0.1357422,0.9187012,-58.72519,-27.63359,43.07634,-135.24,10.12,-29.44
-0.001220703,-0.1237793,0.9587402,-67.83206,-39.29008,52.47328,-129.72,19.32,-30.36
0.1135254,-0.08959961,0.9799805,-80.86259,-38.23664,40.0916,-129.72,19.32,-30.36
0.1350098,-0.07177734,1.062256,-94.06107,-21.81679,1.541985,-120.52,30.36,-32.2
-0.008789063,-0.09472656,1.137939,-100.4198,-8.21374,-25.91603,-120.52,30.36,-32.2
-0.1599121,-0.1013184,1.126465,-100.4122,-9.938931,-12.45802,-120.52,30.36,-32.2
-0.1140137,-0.104248,1.143799,-93.64886,-21.72519,9.38168,-111.32,35.88,-29.44
0.007080078,-0.05224609,1.187256,-95.9542,-23.92366,5.992366,-111.32,35.88,-29.44
0.005371094,-0.02197266,1.243896,-89.09161,-11.58015,-25.15267,-111.32,35.88,-29.44
-0.08129883,0.001953125,1.173096,-85.8855,8.19084,-34.51145,-102.12,42.32,-28.52
-0.1437988,-0.003173828,1.164307,-76.83206,-2.381679,-26.71756,-102.12,42.32,-28.52
-0.137207,0.02954102,1.174805,-61.41221,-23.57252,-11.43511,-96.6,44.16,-28.52
-0.1376953,0.09545898,1.176758,-57.03053,-9.770992,-16.07634,-96.6,44.16,-28.52
-0.2023926,0.1140137,1.187012,-46.12977,8.580153,-13.1374,-96.6,44.16,-28.52
-0.2373047,0.1228027,1.197754,-28.66412,0.870229,10.61069,-92.92,46.92,-27.6
-0.1333008,0.1479492,1.212402,-9.061069,1.992366,16.00763,-92.92,46.92,-27.6
-0.09082031,0.1298828,1.19165,4.793893,15.71756,7.59542,-92.92,46.92,-27.6
-0.09033203,0.1003418,1.197754,17.90076,22.61832,-0.6183206,-91.08,46.92,-27.6
-0.08764648,0.0637207,1.19165,36.0229,25.0458,-6.21374,-91.08,46.92,-27.6
-0.08935547,0.02124023,1.1604,48.27481,29.57252,-10.17557,-91.08,46.92,-27.6
-0.07958984,-0.008056641,1.133545,54.03817,33.58015,-13.83206,-93.84,46.0,-25.76
-0.08984375,-0.04223633,1.131836,57.51908,37.32061,-12.59542,-93.84,46.0,-25.76
-0.119873,-0.06469727,1.161133,65.35114,32.58779,-10.47328,-99.36,42.32,-23.0
-0.09887695,-0.08178711,1.175049,71.31298,35.54198,-3.816794,-99.36,42.32,-23.0
-0.09375,-0.09692383,1.174316,78.85497,36.55725,-3.778626,-99.36,42.32,-23.0
-0.1096191,-0.1147461,1.165039,86.0458,37.71756,4.38168,-105.8,37.72,-21.16
-0.09667969,-0.1623535,1.159668,90.40458,33.89313,8.351145,-105.8,37.72,-21.16
-0.03051758,-0.1635742,1.117432,93.0229,29.77099,12.08397,-115.92,31.28,-20.24
-0.01000977,-0.1843262,1.083252,92.00764,29.70992,-2.007634,-115.92,31.28,-20.24
-0.0546875,-0.2080078,1.031738,87.20611,32.54198,-7.770992,-115.92,31.28,-20.24
-0.07006836,-0.2172852,0.9729004,83.78626,28.74809,1.48855,-124.2,23.0,-21.16
-0.04589844,-0.2009277,0.9179688,77.09924,17.68702,10.70992,-124.2,23.0,-21.16
-0.001464844,-0.1911621,0.8713379,67.32825,10.60305,8.053435,-124.2,23.0,-21.16
0.005615234,-0.1860352,0.815918,53.25954,13.0687,0.519084,-131.56,15.64,-24.84
-0.02954102,-0.1809082,0.7971191,39.08397,9.59542,0.5496183,-131.56,15.64,-24.84
-0.0168457,-0.1914063,0.7854004,22.22137,1.564886,0.8167939,-135.24,11.04,-27.6
0.009033203,-0.1801758,0.7634277,6.679389,-0.2137404,-4.946565,-135.24,11.04,-27.6
-0.0144043,-0.189209,0.782959,-12.68702,-1.557252,-8.366412,-135.24,11.04,-27.6
-0.01953125,-0.1936035,0.8010254,-31.41221,-3.656489,-11.90076,-134.32,11.04,-27.6
-0.05932617,-0.1970215,0.8405762,-45.67176,-7.992366,-8.175572,-134.32,11.04,-27.6
-0.03564453,-0.1940918,0.885498,-58.93893,-9.740458,-7.778626,-134.32,11.04,-27.6
-0.06176758,-0.1865234,0.9196777,-68.19084,-7.419847,-6.870229,-131.56,15.64,-24.84
-0.04956055,-0.1911621,0.9719238,-75.17558,-14.41221,-4.770992,-131.56,15.64,-24.84
-0.04125977,-0.1826172,1.010742,-77.98473,-19.48855,-10.98473,-125.12,23.0,-22.08
-0.0769043,-0.1508789,1.155762,-88.43511,-16.28244,-21.64122,-125.12,23.0,-22.08
-0.1464844,-0.1279297,1.139893,-81.29771,-22.30534,-23.21374,-116.84,29.44,-19.32
-0.1391602,-0.1379395,1.145508,-80.58778,-21.0,-10.89313,-116.84,29.44,-19.32
-0.05053711,-0.1040039,1.131104,-79.82442,-25.9313,-10.21374,-108.56,34.96,-20.24
-0.02539063,-0.06787109,1.145752,-78.30534,-21.38168,-33.01527,-108.56,34.96,-20.24
-0.05834961,-0.05834961,1.160645,-76.1145,-1.763359,-61.51145,-108.56,34.96,-20.24
-0.2192383,-0.08056641,1.187012,-74.93893,10.1374,-64.74046,-102.12,37.72,-19.32
-0.2866211,-0.05859375,1.156494,-58.49618,-11.25191,-33.67939,-102.12,37.72,-19.32
-0.2165527,-0.0324707,1.138184,-43.96947,-14.93893,-21.32825,-102.12,37.72,-19.32
-0.2104492,-0.03222656,1.125977,-40.64885,-0.7557252,-21.15267,-99.36,38.64,-19.32
-0.2299805,-0.02758789,1.131836,-27.39695,6.870229,-20.0229,-99.36,38.64,-19.32
-0.2587891,-0.01293945,1.120117,-14.22901,3.343511,-10.12214,-97.52,39.56,-18.4
-0.2316895,0.001953125,1.117676,-4.526718,10.91603,-3.412214,-97.52,39.56,-18.4
-0.2067871,-0.006103516,1.136475,4.076336,19.39695,-1.78626,-97.52,39.56,-18.4
-0.2070313,-0.01782227,1.17041,19.92366,23.86259,-5.938931,-96.6,39.56,-16.56
-0.2060547,-0.01049805,1.141113,35.22901,24.72519,-6.045802,-96.6,39.56,-16.56
-0.217041,-0.02661133,1.134766,42.56488,35.16794,-9.236641,-96.6,39.56,-16.56
-0.230957,-0.05371094,1.164551,45.35878,47.05344,-7.305344,-99.36,36.8,-15.64
-0.2402344,-0.0715332,1.198486,58.57252,42.14504,-0.9236641,-99.36,36.8,-15.64
-0.1762695,-0.09033203,1.203369,71.23664,43.8855,6.603054,-103.96,32.2,-11.04
-0.1228027,-0.09326172,1.179199,78.1145,46.34351,3.938931,-103.96,32.2,-11.04
-0.1347656,-0.1303711,1.183105,81.91603,61.16794,-7.969466,-103.96,32.2,-11.04
-0.2163086,-0.1962891,1.185303,86.0,66.19084,-0.6259542,-112.24,25.76,-7.36
-0.2099609,-0.244873,1.182373,92.84733,54.60305,20.0,-112.24,25.76,-7.36
-0.1420898,-0.2438965,1.11377,100.2595,47.9313,35.87023,-112.24,25.76,-7.36
-0.06298828,-0.2607422,1.061768,96.83206,42.64122,32.9542,-121.44,17.48,-4.6
-0.009521484,-0.2509766,0.9953613,91.21374,44.37405,20.67939,-121.44,17.48,-4.6
-0.02563477,-0.2729492,0.9499512,83.33588,42.27481,9.839695,-129.72,8.28,-5.52
-0.05249023,-0.284668,0.8857422,72.80916,35.32061,6.358778,-129.72,8.28,-5.52
-0.03173828,-0.2624512,0.8178711,61.77863,26.16794,8.702291,-129.72,8.28,-5.52
-0.01391602,-0.2636719,0.7839355,47.84733,18.83969,0.01526718,-135.24,-0.92,-7.36
-0.05078125,-0.2597656,0.7609863,33.35115,7.870229,-0.1374046,-135.24,-0.92,-7.36
-0.06835938,-0.2429199,0.7314453,19.20611,-6.793893,3.534351,-135.24,-0.92,-7.36
-0.04589844,-0.21875,0.7426758,2.038168,-9.755725,11.21374,-138.0,-4.6,-10.12
-0.02246094,-0.2053223,0.7834473,-15.96183,-14.9313,3.885496,-138.0,-4.6,-10.12
-0.06176758,-0.1809082,0.8146973,-27.30534,-20.10687,-2.458015,-137.08,-1.84,-11.96
-0.1225586,-0.1870117,0.8632813,-39.41985,-28.44275,-0.2977099,-137.08,-1.84,-11.96
-0.1206055,-0.1765137,0.9055176,-50.0,-32.0687,12.08397,-137.08,-1.84,-11.96
-0.0859375,-0.1523438,0.9438477,-59.63359,-31.32061,16.68702,-133.4,5.52,-11.96
-0.03686523,-0.1345215,0.9794922,-66.09924,-37.38931,11.94656,-133.4,5.52,-11.96
-0.02563477,-0.1181641,1.048828,-69.49619,-35.30534,-2.374046,-133.4,5.52,-11.96
-0.1118164,-0.1225586,1.097656,-71.771,-30.35878,-16.89313,-126.96,14.72,-13.8
-0.1499023,-0.1223145,1.118896,-71.51908,-29.60305,-14.56489,-126.96,14.72,-13.8
-0.1828613,-0.1135254,1.1521,-68.0229,-35.49618,-7.610687,-119.6,22.08,-13.8
-0.2294922,-0.1101074,1.124512,-65.8855,-29.9313,0.1908397,-119.6,22.08,-13.8
-0.2336426,-0.09570313,1.118896,-66.49619,-30.89313,13.67939,-119.6,22.08,-13.8
-0.1362305,-0.06787109,1.159668,-66.1145,-29.44275,17.65649,-112.24,27.6,-16.56
-0.07763672,-0.01660156,1.176758,-59.56488,-30.45038,-0.6335878,-112.24,27.6,-16.56
-0.1533203,0.001953125,1.134277,-52.23664,-20.13741,-17.25954,-112.24,27.6,-16.56
-0.2216797,0.004882813,1.106445,-51.69466,-14.47328,-14.54198,-106.72,32.2,-18.4
-0.2124023,0.02880859,1.10498,-45.1832,-14.61832,-3.259542,-106.72,32.2,-18.4
-0.1992188,0.04418945,1.095703,-36.77863,-9.839695,-5.580153,-106.72,32.2,-18.4
-0.1767578,0.08349609,1.094727,-17.68702,2.167939,1.603053,-103.04,34.96,-19.32
-0.1765137,0.08251953,1.124512,-11.27481,9.267176,-5.847328,-100.28,36.8,-19.32
-0.1955566,0.07324219,1.162842,1.274809,14.67939,-5.480916,-100.28,36.8,-19.32
-0.1975098,0.05639648,1.166992,16.90076,14.67939,-7.290076,-100.28,37.72,-17.48
-0.1994629,0.03515625,1.164063,29.41221,27.25191,-11.8626,-100.28,37.72,-17.48
-0.2416992,-0.007568359,1.165771,34.19084,37.29008,-12.76336,-100.28,37.72,-17.48
-0.2312012,-0.04199219,1.179443,47.25191,36.90076,0.7709923,-103.04,34.96,-15.64
-0.177002,-0.05957031,1.196777,56.85496,39.9313,5.877862,-103.04,34.96,-15.64
-0.1455078,-0.07324219,1.204102,66.80916,42.13741,1.908397,-103.04,34.96,-15.64
-0.1328125,-0.1237793,1.197021,76.71756,45.33588,-2.114504,-107.64,31.28,-11.96
-0.1394043,-0.1530762,1.189209,84.54198,43.54198,3.641221,-107.64,31.28,-11.96
-0.09350586,-0.1672363,1.163086,90.50381,43.20611,7.274809,-115.92,24.84,-9.2
-0.09204102,-0.1950684,1.130859,92.0687,48.66412,3.152672,-115.92,24.84,-9.2
-0.1049805,-0.2199707,1.081787,93.98473,47.16031,2.503817,-115.92,24.84,-9.2
-0.0793457,-0.2250977,1.03833,91.09161,40.0458,10.9084,-125.12,14.72,-9.2
-0.05859375,-0.2392578,0.987793,87.78626,35.35115,6.954198,-125.12,14.72,-9.2
-0.07055664,-0.2539063,0.9304199,77.14503,37.29008,6.572519,-125.12,14.72,-9.2
-0.04956055,-0.2592773,0.9042969,68.60305,32.21374,13.9084,-132.48,5.52,-10.12
-0.04711914,-0.2490234,0.8293457,60.30534,18.74809,10.67176,-132.48,5.52,-10.12
-0.0456543,-0.2358398,0.7780762,45.8168,13.76336,13.29008,-137.08,-1.84,-13.8
-0.04321289,-0.2216797,0.7275391,26.29771,9.465649,14.77099,-137.08,-1.84,-13.8
-0.02978516,-0.2197266,0.7158203,6.351145,-0.3587786,17.21374,-137.08,-1.84,-13.8
-0.004882813,-0.199707,0.7390137,-10.77099,-10.61832,8.038168,-138.0,-2.76,-16.56
-0.05224609,-0.1906738,0.7600098,-27.76336,-15.25954,2.068702,-138.0,-2.76,-16.56
-0.08251953,-0.1992188,0.7927246,-44.30534,-20.76336,4.717557,-138.0,-2.76,-16.56
-0.09643555,-0.2028809,0.8378906,-62.52672,-25.63359,11.90076,-135.24,1.84,-16.56
-0.09423828,-0.2133789,0.925293,-75.71756,-28.05343,15.20611,-135.24,1.84,-16.56
-0.08105469,-0.2202148,0.9807129,-81.40458,-32.17557,14.0229,-129.72,11.96,-15.64
-0.08740234,-0.2089844,0.9904785,-89.67939,-33.09924,15.12977,-129.72,11.96,-15.64
-0.07177734,-0.2438965,1.018555,-97.94656,-34.78626,14.80153,-129.72,11.96,-15.64
-0.0078125,-0.2590332,1.04248,-101.4885,-31.50382,13.61069,-120.52,23.0,-15.64
0.08374023,-0.2592773,1.050537,-112.0992,-22.53435,-6.564886,-120.52,23.0,-15.64
0.04614258,-0.2727051,1.131836,-120.2137,-18.49618,-57.55725,-120.52,23.0,-15.64
-0.07397461,-0.213623,1.177002,-126.2214,-0.3969466,-77.13741,-109.48,31.28,-14.72
-0.2922363,-0.2272949,1.236328,-113.7634,-12.8626,-45.73283,-109.48,31.28,-14.72
-0.230957,-0.1750488,1.26001,-96.12214,-36.33588,-9.450381,-100.28,35.88,-12.88
-0.1269531,-0.1184082,1.280518,-78.39695,-34.93893,-10.67939,-100.28,35.88,-12.88
-0.09423828,-0.06762695,1.244629,-66.51908,-19.38931,-26.33588,-100.28,35.88,-12.88
-0.1606445,-0.06323242,1.207031,-50.07634,-8.328244,-52.12214,-94.76,39.56,-14.72
-0.3049316,-0.07373047,1.144531,-37.59542,5.251908,-50.77099,-94.76,39.56,-14.72
-0.3969727,-0.08959961,1.115479,-24.67939,-1.824428,-21.07634,-94.76,39.56,-14.72
-0.3244629,-0.06713867,1.120361,-12.34351,-13.12214,1.519084,-93.84,39.56,-15.64
-0.2609863,-0.03100586,1.101563,-3.091603,0.7557252,-3.435115,-93.84,39.56,-15.64
-0.2556152,-0.02026367,1.128418,7.007634,15.56489,-4.992366,-93.84,39.56,-15.64
-0.2646484,-0.04150391,1.156738,20.37405,21.77099,-5.236641,-93.84,39.56,-14.72
-0.2507324,-0.04174805,1.154053,34.99237,25.94657,0.648855,-93.84,39.56,-14.72
-0.237793,-0.07250977,1.151367,49.74809,34.54962,1.885496,-94.76,38.64,-13.8
-0.222168,-0.1037598,1.156494,58.96947,40.45038,0.3053435,-94.76,38.64,-13.8
-0.2243652,-0.1220703,1.171875,68.73283,42.39695,2.435115,-94.76,38.64,-13.8
-0.2351074,-0.1574707,1.178711,76.87023,52.92366,2.099237,-99.36,34.04,-11.04
-0.2619629,-0.1853027,1.208252,80.36641,57.74046,15.18321,-99.36,34.04,-11.04
-0.1462402,-0.2412109,1.181396,105.6183,53.51908,33.82443,-105.8,29.44,-7.36
-0.1057129,-0.246582,1.153076,111.313,49.85496,39.58779,-105.8,29.44,-7.36
-0.07983398,-0.2756348,1.109619,114.542,42.26717,39.39695,-115.0,22.08,-4.6
-0.0625,-0.284668,1.041504,111.9389,38.67176,42.67939,-115.0,22.08,-4.6
0.002929688,-0.2946777,0.9912109,104.7405,34.0687,40.70992,-126.04,12.88,-6.44
0.01293945,-0.2834473,0.940918,95.82442,24.99237,22.74809,-126.04,12.88,-6.44
-0.02197266,-0.2873535,0.8762207,85.51145,22.49618,14.26718,-126.04,12.88,-6.44
-0.02514648,-0.2890625,0.8210449,71.38931,17.76336,13.35114,-133.4,3.68,-11.04
-0.006835938,-0.2790527,0.7822266,52.29008,12.32824,11.84733,-133.4,3.68,-11.04
-0.01855469,-0.2893066,0.7470703,31.83206,9.068703,-0.519084,-133.4,3.68,-11.04
-0.09521484,-0.2849121,0.7106934,10.00763,9.977099,0.610687,-138.0,-2.76,-14.72
-0.2597656,-0.2709961,0.7329102,-11.55725,-6.458015,36.9542,-138.0,-2.76,-14.72
-0.1384277,-0.3088379,0.7512207,-15.84733,-29.77863,34.38931,-138.0,-1.84,-17.48
-0.09033203,-0.2634277,0.7922363,-36.32824,-29.70992,25.22901,-138.0,-1.84,-17.48
-0.06152344,-0.2416992,0.8369141,-56.38168,-25.77863,11.68702,-138.0,-1.84,-17.48
-0.07250977,-0.2294922,0.9016113,-68.76336,-31.26718,11.19084,-134.32,6.44,-19.32
-0.04589844,-0.2253418,0.9682617,-79.09161,-36.58015,10.09924,-134.32,6.44,-19.32
-0.05175781,-0.2021484,1.005859,-90.96947,-30.51145,9.366412,-134.32,6.44,-19.32
-0.07983398,-0.1884766,1.069092,-97.8168,-30.22137,8.450381,-126.96,16.56,-18.4
-0.05883789,-0.1936035,1.101074,-98.44275,-36.12214,7.641222,-126.96,16.56,-18.4
-0.002929688,-0.1564941,1.103516,-102.2748,-37.50382,7.396946,-116.84,27.6,-17.48
0.02880859,-0.1330566,1.119385,-106.5878,-29.63359,-4.946565,-116.84,27.6,-17.48
0.002929688,-0.1025391,1.128418,-110.8626,-24.35878,-17.24427,-116.84,27.6,-17.48
-0.01342773,-0.07446289,1.186279,-111.2748,-21.06107,-41.52672,-106.72,34.96,-18.4
-0.1074219,-0.06225586,1.251953,-95.41985,-0.3816794,-73.43511,-106.72,34.96,-18.4
-0.4160156,-0.08496094,1.222168,-82.14503,-10.25191,-40.70229,-106.72,34.96,-18.4
-0.3869629,-0.05834961,1.196777,-61.82443,-35.12214,9.648855,-99.36,38.64,-18.4
-0.199707,-0.001220703,1.194092,-51.84733,-32.96947,23.29008,-99.36,38.64,-18.4
-0.1420898,0.03051758,1.181396,-41.37405,-13.74809,5.580153,-93.84,43.24,-21.16
-0.1782227,0.04223633,1.167236,-30.31298,-4.51145,-11.96183,-93.84,43.24,-21.16
-0.2346191,0.02758789,1.166016,-17.74046,4.854962,-11.43511,-93.84,43.24,-21.16
-0.2460938,0.01318359,1.163086,-0.8167939,12.84733,-4.961832,-92.0,44.16,-20.24
-0.208252,-0.009033203,1.176514,12.42748,16.41985,0.2366412,-92.0,44.16,-20.24
-0.1408691,-0.01806641,1.168701,27.77863,18.60305,2.129771,-92.0,44.16,-20.24
-0.09082031,-0.02514648,1.148682,41.25954,22.17557,-4.29771,-92.0,44.16,-19.32
-0.08398438,-0.04907227,1.137695,48.37405,31.61069,-20.24427,-92.0,44.16,-19.32
-0.1359863,-0.08959961,1.141846,54.96183,43.33588,-25.74046,-96.6,40.48,-17.48
-0.1442871,-0.1083984,1.207275,64.60305,44.03817,-16.75573,-96.6,40.48,-17.48
-0.08886719,-0.1257324,1.281494,81.01527,42.27481,-14.74046,-96.6,40.48,-17.48
-0.140625,-0.1601563,1.284424,94.44275,51.58779,-11.35878,-103.04,35.88,-13.8
-0.1894531,-0.234375,1.263428,103.855,51.46565,-3.290076,-103.04,35.88,-13.8
-0.1740723,-0.296875,1.179932,117.8092,50.82443,2.778626,-103.04,35.88,-13.8
-0.1748047,-0.3051758,1.134277,117.687,49.74809,20.27481,-114.08,27.6,-11.04
-0.1337891,-0.3085938,1.075684,116.916,40.67939,29.74046,-114.08,27.6,-11.04
-0.08959961,-0.3027344,1.019043,114.7405,34.70229,28.53435,-125.12,17.48,-12.88
-0.06811523,-0.2861328,0.9562988,102.6489,34.22137,26.54962,-125.12,17.48,-12.88
-0.04370117,-0.2900391,0.9199219,92.0,29.9542,24.18321,-125.12,17.48,-12.88
-0.01342773,-0.2651367,0.8669434,77.83969,26.25954,20.38931,-133.4,8.28,-17.48
0.001953125,-0.2553711,0.8164063,65.84733,18.0,14.48092,-133.4,8.28,-17.48
0.01220703,-0.2548828,0.7746582,48.55725,12.67176,14.03817,-133.4,8.28,-17.48
0.04003906,-0.2446289,0.7351074,31.14504,10.12214,11.46565,-137.08,1.84,-22.08
-0.007568359,-0.2304688,0.7382813,-18.53435,-10.74809,1.671756,-138.92,0.92,-24.84
-0.04638672,-0.2387695,0.7709961,-36.63359,-14.99237,5.038168,-138.92,0.92,-24.84
-0.06738281,-0.2346191,0.8181152,-52.64885,-25.31298,15.0,-138.92,0.92,-24.84
-0.06420898,-0.2067871,0.8950195,-63.44275,-34.61069,29.76336,-135.24,6.44,-24.84
-0.06445313,-0.2045898,0.9545898,-71.14503,-40.00763,34.78626,-135.24,6.44,-24.84
-0.08129883,-0.1923828,0.9931641,-79.29771,-39.61069,35.06107,-128.8,17.48,-25.76
-0.05810547,-0.1828613,1.028076,-86.54198,-43.45802,38.0,-128.8,17.48,-25.76
-0.01123047,-0.1242676,1.067871,-94.62595,-46.72519,29.03817,-128.8,17.48,-25.76
-0.06274414,-0.1315918,1.179932,-92.0458,-41.07634,10.74046,-118.68,29.44,-27.6
-0.1445313,-0.08618164,1.158203,-89.65649,-30.73282,21.42748,-118.68,29.44,-27.6
-0.1328125,-0.0793457,1.159424,-91.64122,-26.0,31.83206,-118.68,29.44,-27.6
-0.06225586,-0.02563477,1.188721,-88.67939,-18.40458,27.05343,-107.64,37.72,-29.44
-0.009765625,0.03662109,1.221924,-87.40458,-8.099236,11.99237,-107.64,37.72,-29.44
-0.003662109,0.07397461,1.233398,-77.03817,-5.328244,-6.740458,-98.44,44.16,-26.68
-0.05737305,0.06591797,1.230469,-59.93893,-0.5267176,-23.35878,-98.44,44.16,-26.68
-0.1166992,0.05004883,1.166992,-52.90076,8.458015,-24.48092,-98.44,44.16,-26.68
-0.1408691,0.04589844,1.151855,-40.68702,9.893129,-20.13741,-94.76,46.0,-24.84
-0.1096191,0.05371094,1.160156,-24.39695,4.29771,-14.32824,-94.76,46.0,-24.84
-0.09277344,0.0546875,1.15332,-10.36641,3.656489,-9.793893,-94.76,46.0,-24.84
-0.06811523,0.05737305,1.153564,2.78626,6.38168,-9.396947,-92.92,46.0,-25.76
-0.07299805,0.04882813,1.171875,16.81679,12.21374,-13.44275,-92.92,46.0,-25.76
-0.08886719,0.03344727,1.158936,31.0687,13.33588,-16.73282,-93.84,45.08,-25.76
-0.07397461,0.02490234,1.154297,43.26717,14.8855,-19.09924,-93.84,45.08,-25.76
-0.09326172,0.001464844,1.176025,52.67176,21.40458,-24.14504,-93.84,45.08,-25.76
-0.1201172,-0.02636719,1.1521,62.71756,32.73283,-21.87023,-98.44,42.32,-24.84
-0.1259766,-0.02197266,1.166504,67.09161,26.51145,-16.53435,-98.44,42.32,-24.84
-0.1228027,-0.07641602,1.232666,82.32825,32.50382,-15.19847,-98.44,42.32,-24.84
-0.1462402,-0.1279297,1.225342,91.83206,42.25954,-10.45038,-105.8,37.72,-23.92
-0.1342773,-0.1665039,1.231201,93.89313,42.01527,-2.083969,-105.8,37.72,-23.92
-0.1367188,-0.1767578,1.226074,96.0458,51.61832,-2.145038,-115.0,30.36,-22.08
-0.1418457,-0.2363281,1.218018,98.21374,57.83969,9.160305,-115.0,30.36,-22.08
-0.1303711,-0.2912598,1.098389,96.38931,78.38168,13.98473,-115.0,30.36,-22.08
-0.1689453,-0.2878418,1.029785,93.39695,63.53435,30.54198,-125.12,20.24,-19.32
-0.06445313,-0.267334,0.9580078,102.8779,29.22901,21.48092,-125.12,20.24,-19.32
0.01342773,-0.2363281,0.8391113,90.36641,25.99237,8.694656,-125.12,20.24,-19.32
-0.01318359,-0.2167969,0.7253418,65.8855,37.87786,-5.480916,-132.48,9.2,-23.0
-0.06933594,-0.2197266,0.7043457,39.96183,34.61069,0.7480916,-132.48,9.2,-23.0
-0.03637695,-0.1950684,0.6872559,26.16794,12.29008,10.22901,-136.16,2.76,-23.92
0.01513672,-0.1599121,0.6772461,7.305344,-4.480916,13.45038,-136.16,2.76,-23.92
0.01293945,-0.1520996,0.685791,-15.22137,-3.0,6.687023,-136.16,2.76,-23.92
-0.02929688,-0.1738281,0.717041,-37.0458,-5.694656,6.664122,-136.16,4.6,-24.84
-0.03613281,-0.1733398,0.7841797,-51.45038,-23.67175,19.82443,-136.16,4.6,-24.84
0.02319336,-0.168457,0.8620605,-60.27481,-33.41221,21.50382,-136.16,4.6,-24.84
0.08178711,-0.1530762,0.9118652,-73.41222,-28.70229,8.900764,-132.48,12.88,-24.84
0.05126953,-0.1721191,0.9675293,-85.61832,-23.29771,-9.961832,-132.48,12.88,-24.84
0.005371094,-0.1879883,1.031006,-93.21374,-18.12977,-30.19084,-125.12,22.08,-22.08
-0.1064453,-0.2302246,1.056152,-94.82442,-16.72519,-30.0458,-125.12,22.08,-22.08
-0.1577148,-0.2456055,1.057617,-93.82442,-24.0229,-22.9542,-125.12,22.08,-22.08
-0.1401367,-0.2324219,1.065674,-96.14503,-31.0687,-14.32061,-115.92,28.52,-21.16
-0.08349609,-0.201416,1.06958,-102.5573,-29.03817,-15.49618,-115.92,28.52,-21.16
-0.05664063,-0.1987305,1.119385,-106.1374,-15.76336,-40.38168,-115.92,28.52,-21.16
-0.3659668,-0.15625,1.237061,-83.771,-20.16031,-7.78626,-106.72,34.96,-20.24
-0.3391113,-0.07373047,1.207031,-75.41985,-13.23664,22.0,-98.44,39.56,-18.4
-0.2145996,-0.02441406,1.220703,-60.07634,-18.63359,33.47328,-98.44,39.56,-18.4
-0.1230469,0.04174805,1.240234,-46.52672,-13.96947,22.0916,-98.44,39.56,-18.4
-0.1291504,0.0480957,1.234375,-29.29008,4.450382,-3.427481,-92.0,45.08,-18.4
-0.204834,0.03466797,1.22998,-13.77863,10.05344,-3.221374,-92.0,45.08,-18.4
-0.1989746,0.02783203,1.219238,8.709924,10.16031,2.015267,-90.16,45.08,-17.48
-0.1662598,0.01000977,1.186035,23.64122,8.145039,4.587786,-90.16,45.08,-17.48
-0.1240234,-0.005859375,1.18335,38.22137,13.64886,3.580153,-90.16,45.08,-17.48
-0.08544922,-0.0324707,1.180908,50.54962,14.41985,-2.229008,-92.0,45.08,-18.4
-0.078125,-0.04931641,1.15332,64.51145,15.35878,-4.389313,-92.0,45.08,-18.4
-0.06005859,-0.05957031,1.148438,72.229,19.01527,-11.94656,-92.0,45.08,-18.4
-0.05834961,-0.1123047,1.127197,77.22137,29.60305,-17.58779,-97.52,41.4,-18.4
-0.1225586,-0.1665039,1.211426,90.22137,30.50382,-15.41221,-97.52,41.4,-18.4
-0.07299805,-0.1513672,1.172363,95.83206,34.80916,-13.87786,-105.8,35.88,-17.48
-0.04589844,-0.1806641,1.17041,101.7405,48.40458,-25.80916,-105.8,35.88,-17.48
-0.09082031,-0.2412109,1.124756,100.4733,61.83206,-36.05344,-105.8,35.88,-17.48
-0.307373,-0.3117676,1.483398,4.19084,107.0076,-12.50382,-116.84,25.76,-12.88
-0.5078125,-0.4960938,0.9428711,-2.732824,162.2214,-6.175572,-116.84,25.76,-12.88
-0.2736816,-0.5915527,0.9604492,59.80916,68.48092,33.67176,-116.84,25.76,-12.88
-0.1442871,-0.3266602,0.9335938,81.0229,-22.29008,50.80153,-121.44,16.56,1.84
-0.01538086,-0.2758789,0.932373,65.07633,-12.12214,20.87786,-121.44,16.56,1.84
-0.0612793,-0.3027344,0.907959,47.77099,13.27481,-6.29771,-127.88,12.88,-6.44
-0.1772461,-0.2619629,0.8391113,32.50382,19.50382,5.740458,-127.88,12.88,-6.44
-0.1120605,-0.2802734,0.8408203,25.03817,2.641221,20.85496,-127.88,12.88,-6.44
-0.06445313,-0.2619629,0.8017578,16.70992,-5.419847,30.32825,-129.72,10.12,-8.28
-0.03881836,-0.2614746,0.7890625,1.091603,-14.22901,29.96183,-129.72,10.12,-8.28
-0.01464844,-0.2641602,0.7973633,-9.549619,-21.12977,25.06107,-129.72,10.12,-8.28
-0.01513672,-0.2749023,0.8374023,-17.41985,-27.73282,23.34351,-129.72,11.96,-11.96
-0.0007324219,-0.2580566,0.8146973,-33.39695,-26.49618,21.77099,-129.72,11.96,-11.96
-0.002197266,-0.2543945,0.840332,-54.14504,-24.19084,12.72519,-126.04,18.4,-14.72
-0.04736328,-0.2661133,0.8881836,-67.48855,-27.41985,3.328244,-126.04,18.4,-14.72
-0.05224609,-0.2753906,0.9746094,-77.90839,-33.29008,-1.229008,-126.04,18.4,-14.72
-0.03808594,-0.2441406,1.001709,-80.49619,-29.27481,-10.45038,-118.68,26.68,-16.56
-0.152832,-0.2143555,1.061768,-85.69466,-34.67939,-6.51145,-118.68,26.68,-16.56
-0.1374512,-0.177002,1.101807,-85.34351,-37.27481,2.122137,-118.68,26.68,-16.56
-0.1318359,-0.1481934,1.143311,-83.90076,-39.53435,-0.6030535,-109.48,33.12,-19.32
-0.1530762,-0.1108398,1.177979,-74.71756,-34.83969,-13.83206,-109.48,33.12,-19.32
-0.1601563,-0.0769043,1.186279,-72.79389,-24.85496,-12.91603,-101.2,39.56,-21.16
-0.1582031,-0.05786133,1.220215,-63.22137,-11.70992,-21.19084,-101.2,39.56,-21.16
-0.1914063,-0.04370117,1.185059,-53.80153,-2.045802,-27.84733,-101.2,39.56,-21.16
-0.2368164,-0.04760742,1.165771,-41.89313,1.572519,-23.14504,-96.6,42.32,-20.24
-0.2268066,-0.04711914,1.149658,-30.0458,4.870229,-12.71756,-96.6,42.32,-20.24
-0.2346191,-0.046875,1.139893,-20.96947,9.717557,-9.961832,-96.6,42.32,-20.24
-0.2368164,-0.04443359,1.151855,-9.534351,10.24428,-1.862595,-94.76,42.32,-20.24
-0.173584,-0.03759766,1.144043,5.129771,12.12977,6.557252,-94.76,42.32,-20.24
-0.1157227,-0.02392578,1.13208,14.9313,17.68702,0.1908397,-94.76,42.32,-18.4
-0.1252441,-0.03344727,1.119873,25.07634,24.03053,-9.557252,-94.76,42.32,-18.4
-0.1486816,-0.05053711,1.133789,33.68702,29.65649,-11.1374,-94.76,42.32,-18.4
-0.1694336,-0.07763672,1.150879,46.60305,31.35878,-10.72519,-96.6,40.48,-16.56
-0.2011719,-0.01049805,1.136475,55.10687,26.70229,1.030534,-96.6,40.48,-16.56
-0.1452637,-0.1196289,1.146484,61.41985,33.56488,-1.717557,-96.6,40.48,-16.56
-0.2045898,-0.1965332,1.160889,84.29008,34.12977,16.43511,-102.12,36.8,-13.8
-0.1894531,-0.2111816,1.141113,88.05344,29.16794,29.72519,-109.48,32.2,-11.96
-0.1520996,-0.2285156,1.116943,94.30534,26.58779,34.37405,-109.48,32.2,-11.96
-0.1525879,-0.2421875,1.076904,94.71756,23.83969,39.71756,-109.48,32.2,-11.96
-0.1308594,-0.2514648,1.051025,94.74046,17.83969,49.03817,-116.84,26.68,-12.88
-0.06079102,-0.236084,1.007813,91.90839,9.656488,51.38931,-116.84,26.68,-12.88
-0.01220703,-0.2243652,0.9562988,86.48092,7.549618,42.53435,-125.12,21.16,-17.48
-0.003662109,-0.2209473,0.9160156,75.12214,8.435115,25.31298,-125.12,21.16,-17.48
-0.01489258,-0.2155762,0.8510742,68.70229,9.19084,14.0458,-125.12,21.16,-17.48
-0.01049805,-0.2124023,0.8125,51.82443,3.496183,10.35878,-131.56,15.64,-23.0
-0.02368164,-0.1899414,0.7841797,33.74046,3.137405,8.801527,-131.56,15.64,-23.0
-0.03198242,-0.1972656,0.7849121,15.17557,0.7480916,4.351145,-131.56,15.64,-23.0
-0.03320313,-0.2062988,0.7824707,1.10687,0.1221374,0.7328244,-134.32,12.88,-26.68
-0.03979492,-0.1936035,0.7800293,-11.38931,-5.48855,3.282443,-134.32,12.88,-26.68
-0.01342773,-0.1833496,0.7983398,-26.27481,-11.33588,-2.961832,-133.4,13.8,-27.6
-0.03955078,-0.1809082,0.8239746,-43.58779,-5.70229,-8.183207,-133.4,13.8,-27.6
-0.06689453,-0.2028809,0.8762207,-55.20611,-9.541985,-4.908397,-133.4,13.8,-27.6
-0.004394531,-0.1865234,0.9331055,-67.67939,-16.89313,-0.7328244,-129.72,18.4,-25.76
-0.0222168,-0.1809082,1.031494,-72.37405,-20.63359,-13.16794,-129.72,18.4,-25.76
-0.09619141,-0.1679688,1.033203,-71.35114,-16.43511,-13.19847,-129.72,18.4,-25.76
-0.1242676,-0.1833496,1.043945,-73.43511,-14.64886,4.122138,-123.28,25.76,-24.84
-0.03344727,-0.159668,1.052002,-72.99236,-29.23664,11.93893,-123.28,25.76,-24.84
0.05493164,-0.1540527,1.077881,-74.58778,-27.14504,-9.694656,-115.0,33.12,-24.84
-0.04418945,-0.1459961,1.04834,-78.16031,-14.18321,-33.52672,-115.0,33.12,-24.84
-0.1477051,-0.1643066,1.074219,-88.46565,-9.366412,-33.51145,-115.0,33.12,-24.84
-0.1083984,-0.1386719,1.125488,-87.53435,-7.458015,-23.48092,-107.64,36.8,-24.84
-0.07104492,-0.1159668,1.179932,-82.39695,-2.854962,-42.96947,-107.64,36.8,-24.84
-0.1784668,-0.140625,1.198975,-70.90839,4.61832,-56.43512,-107.64,36.8,-24.84
-0.203125,-0.1269531,1.14917,-55.60305,3.473282,-49.71756,-102.12,38.64,-22.08
-0.1271973,-0.109375,1.109863,-52.24427,14.56489,-40.87023,-102.12,38.64,-22.08
-0.1054688,-0.1088867,1.119629,-50.21374,19.44275,-49.50382,-98.44,38.64,-17.48
-0.1225586,-0.1018066,1.088623,-42.67939,21.41985,-62.59542,-98.44,38.64,-17.48
-0.2399902,-0.1364746,1.084473,-36.72519,22.9084,-67.93893,-98.44,38.64,-17.48
-0.3212891,-0.1464844,1.106689,-25.90076,16.48855,-45.62595,-97.52,37.72,-15.64
-0.3212891,-0.1335449,1.102783,-8.610687,14.34351,-21.00763,-97.52,37.72,-15.64
-0.2937012,-0.137207,1.082764,4.725191,13.54198,-8.801527,-97.52,37.72,-15.64
-0.2719727,-0.114502,1.079834,8.977099,14.0458,-2.587786,-97.52,36.8,-13.8
-0.2827148,-0.09814453,1.114258,17.55725,19.51908,2.610687,-97.52,36.8,-13.8
-0.282959,-0.1088867,1.155029,29.35878,25.51908,7.29771,-98.44,35.88,-11.96
-0.2861328,-0.1054688,1.146729,40.26717,28.52672,17.37405,-98.44,35.88,-11.96
-0.2709961,-0.1020508,1.178955,51.06107,27.49618,26.65649,-98.44,35.88,-11.96
-0.2148438,-0.1401367,1.116699,57.23664,30.9542,31.99237,-101.2,34.04,-10.12
-0.2478027,-0.1704102,1.184814,68.55725,30.1145,41.32824,-101.2,34.04,-10.12
-0.2412109,-0.2275391,1.190674,86.53435,19.61832,52.13741,-101.2,34.04,-10.12
-0.1679688,-0.2141113,1.142578,91.80916,25.48855,59.32824,-106.72,31.28,-9.2
-0.1328125,-0.2546387,1.132568,94.34351,20.74809,65.59542,-106.72,31.28,-9.2
-0.08764648,-0.2509766,1.127441,100.5267,10.55725,63.0687,-106.72,31.28,-9.2
-0.06689453,-0.2456055,1.093262,101.7099,14.51908,52.80153,-114.08,28.52,-11.04
-0.05712891,-0.2568359,1.021973,101.0687,17.03817,53.31298,-114.08,28.52,-11.04
-0.02294922,-0.2558594,0.9697266,95.14503,10.51908,54.0458,-122.36,23.0,-15.64
0.03100586,-0.248291,0.9226074,86.9313,11.80916,38.49618,-122.36,23.0,-15.64
0.01904297,-0.2346191,0.8300781,56.58015,7.38168,23.17557,-129.72,17.48,-21.16
0.05908203,-0.2287598,0.7766113,39.66412,9.954199,11.23664,-129.72,17.48,-21.16
0.002685547,-0.2529297,0.7873535,23.15267,7.221374,5.687023,-133.4,13.8,-24.84
0.0004882813,-0.2353516,0.7736816,5.80916,1.152672,-2.51145,-133.4,13.8,-24.84
-0.03588867,-0.239502,0.7712402,-12.16794,2.824427,-8.251908,-133.4,13.8,-24.84
-0.09326172,-0.2519531,0.7978516,-28.12977,0.09923664,-9.175572,-134.32,13.8,-26.68
-0.1140137,-0.2521973,0.8476563,-41.99237,-9.923664,0.519084,-134.32,13.8,-26.68
-0.09204102,-0.2299805,0.8657227,-50.44275,-16.01527,5.007634,-130.64,17.48,-24.84
-0.078125,-0.2128906,0.9311523,-63.50382,-17.87786,7.923664,-130.64,17.48,-24.84
-0.06396484,-0.1936035,0.9868164,-70.26717,-17.20611,9.175572,-130.64,17.48,-24.84
-0.01342773,-0.1791992,1.02002,-72.80916,-18.9084,8.992367,-123.28,25.76,-23.92
0.04785156,-0.1677246,1.045898,-78.80153,-21.98473,-2.564885,-123.28,25.76,-23.92
0.08374023,-0.1303711,1.061523,-84.96183,-21.0229,-25.29008,-123.28,25.76,-23.92
0.1242676,-0.1274414,1.082764,-92.40458,-10.29008,-53.48855,-115.92,31.28,-23.92
0.1210938,-0.1533203,1.081543,-95.94656,0.2366412,-88.68702,-115.92,31.28,-23.92
0.01391602,-0.1933594,1.121338,-95.49619,-6.450382,-104.8779,-115.92,31.28,-23.92
-0.128418,-0.2062988,1.136719,-89.58778,-11.05344,-101.2672,-109.48,33.12,-21.16
-0.1809082,-0.1962891,1.11084,-80.56489,-15.55725,-95.96183,-109.48,33.12,-21.16
-0.2895508,-0.1950684,1.128662,-70.59542,-20.96183,-79.66412,-104.88,33.12,-19.32
-0.3720703,-0.1650391,1.123779,-65.07633,-28.52672,-58.08397,-104.88,33.12,-19.32
-0.4099121,-0.1242676,1.118896,-63.24427,-21.23664,-27.70992,-104.88,33.12,-19.32
-0.3544922,-0.1281738,1.145996,-52.57252,-21.83969,6.900764,-101.2,34.96,-20.24
-0.2324219,-0.08081055,1.162842,-40.0458,-18.61069,11.77863,-101.2,34.96,-20.24
-0.2138672,-0.07739258,1.1521,-30.41221,-2.221374,-1.648855,-101.2,34.96,-20.24
-0.2805176,-0.08349609,1.160645,-21.60305,8.076336,-0.7328244,-97.52,38.64,-21.16
-0.2709961,-0.07128906,1.207764,-6.496183,12.79389,13.12977,-97.52,38.64,-21.16
-0.230957,-0.06884766,1.217773,15.10687,17.71756,15.58779,-96.6,39.56,-21.16
-0.2128906,-0.07519531,1.172852,32.84733,20.07634,18.49618,-96.6,39.56,-21.16
-0.1777344,-0.1054688,1.158447,43.1145,25.36641,25.60305,-96.6,39.56,-21.16
-0.126709,-0.1164551,1.160645,53.39695,26.03053,24.41985,-97.52,38.64,-19.32
-0.1162109,-0.1306152,1.155273,62.66412,31.19847,19.03817,-97.52,38.64,-19.32
-0.1262207,-0.1599121,1.15918,69.76336,34.90076,19.87023,-97.52,38.64,-19.32
-0.112793,-0.2351074,1.164551,78.29771,32.27481,29.74809,-101.2,36.8,-18.4
-0.04492188,-0.2351074,1.160645,81.56489,36.23664,24.16794,-101.2,36.8,-18.4
-0.1079102,-0.220459,1.135986,81.74046,40.89313,28.03053,-107.64,34.04,-15.64
-0.1228027,-0.2570801,1.191406,91.01527,32.58779,32.13741,-107.64,34.04,-15.64
-0.08227539,-0.2683105,1.142578,97.83206,27.26718,34.16794,-107.64,34.04,-15.64
-0.03759766,-0.2971191,1.0896,99.14503,32.28244,34.31298,-115.92,27.6,-14.72
-0.0168457,-0.3249512,1.022705,97.16031,31.61832,29.9313,-115.92,27.6,-14.72
-0.01391602,-0.3464355,0.9431152,92.54198,29.64122,20.58015,-115.92,27.6,-14.72
-0.0222168,-0.3537598,0.8562012,77.74809,25.0916,22.60305,-125.12,21.16,-17.48
0.01245117,-0.3591309,0.8125,67.87786,14.39695,24.98473,-125.12,21.16,-17.48
0.07446289,-0.3337402,0.7849121,50.65649,0.02290076,23.03053,-131.56,14.72,-21.16
0.1132813,-0.3161621,0.7380371,32.85496,0.4580153,7.572519,-131.56,14.72,-21.16
0.08569336,-0.3200684,0.7202148,10.83969,-3.59542,-9.694656,-131.56,14.72,-21.16
0.02172852,-0.326416,0.7243652,-7.053435,2.396947,-13.73282,-133.4,12.88,-23.92
-0.03710938,-0.3361816,0.7546387,-26.20611,-1.633588,-5.78626,-133.4,12.88,-23.92
-0.1367188,-0.3452148,0.8010254,-40.46565,-9.908397,17.20611,-133.4,12.88,-23.92
-0.1599121,-0.361084,0.8679199,-50.1832,-22.45038,22.9084,-131.56,14.72,-24.84
-0.1196289,-0.3549805,0.9750977,-51.03817,-16.77099,8.274809,-131.56,14.72,-24.84
-0.04199219,-0.324707,0.9558105,-63.32061,-29.91603,10.78626,-125.12,24.84,-23.0
-0.06396484,-0.263916,1.079834,-89.69466,-12.0916,-13.73282,-125.12,24.84,-22.08
-0.08886719,-0.2304688,1.092041,-91.91603,-6.725191,-14.9542,-115.92,32.2,-22.08
-0.1030273,-0.1906738,1.092773,-92.32825,-8.091603,-11.38931,-115.92,32.2,-22.08
-0.07373047,-0.175293,1.148193,-90.65649,-7.229008,-11.28244,-106.72,37.72,-19.32
-0.06494141,-0.1652832,1.155518,-89.50381,-7.778626,-7.40458,-106.72,37.72,-19.32
-0.05517578,-0.1220703,1.165527,-76.64122,-13.69466,-15.08397,-106.72,37.72,-19.32
-0.06713867,-0.09863281,1.145996,-67.34351,-13.40458,-15.18321,-98.44,41.4,-18.4
-0.06323242,-0.08813477,1.126221,-62.59542,-7.290076,-17.87786,-98.44,41.4,-18.4
-0.09741211,-0.0690918,1.151855,-57.35115,-4.992366,-23.24427,-98.44,41.4,-18.4
-0.1210938,-0.06616211,1.169434,-45.8168,-5.244275,-26.47328,-92.92,44.16,-17.48
-0.1535645,-0.05834961,1.16626,-30.96947,1.29771,-26.66412,-92.92,44.16,-17.48
-0.2036133,-0.0612793,1.158447,-18.55725,4.534351,-22.8855,-91.08,45.08,-18.4
-0.2202148,-0.05810547,1.147949,-4.870229,-0.2748091,-7.206107,-91.08,45.08,-18.4
-0.1743164,-0.06396484,1.159912,9.236641,0.8854962,-7.0,-91.08,45.08,-18.4
-0.1625977,-0.07226563,1.165039,21.75573,12.75572,-9.709924,-91.08,45.08,-19.32
-0.1633301,-0.09985352,1.152588,32.0687,19.9313,-11.38931,-91.08,45.08,-19.32
-0.1477051,-0.130127,1.164307,45.14504,22.23664,-10.18321,-91.08,45.08,-19.32
-0.1459961,-0.161377,1.145752,54.39695,27.19847,-11.29008,-93.84,43.24,-17.48
-0.1276855,-0.1855469,1.124756,62.61832,33.00763,-13.44275,-93.84,43.24,-17.48
-0.1452637,-0.1630859,1.098633,59.62595,36.83206,-11.18321,-99.36,39.56,-15.64
-0.1525879,-0.2573242,1.126709,68.38931,44.67176,-9.145039,-99.36,39.56,-15.64
-0.1569824,-0.2785645,1.111572,73.9313,42.94656,3.19084,-99.36,39.56,-15.64
-0.1337891,-0.2856445,1.087891,83.13741,35.20611,7.564886,-105.8,34.96,-11.96
-0.1149902,-0.2910156,1.082764,86.0687,28.45038,14.61832,-105.8,34.96,-11.96
-0.08959961,-0.3051758,1.063721,86.61832,32.48855,18.80153,-105.8,34.96,-11.96
-0.0859375,-0.3256836,1.048584,85.9771,30.9771,28.29008,-115.0,28.52,-11.96
-0.07006836,-0.3200684,1.005371,86.10687,20.56489,35.25191,-115.0,28.52,-11.96
-0.01049805,-0.3166504,0.9489746,83.71756,14.81679,29.80916,-122.36,23.0,-12.88
0.005371094,-0.3041992,0.8947754,74.46565,16.19084,22.77863,-122.36,23.0,-12.88
-0.003417969,-0.3039551,0.8666992,61.9313,13.79389,21.70992,-122.36,23.0,-12.88
0.01782227,-0.298584,0.8352051,52.60305,8.526717,22.61832,-128.8,17.48,-16.56
0.03979492,-0.2995605,0.7866211,38.64885,-0.8396947,17.94657,-128.8,17.48,-16.56
0.04321289,-0.2871094,0.7597656,19.0687,-1.854962,12.87023,-128.8,17.48,-16.56
0.05859375,-0.3010254,0.7719727,4.442748,-3.374046,11.93893,-130.64,14.72,-20.24
0.06787109,-0.2851563,0.7751465,-14.12977,-8.022901,7.671756,-130.64,14.72,-20.24
0.03125,-0.279541,0.7937012,-27.21374,-13.22137,4.664122,-129.72,16.56,-22.08
-0.006103516,-0.2695313,0.8447266,-41.79389,-21.62595,6.129771,-129.72,16.56,-22.08
-0.002685547,-0.2626953,0.9052734,-51.29771,-23.53435,14.1145,-129.72,16.56,-22.08
0.03491211,-0.2475586,0.9382324,-60.00763,-27.19847,15.0458,-124.2,23.92,-23.0
0.06347656,-0.232666,0.9609375,-68.71756,-30.63359,-2.916031,-124.2,23.92,-23.0
0.03320313,-0.2294922,1.016113,-79.66412,-23.13741,-24.64122,-124.2,23.92,-23.0
-0.01928711,-0.2185059,1.053223,-88.41222,-11.08397,-36.01527,-116.84,29.44,-24.84
-0.07714844,-0.2363281,1.118408,-88.15267,-17.0458,-30.89313,-116.84,29.44,-24.84
-0.07666016,-0.1872559,1.130371,-85.83206,-7.870229,-26.8855,-116.84,29.44,-24.84
-0.02905273,-0.1743164,1.165283,-84.82442,8.129771,-47.33588,-109.48,34.04,-23.92
-0.0007324219,-0.142334,1.196289,-80.73283,22.26718,-74.13741,-109.48,34.04,-23.92
-0.1132813,-0.1623535,1.189453,-66.13741,24.45038,-97.98473,-104.88,34.04,-18.4
-0.3464355,-0.1499023,1.161865,-52.26717,-0.6335878,-68.87023,-104.88,34.04,-18.4
-0.322998,-0.1657715,1.148926,-35.85496,-26.26718,-32.28244,-104.88,34.04,-18.4
-0.2365723,-0.1208496,1.088623,-36.1832,-13.72519,-11.89313,-103.04,34.04,-17.48
-0.2111816,-0.1008301,1.068604,-37.21374,4.687023,-17.67939,-103.04,34.04,-17.48
-0.1921387,-0.09594727,1.068604,-17.05343,-4.015267,9.152672,-100.28,34.96,-16.56
-0.1213379,-0.06225586,1.080078,-9.946565,3.335878,7.89313,-100.28,34.96,-16.56
-0.1083984,-0.05908203,1.106445,-1.954198,10.80916,-1.694656,-99.36,35.88,-16.56
-0.1379395,-0.07202148,1.128418,10.45038,14.31298,-5.335878,-99.36,35.88,-16.56
-0.1252441,-0.08056641,1.105957,20.13741,17.80153,-5.80916,-99.36,36.8,-15.64
-0.1274414,-0.09814453,1.099609,27.05343,24.82443,-5.076336,-99.36,36.8,-15.64
-0.1342773,-0.119873,1.090332,35.54198,26.99237,1.015267,-99.36,36.8,-15.64
-0.1086426,-0.1442871,1.124756,40.19847,26.39695,0.7175572,-101.2,34.96,-14.72
-0.1413574,-0.157959,1.126953,48.19084,29.45038,-2.076336,-101.2,34.96,-14.72
-0.1542969,-0.2067871,1.121094,56.26717,31.86259,9.503817,-101.2,34.96,-14.72
-0.1472168,-0.2338867,1.133057,60.77863,29.71756,22.99237,-104.88,33.12,-11.96
-0.1140137,-0.2602539,1.166016,66.87023,29.0916,20.8855,-104.88,33.12,-11.96
-0.151123,-0.2768555,1.155762,77.24428,27.46565,19.15267,-110.4,29.44,-10.12
-0.230957,-0.2937012,1.15625,87.22137,21.22137,40.67939,-110.4,29.44,-10.12
-0.2246094,-0.3125,1.118896,91.68702,11.31298,65.0687,-110.4,29.44,-10.12
-0.08081055,-0.3154297,1.078369,93.63359,15.32061,69.16031,-118.68,25.76,-11.96
-0.04418945,-0.3061523,1.054688,88.29008,13.71756,61.77099,-118.68,25.76,-11.96
-0.005615234,-0.3239746,1.022217,88.87786,10.84733,51.71756,-118.68,25.76,-11.96
0.01342773,-0.3032227,0.9448242,81.64122,9.603053,37.9542,-125.12,22.08,-16.56
0.01245117,-0.2819824,0.901123,64.32825,13.80916,27.75573,-125.12,22.08,-16.56
0.06542969,-0.2946777,0.861084,51.56488,21.30534,19.16031,-132.48,16.56,-21.16
0.07080078,-0.2941895,0.8391113,42.83206,16.58015,-0.02290076,-132.48,16.56,-21.16
0.04345703,-0.2805176,0.7802734,29.74046,16.30534,-1.984733,-132.48,16.56,-21.16
0.03344727,-0.2722168,0.7463379,14.63359,11.0229,0.480916,-135.24,12.88,-22.08
0.05786133,-0.2641602,0.7485352,-1.061069,3.694656,-0.6641222,-135.24,12.88,-22.08
0.04174805,-0.2316895,0.7600098,-21.25954,-3.183206,-2.282443,-135.24,12.88,-22.08
-0.009033203,-0.2390137,0.8105469,-33.61069,-9.587787,-11.63359,-134.32,12.88,-23.0
-0.06958008,-0.2421875,0.8630371,-39.41221,-21.29008,3.938931,-134.32,12.88,-23.0
-0.046875,-0.2253418,0.8950195,-44.89313,-24.90076,22.0,-130.64,18.4,-22.08
0.02075195,-0.2180176,0.921875,-58.77099,-23.19084,32.41985,-130.64,18.4,-22.08
0.1162109,-0.2094727,0.9543457,-65.66412,-26.13741,18.83969,-130.64,18.4,-22.08
0.05126953,-0.2338867,1.038086,-65.54198,-27.25954,-16.65649,-124.2,26.68,-23.92
-0.1069336,-0.2436523,1.040283,-66.09924,-25.98473,-16.38931,-124.2,26.68,-23.92
-0.1506348,-0.2514648,1.02002,-70.43511,-27.0458,6.977099,-124.2,26.68,-23.92
-0.07348633,-0.213623,1.070068,-75.70992,-30.45802,26.32825,-116.84,32.2,-25.76
0.04858398,-0.1992188,1.110352,-78.06107,-27.65649,16.09924,-116.84,32.2,-25.76
0.05737305,-0.1755371,1.155029,-76.90839,-18.16031,-22.22901,-107.64,38.64,-26.68
-0.08935547,-0.1665039,1.140625,-74.12977,-7.763359,-19.64122,-107.64,38.64,-26.68
-0.1096191,-0.1245117,1.143311,-70.87786,-13.87023,6.244275,-107.64,38.64,-26.68
0.03955078,-0.0859375,1.186279,-64.23664,-18.54962,7.259542,-100.28,42.32,-26.68
0.04833984,-0.05786133,1.186035,-54.34351,-9.320611,-28.00763,-100.28,42.32,-26.68
-0.08203125,-0.07006836,1.134766,-49.64885,5.160306,-31.38931,-100.28,42.32,-26.68
-0.1542969,-0.07910156,1.12915,-41.65649,-0.6946565,-10.39695,-96.6,43.24,-25.76
-0.09521484,-0.06079102,1.130371,-29.24427,-9.496183,0.5877862,-96.6,43.24,-25.76
-0.04760742,-0.04199219,1.10083,-22.00763,-2.465649,-10.92366,-96.6,43.24,-25.76
-0.1491699,-0.06323242,1.106689,-14.79389,5.778626,-13.44275,-93.84,45.08,-26.68
-0.1916504,-0.05957031,1.123291,-6.961832,4.961832,-4.419847,-93.84,45.08,-26.68
-0.1572266,-0.05102539,1.10376,7.389313,5.267176,2.251908,-93.84,45.08,-26.68
-0.1181641,-0.05615234,1.121826,13.79389,14.47328,-0.9923664,-93.84,45.08,-26.68
-0.107666,-0.05834961,1.134766,19.87023,22.42748,-5.389313,-93.84,45.08,-26.68
-0.1152344,-0.07543945,1.154541,28.0458,26.17557,-5.580153,-94.76,45.08,-25.76
-0.1091309,-0.09716797,1.165283,40.1832,27.22137,-6.053435,-94.76,45.08,-25.76
-0.1420898,-0.1657715,1.166748,64.29771,37.34351,-1.099237,-97.52,42.32,-23.0
-0.112793,-0.2053223,1.189453,74.07633,36.67176,14.30534,-103.04,39.56,-20.24
-0.08251953,-0.2211914,1.18042,82.74046,28.93893,16.82443,-103.04,39.56,-20.24
-0.07348633,-0.2473145,1.141846,88.57252,34.52672,14.47328,-103.04,39.56,-20.24
-0.1142578,-0.2839355,1.103516,90.14503,31.70229,29.33588,-111.32,34.96,-18.4
-0.07495117,-0.2941895,1.088135,97.27481,16.9084,40.70229,-111.32,34.96,-18.4
0.003173828,-0.2819824,1.014648,95.12977,15.70992,45.26717,-111.32,34.96,-18.4
0.03833008,-0.2993164,0.9838867,87.87786,14.42748,39.87786,-119.6,30.36,-21.16
0.03100586,-0.2927246,0.9406738,82.94656,9.297709,35.67939,-119.6,30.36,-21.16
0.04101563,-0.2971191,0.8950195,77.1832,3.770992,31.17557,-119.6,30.36,-21.16
0.07250977,-0.2868652,0.8425293,61.90076,0.6412213,29.45802,-126.96,24.84,-25.76
0.1269531,-0.2700195,0.8044434,46.49618,0.7251908,20.94657,-126.96,24.84,-25.76
0.1296387,-0.2727051,0.8083496,28.94657,0.610687,5.0,-130.64,22.08,-30.36
0.08325195,-0.2663574,0.7893066,15.59542,-1.274809,-7.435114,-130.64,22.08,-30.36
0.05859375,-0.2719727,0.7746582,-0.5801527,-5.755725,-8.473283,-130.64,22.08,-30.36
0.01538086,-0.2663574,0.7722168,-20.32825,-5.290076,-11.91603,-131.56,20.24,-32.2
-0.02050781,-0.2744141,0.8027344,-36.03053,-6.015267,-11.29771,-131.56,20.24,-32.2
-0.04296875,-0.2741699,0.8522949,-47.74809,-11.41221,-1.816794,-129.72,23.0,-31.28
-0.02832031,-0.2651367,0.8623047,-56.47328,-14.81679,0.3816794,-129.72,23.0,-31.28
-0.01977539,-0.2854004,0.8894043,-71.51908,-15.03053,4.229008,-129.72,23.0,-31.28
-0.01928711,-0.2890625,0.9348145,-86.01527,-17.87786,3.259542,-122.36,30.36,-30.36
-0.03662109,-0.2722168,1.010254,-97.54198,-20.23664,-2.961832,-122.36,30.36,-30.36
-0.03417969,-0.2451172,1.098877,-103.8168,-17.64886,-0.5954198,-122.36,30.36,-30.36
0.02294922,-0.2058105,1.167725,-102.855,-5.229008,-13.23664,-113.16,37.72,-29.44
-0.02612305,-0.1987305,1.201416,-94.83969,-8.106871,-13.1145,-113.16,37.72,-29.44
-0.03588867,-0.1555176,1.230225,-84.35114,-15.30534,-13.29008,-103.04,42.32,-27.6
-0.01513672,-0.1350098,1.237793,-70.10687,-3.503817,-18.69466,-103.04,42.32,-27.6
0.03613281,-0.1293945,1.180908,-65.8855,6.80916,-26.29008,-103.04,42.32,-27.6
0.05688477,-0.1425781,1.148193,-61.14504,14.77863,-42.08397,-97.52,44.16,-25.76
0.02954102,-0.1538086,1.104492,-56.55725,12.89313,-55.90076,-97.52,44.16,-25.76
-0.09375,-0.1706543,1.080811,-49.74046,5.977099,-46.57252,-97.52,44.16,-25.76
-0.1557617,-0.1958008,1.063232,-40.70229,-9.969465,-24.87023,-95.68,43.24,-23.92
-0.1323242,-0.1435547,1.006836,-37.51145,-14.71756,-7.312977,-95.68,43.24,-23.92
-0.1096191,-0.1079102,1.024414,-35.33588,-10.22901,2.603053,-95.68,43.24,-23.92
-0.09423828,-0.0769043,1.085205,-31.9542,-9.748092,3.763359,-92.92,45.08,-24.84
-0.1037598,-0.06713867,1.13916,-19.74046,-1.961832,-0.1374046,-92.92,45.08,-24.84
-0.1352539,-0.0625,1.175781,-4.541985,6.641222,-1.870229,-90.16,46.92,-25.76
-0.1542969,-0.078125,1.19458,11.64122,9.083969,-1.748092,-90.16,46.92,-25.76
-0.130127,-0.08520508,1.197021,26.58779,16.80916,-3.618321,-90.16,46.92,-25.76
-0.1384277,-0.1159668,1.1875,40.99237,24.59542,-5.778626,-91.08,46.0,-24.84
-0.1459961,-0.1503906,1.161377,51.03817,30.35878,-5.793893,-91.08,46.0,-24.84
-0.1171875,-0.1850586,1.143799,59.44275,38.96183,-5.61832,-91.08,46.0,-24.84
-0.1171875,-0.2138672,1.143066,65.59542,42.28244,-4.824428,-94.76,43.24,-23.0
-0.08374023,-0.2570801,1.056396,68.09161,44.92366,5.969466,-94.76,43.24,-23.0
-0.1115723,-0.2827148,1.163086,73.98473,32.16031,18.86259,-101.2,40.48,-20.24
-0.02172852,-0.2651367,1.109619,81.80916,36.63359,21.03817,-101.2,40.48,-20.24
-0.03369141,-0.2675781,1.121094,82.29008,39.50382,19.45802,-101.2,40.48,-20.24
-0.05639648,-0.2768555,1.109131,86.07633,40.54962,26.93893,-108.56,36.8,-17.48
-0.0456543,-0.2941895,1.081543,88.58778,34.47328,36.20611,-108.56,36.8,-17.48
0.01855469,-0.3061523,1.054443,91.58015,31.87786,29.17557,-108.56,36.8,-17.48
0.01660156,-0.3242188,1.031982,87.89313,37.8168,22.23664,-117.76,31.28,-16.56
0.04150391,-0.3493652,0.8657227,79.31298,14.53435,23.0,-125.12,23.92,-17.48
0.07763672,-0.3493652,0.7834473,61.41221,18.91603,9.862596,-125.12,23.92,-17.48
0.02514648,-0.3503418,0.7734375,43.30534,12.59542,-0.7633588,-125.12,23.92,-17.48
-0.003417969,-0.342041,0.7475586,29.46565,7.824428,1.312977,-130.64,18.4,-21.16
0.04199219,-0.3076172,0.7602539,12.12214,3.053435,3.160305,-130.64,18.4,-21.16
0.04931641,-0.3103027,0.7976074,-2.687023,0.3206107,-5.748092,-132.48,15.64,-22.08
0.01342773,-0.2944336,0.7741699,-16.87786,-6.267176,-10.73282,-132.48,15.64,-22.08
-0.01708984,-0.3122559,0.7922363,-32.22901,-8.267176,-9.015267,-132.48,15.64,-22.08
-0.04370117,-0.333252,0.8178711,-43.05344,-13.19084,-3.374046,-130.64,17.48,-22.08
-0.07373047,-0.3352051,0.8210449,-59.9542,-16.32825,4.687023,-130.64,17.48,-22.08
-0.05249023,-0.354248,0.8659668,-79.32061,-25.67939,17.79389,-130.64,17.48,-22.08
0.04882813,-0.3327637,0.9316406,-92.74809,-27.54198,7.129771,-124.2,23.92,-22.08
0.05371094,-0.3493652,1.01001,-108.2519,-24.0458,-17.0916,-124.2,23.92,-22.08
-0.06567383,-0.3522949,1.053711,-116.0229,-16.44275,-36.54198,-114.08,33.12,-22.08
-0.1591797,-0.3452148,1.048096,-122.8931,-19.96183,-25.53435,-114.08,33.12,-22.08
-0.1257324,-0.3354492,1.12207,-132.2519,-25.39695,-5.022901,-114.08,33.12,-22.08
-0.1037598,-0.2770996,1.205078,-127.9084,-23.51145,-12.84733,-103.04,39.56,-21.16
-0.1379395,-0.2041016,1.208984,-121.0382,-21.57252,-16.50382,-103.04,39.56,-21.16
-0.1948242,-0.1616211,1.278809,-111.3206,-24.29771,-2.175573,-103.04,39.56,-21.16
-0.1547852,-0.1105957,1.328369,-87.91603,-24.87786,7.358778,-92.0,45.08,-20.24
-0.1103516,-0.04980469,1.282227,-67.57252,-18.54962,-2.435115,-92.0,45.08,-20.24
-0.1262207,-0.03125,1.239258,-53.86259,-5.007634,-7.51145,-85.56001,50.6,-21.16
-0.1818848,-0.03735352,1.218994,-34.75573,1.40458,-5.114504,-85.56001,50.6,-21.16
-0.1679688,-0.04589844,1.196777,-16.42748,6.977099,0.961832,-85.56001,50.6,-21.16
-0.1313477,-0.0480957,1.180176,-1.923664,10.76336,1.80916,-82.8,52.44,-21.16
-0.1040039,-0.06298828,1.190674,17.54962,14.74046,1.70229,-82.8,52.44,-21.16
-0.06665039,-0.0769043,1.167236,34.03053,18.56489,1.374046,-82.8,52.44,-21.16
-0.06445313,-0.1308594,1.185791,48.1832,21.54962,-3.854962,-83.72,51.52,-20.24
-0.1196289,-0.1533203,1.192139,61.09924,23.0229,-2.381679,-83.72,51.52,-20.24
-0.1181641,-0.1811523,1.185059,72.50381,24.20611,-1.030534,-87.4,48.76,-19.32
-0.123291,-0.213623,1.19751,84.36641,27.29771,-0.9083969,-87.4,48.76,-19.32
-0.1071777,-0.2468262,1.195068,94.30534,33.68702,0.1832061,-87.4,48.76,-19.32
-0.1274414,-0.2824707,1.186035,99.10687,35.1145,2.862595,-94.76,44.16,-18.4
-0.04956055,-0.3618164,1.283203,105.4427,41.33588,8.267176,-94.76,44.16,-18.4
-0.2194824,-0.3459473,1.152832,108.0,26.13741,33.43512,-94.76,44.16,-18.4
-0.1015625,-0.3271484,1.176514,116.3206,30.48092,25.35114,-104.88,39.56,-15.64
-0.0456543,-0.3562012,1.144287,124.687,28.52672,21.10687,-104.88,39.56,-15.64
-0.03198242,-0.3745117,1.074463,125.2901,25.72519,19.77863,-116.84,31.28,-16.56
-0.006835938,-0.373291,0.980957,119.0076,23.03817,18.03817,-116.84,31.28,-16.56
0.005615234,-0.3830566,0.9111328,110.7176,21.51145,14.03053,-116.84,31.28,-16.56
-0.02197266,-0.390625,0.8349609,93.13741,18.89313,12.94656,-127.88,21.16,-21.16
-0.02270508,-0.3747559,0.7753906,76.1832,8.366412,16.67175,-127.88,21.16,-21.16
0.01074219,-0.3483887,0.7492676,56.77863,1.450382,25.77863,-127.88,21.16,-21.16
0.05297852,-0.3293457,0.7502441,43.38168,-0.5343512,18.17557,-134.32,14.72,-26.68
0.03466797,-0.3198242,0.7250977,23.01527,-3.48855,12.42748,-134.32,14.72,-26.68
0.04833984,-0.3183594,0.6982422,5.503817,-10.07634,6.030534,-135.24,13.8,-30.36
0.0534668,-0.3154297,0.6879883,-17.86259,-12.0687,4.587786,-135.24,13.8,-30.36
0.05224609,-0.3132324,0.753418,-42.19084,-10.12214,0.9389313,-135.24,13.8,-30.36
0.009765625,-0.3305664,0.8132324,-60.96183,-13.35114,-3.625954,-133.4,17.48,-30.36
-0.02563477,-0.3120117,0.8583984,-75.771,-15.92366,2.916031,-133.4,17.48,-30.36
0.0,-0.3190918,0.9101563,-88.39695,-22.58015,13.50382,-133.4,17.48,-30.36
0.08764648,-0.1906738,1.150635,-121.1756,-15.37405,-32.45802,-126.04,24.84,-27.6
-0.1362305,-0.2001953,1.241455,-108.7939,-11.69466,-47.85496,-115.0,34.96,-25.76
-0.2546387,-0.1789551,1.193604,-99.48855,-12.93893,-15.38931,-115.0,34.96,-25.76
-0.159668,-0.1599121,1.172363,-95.85497,-12.96947,3.427481,-115.0,34.96,-25.76
-0.07421875,-0.1318359,1.195068,-96.51145,-2.282443,-2.824427,-104.88,40.48,-24.84
-0.05517578,-0.1035156,1.176025,-91.64886,-0.07633588,-20.31298,-104.88,40.48,-24.84
-0.0480957,-0.1008301,1.178955,-82.19084,2.068702,-46.22901,-96.6,44.16,-23.0
-0.2180176,-0.1152344,1.172607,-76.229,15.37405,-43.9313,-96.6,44.16,-23.0
-0.3337402,-0.1179199,1.186279,-63.41985,11.05344,-15.70992,-96.6,44.16,-23.0
-0.2490234,-0.08374023,1.175781,-46.78626,-1.908397,5.343512,-92.0,46.0,-20.24
-0.1467285,-0.03271484,1.162354,-35.25954,-1.748092,15.15267,-92.0,46.0,-20.24
-0.07592773,-0.01098633,1.164551,-21.01527,5.725191,9.862596,-92.0,46.0,-20.24
-0.05712891,-0.0246582,1.188721,-7.740458,11.76336,-5.137404,-88.32,47.84,-19.32
-0.1235352,-0.03857422,1.182617,10.43511,14.96947,-15.69466,-88.32,47.84,-19.32
-0.1433105,-0.05297852,1.183594,27.9313,11.80916,-10.19084,-88.32,47.84,-19.32
-0.1318359,-0.07324219,1.181885,39.17557,15.0,-2.167939,-88.32,47.84,-19.32
-0.09960938,-0.09619141,1.16626,54.93893,14.51145,-1.885496,-88.32,47.84,-19.32
-0.08203125,-0.1210938,1.171387,63.8855,24.03817,-14.03053,-92.0,46.0,-18.4
-0.121582,-0.1689453,1.172363,73.30534,33.98473,-23.74809,-92.0,46.0,-18.4
-0.1789551,-0.2185059,1.198975,82.64886,30.96947,-18.03817,-92.0,46.0,-18.4
-0.2722168,-0.2924805,1.269775,99.30534,26.70992,1.709924,-99.36,41.4,-17.48
-0.09204102,-0.3410645,1.212158,100.3435,27.94657,24.84733,-99.36,41.4,-17.48
-0.02197266,-0.2910156,1.172119,106.6718,25.10687,21.65649,-108.56,35.88,-16.56
-0.0546875,-0.3012695,1.147461,113.1527,28.38168,10.0916,-108.56,35.88,-16.56
-0.07543945,-0.3354492,1.091064,115.458,31.62595,10.40458,-108.56,35.88,-16.56
-0.07299805,-0.3457031,1.056641,110.0153,30.39695,20.56489,-120.52,27.6,-16.56
-0.04052734,-0.3400879,1.012939,108.8168,25.18321,21.03053,-120.52,27.6,-16.56
-0.03930664,-0.3244629,0.9094238,101.1756,28.07634,19.50382,-120.52,27.6,-16.56
-0.006835938,-0.338623,0.8239746,85.27481,19.35114,19.64122,-129.72,17.48,-21.16
0.0390625,-0.3156738,0.7595215,64.85497,15.68702,18.51145,-129.72,17.48,-21.16
0.0390625,-0.2995605,0.7324219,44.64885,13.54198,10.17557,-135.24,11.04,-25.76
-0.01025391,-0.3049316,0.7380371,28.61069,10.06107,10.0,-135.24,11.04,-25.76
-0.002197266,-0.2766113,0.7138672,9.938931,-2.664122,16.24427,-135.24,11.04,-25.76
0.06689453,-0.2695313,0.7209473,-9.061069,-5.755725,13.93893,-136.16,10.12,-26.68
0.09790039,-0.2541504,0.7470703,-30.40458,-8.679389,3.374046,-136.16,10.12,-26.68
0.05541992,-0.2583008,0.7944336,-48.58015,-9.091603,-4.015267,-136.16,10.12,-26.68
0.0144043,-0.2810059,0.8288574,-59.67939,-18.70992,0.7938931,-133.4,13.8,-25.76
0.06323242,-0.2749023,0.8679199,-72.71756,-23.62595,7.305344,-133.4,13.8,-25.76
0.1538086,-0.262207,0.9257813,-87.16031,-24.45038,2.29771,-126.96,23.0,-23.92
0.1520996,-0.2404785,1.002686,-96.44275,-22.47328,-17.48092,-126.96,23.0,-23.92
0.1003418,-0.2470703,1.071777,-104.5343,-14.94656,-37.64885,-126.96,23.0,-23.92
0.04956055,-0.2109375,1.115479,-105.3053,-22.46565,-41.57252,-117.76,30.36,-23.0
-0.01757813,-0.173584,1.216797,-97.25191,-28.54962,-58.29008,-117.76,30.36,-23.0
-0.2568359,-0.1818848,1.185791,-88.39695,-6.816794,-59.64885,-117.76,30.36,-23.0
-0.2443848,-0.06713867,1.999939,-92.75572,-127.4504,250.1298,-109.48,34.04,-22.08
0.1665039,-0.2111816,1.221191,-38.27481,-125.2977,-70.90839,-109.48,34.04,-22.08
0.1313477,-0.08007813,1.128906,-93.26717,13.64886,-6.633588,-101.2,40.48,-23.0
-0.4260254,-0.1694336,1.304199,-50.16794,-20.38931,-56.69466,-101.2,40.48,-23.0
-0.4746094,-0.1049805,1.170654,-36.14504,-32.45038,18.94657,-101.2,40.48,-23.0
-0.2495117,-0.0793457,1.116699,-39.58779,-16.00763,52.67939,-97.52,42.32,-24.84
-0.1228027,-0.09301758,1.176514,-43.80153,-4.206107,49.61069,-97.52,42.32,-24.84
-0.07421875,-0.05053711,1.162842,-9.984733,6.396946,14.08397,-92.0,46.92,-24.84
-0.09570313,-0.04345703,1.161865,2.862595,17.92366,22.44275,-92.0,46.92,-24.84
-0.0769043,-0.06005859,1.147217,16.8855,17.51908,27.36641,-90.16,47.84,-23.92
-0.02929688,-0.05371094,1.134033,25.40458,13.21374,28.82443,-90.16,47.84,-23.92
-0.01074219,-0.04101563,1.166504,38.80153,19.32825,17.16031,-90.16,47.84,-23.92
-0.01782227,-0.04638672,1.176514,52.48855,24.28244,9.061069,-90.16,48.76,-23.0
-0.02685547,-0.07275391,1.178955,63.12214,25.25954,7.816794,-90.16,48.76,-23.0
-0.07080078,-0.1064453,1.228271,78.33588,21.61069,6.671756,-94.76,46.0,-21.16
-0.07104492,-0.1201172,1.27002,88.61069,17.84733,13.61069,-94.76,46.0,-21.16
-0.05004883,-0.1379395,1.259521,105.1221,14.29008,17.38931,-94.76,46.0,-21.16
-0.02734375,-0.1315918,1.223877,117.2824,12.41985,17.90076,-103.04,42.32,-21.16
-0.001464844,-0.1811523,1.19873,120.7176,18.28244,9.832061,-103.04,42.32,-21.16
-0.05102539,-0.2280273,1.183594,124.6794,21.08397,7.908397,-103.04,42.32,-21.16
-0.03198242,-0.2434082,1.098877,123.4351,22.59542,19.67175,-115.0,34.96,-23.0
0.0,-0.2583008,1.01709,118.3053,18.63359,12.01527,-115.0,34.96,-23.0
-0.01123047,-0.2526855,0.9436035,109.0,20.64886,1.10687,-126.04,24.84,-27.6
-0.02368164,-0.2905273,0.8830566,95.25954,18.82443,-2.022901,-126.04,24.84,-27.6
-0.01733398,-0.2727051,0.8286133,80.41985,15.48855,-6.29771,-126.04,24.84,-27.6
-0.02294922,-0.2648926,0.7792969,59.72519,15.60305,-7.442748,-134.32,14.72,-31.28
-0.03808594,-0.2722168,0.713623,40.35878,12.68702,-7.534351,-134.32,14.72,-31.28
-0.05029297,-0.2714844,0.7060547,19.51145,10.0458,0.389313,-134.32,14.72,-31.28
-0.03344727,-0.2570801,0.6984863,-3.908397,6.351145,2.068702,-137.08,10.12,-33.12
-0.04199219,-0.2565918,0.7355957,-22.9313,2.938931,6.320611,-137.08,10.12,-33.12
-0.09228516,-0.2446289,0.7717285,-39.67939,-1.854962,6.274809,-136.16,11.04,-33.12
-0.1140137,-0.2438965,0.8066406,-55.27481,-2.801527,9.396947,-136.16,11.04,-33.12
-0.1413574,-0.2321777,0.8588867,-71.07633,-4.526718,20.08397,-136.16,11.04,-33.12
-0.1328125,-0.2189941,0.9599609,-81.9313,-13.84733,28.44275,-130.64,19.32,-30.36
-0.06762695,-0.1948242,1.021973,-86.90839,-16.40458,39.55725,-130.64,19.32,-30.36
-0.02124023,-0.1848145,1.068604,-85.30534,-16.49618,32.07634,-130.64,19.32,-30.36
0.05664063,-0.135498,1.067627,-88.9771,-17.36641,15.12214,-121.44,30.36,-29.44
0.0703125,-0.1210938,1.116211,-92.44275,-12.0,-9.793893,-121.44,30.36,-29.44
-0.01416016,-0.1276855,1.172119,-88.25191,-3.122137,-21.59542,-111.32,37.72,-29.44
-0.05859375,-0.1018066,1.139404,-88.8855,-9.648855,-17.67175,-111.32,37.72,-29.44
-0.005126953,-0.0847168,1.182617,-86.01527,-14.67176,-34.06107,-111.32,37.72,-29.44
-0.01171875,-0.01635742,1.146973,-80.63359,-7.503817,-55.67176,-103.96,41.4,-28.52
-0.04638672,-0.01196289,1.14502,-79.8855,1.10687,-65.85497,-103.96,41.4,-28.52
-0.09204102,-0.02294922,1.148926,-79.79389,7.374046,-66.29771,-103.96,41.4,-28.52
-0.1523438,0.004882813,1.192627,-67.93893,10.92366,-67.08397,-100.28,42.32,-26.68
-0.2878418,-0.00390625,1.221924,-54.67939,8.236641,-65.41985,-100.28,42.32,-26.68
-0.364502,0.005615234,1.167969,-34.89313,6.412214,-26.69466,-98.44,42.32,-24.84
-0.2653809,-0.007324219,1.155762,-22.96183,-8.396947,21.0687,-98.44,42.32,-24.84
-0.0847168,0.05224609,1.14209,-9.206107,-7.717557,28.17557,-98.44,42.32,-24.84
-0.0002441406,0.03637695,1.185303,-2.076336,11.12214,16.31298,-94.76,45.08,-25.76
-0.04614258,0.03955078,1.192627,16.45038,11.9542,-4.175572,-94.76,45.08,-25.76
-0.07373047,0.01416016,1.185303,32.0,13.05344,-4.847328,-94.76,45.08,-25.76
-0.08959961,-0.002197266,1.184814,41.41985,18.61069,-2.648855,-96.6,44.16,-24.84
-0.1254883,-0.03344727,1.229492,54.12214,18.63359,-6.671756,-96.6,44.16,-24.84
-0.1943359,-0.03955078,1.242188,73.28244,19.94657,-6.541985,-96.6,44.16,-24.84
-0.2050781,-0.1179199,1.217285,84.96947,27.80153,9.908397,-100.28,42.32,-23.92
-0.1750488,-0.1555176,1.206055,90.99236,22.83969,25.91603,-100.28,42.32,-23.92
-0.08398438,-0.1777344,1.19458,97.69466,15.71756,23.19847,-107.64,37.72,-23.92
-0.09350586,-0.1977539,1.185059,102.9389,22.0229,16.35114,-107.64,37.72,-23.92
0.005859375,-0.2419434,1.078613,106.7557,12.56489,25.62595,-117.76,32.2,-24.84
0.007568359,-0.2531738,1.013916,100.916,18.12977,13.96183,-117.76,32.2,-24.84
0.01196289,-0.2536621,0.9675293,92.0229,17.67939,11.0229,-126.96,23.92,-27.6
0.02124023,-0.2680664,0.9047852,83.8168,12.87786,-0.05343511,-126.96,23.92,-27.6
0.01098633,-0.265625,0.8364258,71.41985,14.98473,-5.91603,-126.96,23.92,-27.6
-0.001953125,-0.2731934,0.7822266,52.8168,12.94656,-4.267176,-134.32,15.64,-32.2
0.02001953,-0.2739258,0.736084,36.0687,11.84733,7.290076,-134.32,15.64,-32.2
0.05541992,-0.2736816,0.7263184,17.80916,3.145038,2.48855,-138.0,10.12,-34.96
0.0456543,-0.265625,0.7246094,-1.580153,-0.2900764,-10.48855,-138.0,10.12,-34.96
0.0168457,-0.2387695,0.7380371,-21.67939,-4.984733,-10.09924,-138.0,10.12,-34.96
-0.008789063,-0.2375488,0.7902832,-37.12977,-9.503817,-3.030534,-137.08,10.12,-34.96
-0.01977539,-0.2253418,0.8444824,-50.06107,-12.90076,0.5801527,-137.08,10.12,-34.96
-0.03027344,-0.2043457,0.8986816,-64.05344,-16.18321,6.015267,-137.08,10.12,-34.96
-0.1403809,-0.184082,0.9733887,-70.65649,-19.71756,30.80153,-133.4,15.64,-33.12
-0.1572266,-0.1328125,1.025879,-70.51145,-30.59542,50.87023,-133.4,15.64,-33.12
-0.08789063,-0.1452637,1.07666,-70.92367,-31.98473,37.58015,-126.04,25.76,-36.8
-0.09521484,-0.08935547,1.105713,-72.52672,-26.94657,31.19084,-126.04,25.76,-36.8
-0.08374023,-0.06982422,1.117432,-74.38168,-26.0916,42.37405,-126.04,25.76,-36.8
-0.07128906,-0.09692383,1.13623,-73.39695,-19.71756,51.71756,-115.92,34.96,-36.8
-0.03344727,-0.07055664,1.112793,-74.67939,-11.51145,53.32061,-115.92,34.96,-36.8
0.02490234,-0.06469727,1.131348,-74.41985,-10.76336,54.96947,-115.92,34.96,-36.8
0.08959961,-0.04541016,1.113525,-73.87786,-8.59542,41.21374,-104.88,43.24,-36.8
0.07641602,-0.02807617,1.125977,-71.58778,-3.664122,23.38931,-104.88,43.24,-36.8
0.0390625,-0.01904297,1.131592,-69.229,-0.2748091,17.33588,-97.52,48.76,-35.88
0.04980469,0.01245117,1.149902,-64.09161,3.366412,21.61832,-97.52,48.76,-35.88
0.09106445,0.02709961,1.165039,-53.01527,-0.9465649,3.618321,-97.52,48.76,-35.88
0.03955078,0.0534668,1.156494,-42.99237,4.625954,-5.473282,-90.16,52.44,-35.88
-0.01538086,0.03515625,1.182129,-29.36641,2.435115,-10.27481,-90.16,52.44,-35.88
0.006347656,0.05053711,1.165283,-15.38931,0.7557252,-6.122138,-90.16,52.44,-35.88
0.009277344,0.06640625,1.166016,-2.251908,3.068702,-6.603054,-87.4,53.36,-36.8
-0.008056641,0.05883789,1.144531,9.236641,7.236641,-6.603054,-87.4,53.36,-36.8
-0.00390625,0.04345703,1.154541,19.10687,5.152672,-7.91603,-88.32,53.36,-36.8
0.02661133,0.02319336,1.167969,30.65649,7.687023,-15.24428,-88.32,53.36,-36.8
0.005371094,0.006835938,1.155029,39.58015,15.03817,-26.05343,-88.32,53.36,-36.8
-0.04711914,-0.008789063,1.165527,48.48092,16.48092,-32.10687,-91.08,51.52,-36.8
-0.08569336,-0.02954102,1.182129,54.87786,21.43511,-28.0916,-91.08,51.52,-36.8
-0.05712891,-0.05371094,1.219238,65.0229,23.27481,-21.20611,-91.08,51.52,-36.8
-0.02856445,-0.07128906,1.270508,75.25191,27.00763,-24.49618,-97.52,47.84,-34.96
-0.06176758,-0.1357422,1.209473,84.69466,25.21374,-24.85496,-97.52,47.84,-34.96
-0.04833984,-0.1086426,1.181152,89.32825,25.99237,-14.74809,-106.72,42.32,-34.04
-0.004882813,-0.1276855,1.147705,94.46565,23.87023,-12.48855,-106.72,42.32,-34.04
0.01318359,-0.1472168,1.138672,95.28244,21.25191,-11.61832,-106.72,42.32,-34.04
0.04296875,-0.1799316,1.100342,97.67175,21.78626,-10.32061,-116.84,34.96,-34.04
0.02246094,-0.1972656,1.053467,98.19084,17.41221,-7.847328,-116.84,34.96,-34.04
0.046875,-0.2036133,0.9790039,94.35878,11.25191,-4.824428,-116.84,34.96,-34.04
0.06884766,-0.2192383,0.8933105,86.14503,13.30534,-8.251908,-126.04,25.76,-36.8
0.06079102,-0.2341309,0.8405762,71.90839,9.732824,-13.07634,-126.04,25.76,-36.8
0.05664063,-0.2385254,0.7763672,55.96183,4.648855,-14.46565,-132.48,17.48,-39.56
0.0546875,-0.2380371,0.7246094,37.99237,2.78626,-14.36641,-132.48,17.48,-39.56
0.02880859,-0.2412109,0.6936035,16.79389,2.198473,-15.35878,-132.48,17.48,-39.56
0.001708984,-0.2329102,0.6992188,-2.854962,-0.3969466,-15.51908,-136.16,12.88,-41.4
-0.125,-0.2197266,0.8374023,-54.39695,-4.587786,2.526718,-135.24,14.72,-39.56
-0.1345215,-0.2055664,0.9138184,-62.35878,-9.206107,20.1145,-135.24,14.72,-39.56
-0.08007813,-0.1945801,0.9714355,-69.36641,-16.85496,29.72519,-135.24,14.72,-39.56
-0.02807617,-0.168457,1.014893,-71.05344,-19.38931,37.85496,-128.8,23.0,-37.72
0.04541016,-0.1533203,1.024902,-77.57252,-19.87023,36.85496,-128.8,23.0,-37.72
0.03027344,-0.161377,1.077637,-81.15267,-15.20611,21.14504,-120.52,33.12,-37.72
-0.05712891,-0.123291,1.092773,-83.9542,-7.832061,24.0229,-120.52,33.12,-37.72
-0.04516602,-0.1091309,1.115967,-81.67939,-7.549618,36.48855,-120.52,33.12,-37.72
0.05957031,-0.09692383,1.115234,-83.79389,-12.0229,35.17557,-110.4,40.48,-36.8
0.1191406,-0.06274414,1.105713,-86.41222,-9.916031,20.14504,-110.4,40.48,-36.8
0.1606445,-0.03540039,1.121582,-84.73283,-4.312977,-7.442748,-110.4,40.48,-36.8
0.06738281,-0.02075195,1.181152,-84.32825,0.9770992,-27.74046,-100.28,46.92,-36.8
-0.06860352,-0.001220703,1.205322,-75.08397,7.091603,-29.57252,-100.28,46.92,-36.8
-0.1467285,0.03442383,1.184814,-60.29771,2.480916,-6.656488,-94.76,48.76,-35.88
-0.06811523,0.05249023,1.19458,-44.24427,-4.854962,15.45038,-94.76,48.76,-35.88
0.0234375,0.0703125,1.176514,-33.25191,-1.648855,7.366412,-94.76,48.76,-35.88
0.01879883,0.07836914,1.187744,-25.61069,8.625955,-6.801527,-90.16,51.52,-35.88
-0.04272461,0.07128906,1.191895,-9.580153,10.12977,-18.57252,-90.16,51.52,-35.88
-0.07861328,0.05517578,1.200684,3.473282,15.0916,-15.27481,-90.16,51.52,-35.88
-0.078125,0.04858398,1.193359,18.86259,14.74809,-11.21374,-90.16,51.52,-34.96
-0.04907227,0.01318359,1.164551,30.57252,16.63359,-14.00763,-90.16,51.52,-34.96
-0.03979492,-0.009521484,1.174805,38.70229,22.79389,-20.15267,-92.0,49.68,-34.04
-0.08764648,-0.03173828,1.197266,46.72519,27.67939,-24.18321,-92.0,49.68,-34.04
-0.1181641,-0.05273438,1.199219,57.44275,29.22137,-17.26718,-92.0,49.68,-34.04
-0.1047363,-0.0793457,1.211426,66.61069,27.57252,-7.664122,-97.52,46.92,-31.28
-0.08569336,-0.09375,1.232178,78.10687,25.72519,2.175573,-97.52,46.92,-31.28
-0.03955078,-0.1186523,1.216553,87.83969,23.83206,5.80916,-97.52,46.92,-31.28
0.003173828,-0.15625,1.197021,97.49619,22.41221,3.343511,-105.8,42.32,-29.44
-0.01928711,-0.1977539,1.167236,104.9847,19.57252,1.160305,-105.8,42.32,-29.44
-0.04003906,-0.2092285,1.119141,104.3206,18.61069,10.59542,-115.92,35.88,-29.44
0.002685547,-0.2160645,1.053711,105.7939,14.70229,16.34351,-115.92,35.88,-29.44
0.05664063,-0.2214355,0.9953613,100.4504,10.82443,11.00763,-115.92,35.88,-29.44
0.05004883,-0.2407227,0.949707,93.41985,9.59542,4.267176,-126.04,28.52,-33.12
0.05908203,-0.2355957,0.8613281,81.96947,4.709924,1.984733,-126.04,28.52,-33.12
0.07592773,-0.2270508,0.8127441,67.31298,2.465649,-2.419847,-126.04,28.52,-33.12
0.04492188,-0.2248535,0.7807617,48.99237,4.305344,-9.503817,-132.48,20.24,-37.72
0.002197266,-0.2346191,0.7717285,29.30534,10.36641,-6.167939,-132.48,20.24,-37.72
-0.02050781,-0.2316895,0.7819824,16.13741,-1.038168,-1.725191,-136.16,15.64,-40.48
-0.006347656,-0.2121582,0.7631836,2.648855,-5.053435,-0.4656488,-136.16,15.64,-40.48
-0.04370117,-0.2260742,0.7495117,-13.12214,-3.755725,2.496183,-136.16,15.64,-40.48
-0.05981445,-0.2331543,0.7683105,-30.03053,-5.473282,13.43511,-135.24,16.56,-40.48
-0.05981445,-0.2229004,0.8276367,-48.12214,-7.580153,22.53435,-135.24,16.56,-40.48
-0.04467773,-0.2070313,0.8955078,-60.80916,-11.35114,20.0687,-135.24,16.56,-40.48
-0.05981445,-0.1784668,0.9443359,-68.65649,-12.25954,26.47328,-130.64,23.92,-39.56
-0.01416016,-0.1665039,1.019043,-75.32061,-10.01527,33.61832,-130.64,23.92,-39.56
-0.0002441406,-0.1403809,1.058105,-83.42748,-10.32061,30.15267,-130.64,23.92,-39.56
-0.02832031,-0.1318359,1.111328,-84.32061,-9.725191,29.8855,-121.44,33.12,-38.64
0.002441406,-0.1184082,1.166016,-82.56489,-8.114504,42.09924,-121.44,33.12,-38.64
0.078125,-0.09033203,1.15918,-74.83206,-12.23664,42.51908,-110.4,42.32,-37.72
0.1367188,-0.06347656,1.144775,-74.25191,-15.29008,26.41985,-110.4,42.32,-37.72
-0.04199219,-0.02880859,1.114746,-66.03053,-4.129771,8.870229,-101.2,47.84,-37.72
0.04321289,0.01220703,1.063721,-67.17558,-8.931297,9.511451,-101.2,47.84,-37.72
0.1469727,0.06494141,1.071777,-73.32061,5.877862,-22.76336,-94.76,50.6,-38.64
0.03515625,0.1142578,1.141846,-77.25191,24.34351,-52.65649,-94.76,50.6,-38.64
-0.1601563,0.1096191,1.213867,-68.71756,31.52672,-63.58015,-94.76,50.6,-38.64
-0.2546387,0.111084,1.247314,-51.21374,22.52672,-24.0687,-91.08,51.52,-35.88
-0.1401367,0.1223145,1.262207,-28.9313,8.358779,4.793893,-91.08,51.52,-35.88
0.01953125,0.1252441,1.22583,-9.954199,16.18321,3.282443,-88.32,52.44,-34.04
0.04370117,0.09912109,1.223389,3.229008,24.10687,-7.671756,-88.32,52.44,-34.04
0.04711914,0.05664063,1.232666,23.96947,20.49618,-16.35114,-88.32,52.44,-34.04
0.03759766,0.01049805,1.206543,39.67939,22.89313,-22.57252,-89.24,51.52,-31.28
-0.002685547,-0.02124023,1.164063,49.41221,19.85496,-24.45038,-89.24,51.52,-31.28
-0.04443359,-0.05029297,1.147949,59.91603,19.65649,-26.25191,-89.24,51.52,-31.28
-0.09570313,-0.08740234,1.169922,65.85497,23.67175,-29.06107,-94.76,48.76,-31.28
-0.1838379,-0.1125488,1.191895,76.06107,27.83969,-20.74046,-94.76,48.76,-31.28
-0.284668,-0.1447754,1.188965,85.26717,28.77099,3.320611,-94.76,48.76,-31.28
-0.354248,-0.1931152,1.173828,92.94656,17.26718,49.71756,-103.04,44.16,-28.52
-0.1662598,-0.208252,1.124023,96.23664,0.6259542,69.52672,-103.04,44.16,-28.52
0.02539063,-0.1955566,1.119141,91.67939,10.9084,61.45038,-110.4,41.4,-29.44
0.0871582,-0.1884766,1.102539,89.0,19.74809,29.48855,-110.4,41.4,-29.44
-0.00390625,-0.237793,1.105713,89.71756,19.76336,13.8626,-110.4,41.4,-29.44
0.01708984,-0.2561035,1.038086,92.89313,11.45802,21.68702,-118.68,36.8,-30.36
0.1108398,-0.2587891,0.9746094,90.03817,7.343512,15.33588,-118.68,36.8,-30.36
0.1379395,-0.2685547,0.902832,83.29771,4.435114,-0.8091603,-126.96,30.36,-34.04
0.09838867,-0.2792969,0.8308105,74.54198,4.610687,-12.87786,-126.96,30.36,-34.04
0.09423828,-0.2814941,0.7485352,60.84733,0.9541985,-16.27481,-126.96,30.36,-34.04
0.1228027,-0.2578125,0.6647949,33.96183,4.267176,-19.32825,-132.48,22.08,-37.72
0.1118164,-0.2563477,0.685791,7.679389,6.236641,-37.75573,-132.48,22.08,-37.72
0.0007324219,-0.265625,0.7248535,-13.36641,11.64886,-48.25191,-132.48,22.08,-37.72
-0.09375,-0.2817383,0.7387695,-30.30534,9.488549,-39.56488,-134.32,18.4,-37.72
-0.1286621,-0.277832,0.7663574,-46.85496,4.694656,-24.9771,-134.32,18.4,-37.72
-0.09082031,-0.3012695,0.8200684,-64.39695,5.900764,-19.16031,-134.32,18.4,-37.72
-0.1335449,-0.3054199,0.8764648,-78.43511,4.053435,-22.61832,-130.64,20.24,-33.12
-0.1340332,-0.2751465,0.984375,-92.13741,-9.129771,0.9465649,-130.64,20.24,-33.12
-0.1123047,-0.2351074,1.068848,-99.25191,-11.59542,10.55725,-123.28,28.52,-28.52
-0.09667969,-0.1975098,1.14502,-106.0916,6.969466,10.77099,-123.28,28.52,-28.52
-0.1276855,-0.1303711,1.244629,-103.6641,22.9771,13.62595,-123.28,28.52,-28.52
-0.1308594,-0.09912109,1.304688,-88.50381,11.98473,11.48092,-111.32,37.72,-23.92
-0.1376953,-0.0546875,1.254395,-68.98473,0.3435115,4.145038,-111.32,37.72,-23.92
-0.09570313,-0.03540039,1.208496,-65.63359,4.473282,-2.679389,-111.32,37.72,-23.92
-0.08154297,-0.01611328,1.169434,-63.74046,17.23664,-21.64122,-103.04,41.4,-23.0
-0.1140137,0.003173828,1.126709,-62.46565,29.30534,-37.74809,-103.04,41.4,-23.0
-0.1455078,0.02661133,1.120117,-59.56488,28.21374,-42.9084,-98.44,42.32,-19.32
-0.1894531,0.04931641,1.115234,-48.30534,6.122138,-32.83206,-98.44,42.32,-19.32
-0.1782227,0.07592773,1.091309,-41.96183,-0.02290076,-37.36641,-98.44,42.32,-19.32
-0.2255859,0.1125488,1.072998,-40.0458,16.0687,-33.1145,-96.6,42.32,-19.32
-0.2565918,0.1020508,1.12793,-32.12214,13.63359,-26.96183,-96.6,42.32,-19.32
-0.2595215,0.1408691,1.154541,-17.65649,6.465649,-14.58779,-96.6,42.32,-19.32
-0.1992188,0.1464844,1.173096,-3.290076,7.91603,-8.877863,-94.76,42.32,-17.48
-0.1809082,0.1162109,1.187256,9.778625,18.07634,-16.83206,-94.76,42.32,-17.48
-0.1899414,0.08056641,1.20166,24.51908,26.54962,-21.9313,-94.76,41.4,-15.64
-0.2272949,0.04492188,1.208008,40.8855,23.75573,-26.70229,-94.76,41.4,-15.64
-0.2475586,-0.0793457,1.267334,77.63359,33.77099,-10.74809,-98.44,38.64,-12.88
-0.2531738,-0.1057129,1.22998,92.36641,28.37405,6.900764,-98.44,38.64,-12.88
-0.2028809,-0.1450195,1.216797,97.80916,27.77099,13.52672,-106.72,33.12,-11.04
-0.1982422,-0.1911621,1.218262,104.5878,26.31298,18.80153,-106.72,33.12,-11.04
-0.192627,-0.2299805,1.183594,115.1298,22.94657,25.36641,-106.72,33.12,-11.04
-0.1730957,-0.2631836,1.114502,117.7481,14.12977,39.9542,-116.84,26.68,-11.04
-0.09472656,-0.2719727,1.04834,115.1832,0.03053435,50.77099,-116.84,26.68,-11.04
-0.007324219,-0.2578125,1.00415,110.3053,-3.030534,45.31298,-116.84,26.68,-11.04
-0.002929688,-0.2585449,0.9775391,103.5649,-6.099236,27.77099,-126.96,19.32,-17.48
-0.01733398,-0.2763672,0.9138184,95.34351,-6.854962,17.69466,-126.96,19.32,-17.48
-0.06176758,-0.2792969,0.8508301,87.89313,-8.694656,20.72519,-135.24,11.04,-26.68
-0.002685547,-0.2702637,0.7583008,62.61069,-7.992366,13.59542,-135.24,11.04,-26.68
-0.04150391,-0.2543945,0.7521973,42.37405,-6.625954,7.526718,-135.24,11.04,-26.68
-0.05834961,-0.265625,0.7275391,26.10687,-9.816793,3.282443,-138.92,6.44,-34.04
-0.06469727,-0.2324219,0.7009277,5.038168,-9.290076,7.969466,-138.92,6.44,-34.04
-0.05395508,-0.230957,0.736084,-17.81679,-8.511451,7.030534,-138.92,6.44,-34.04
-0.1149902,-0.2233887,0.8044434,-35.96183,-8.717557,5.206107,-138.92,6.44,-35.88
-0.1477051,-0.2080078,0.8447266,-47.85496,-11.51908,18.50382,-138.92,6.44,-35.88
-0.09472656,-0.1855469,0.8823242,-60.58779,-12.70992,30.28244,-135.24,12.88,-34.04
-0.02270508,-0.175293,0.9177246,-74.67939,-11.81679,29.03817,-135.24,12.88,-34.04
0.002197266,-0.1582031,0.9689941,-86.48092,-9.641221,23.19084,-135.24,12.88,-34.04
0.01196289,-0.1303711,1.014893,-95.51145,-12.08397,14.0229,-127.88,22.08,-32.2
0.03149414,-0.09399414,1.050293,-104.2595,-10.89313,4.641222,-127.88,22.08,-32.2
-0.01928711,-0.08447266,1.100342,-105.2443,-4.244275,-16.47328,-127.88,22.08,-32.2
-0.1420898,-0.06176758,1.105713,-113.4657,1.137405,-4.59542,-117.76,31.28,-28.52
-0.1513672,-0.04614258,1.162842,-106.1908,-16.55725,27.15267,-117.76,31.28,-28.52
0.04052734,0.0009765625,1.206543,-102.1908,-25.16031,32.73283,-106.72,39.56,-27.6
0.1242676,0.05102539,1.230469,-94.0687,-12.67939,-6.221374,-106.72,39.56,-27.6
-0.01928711,0.04492188,1.220947,-84.03053,6.709924,-27.53435,-106.72,39.56,-27.6
-0.1599121,0.04101563,1.196289,-77.33588,-0.08396947,-14.9542,-98.44,44.16,-26.68
-0.1381836,0.06567383,1.228516,-59.40458,-16.35878,0.2213741,-98.44,44.16,-26.68
-0.1013184,0.08666992,1.200195,-41.96947,-11.40458,-7.099236,-98.44,44.16,-26.68
-0.1130371,0.105957,1.189209,-34.51145,2.564885,-13.85496,-92.92,47.84,-27.6
-0.1520996,0.08862305,1.199951,-19.84733,3.80916,-11.83969,-92.92,47.84,-27.6
-0.1271973,0.04907227,1.199219,-3.129771,3.977099,-3.687023,-91.08,48.76,-29.44
-0.1311035,0.06640625,1.204102,15.53435,8.274809,0.0610687,-91.08,48.76,-29.44
-0.0949707,0.05712891,1.195068,29.64886,13.54198,-9.633588,-91.08,48.76,-29.44
-0.09619141,0.03173828,1.207764,41.24427,19.01527,-11.65649,-92.92,47.84,-28.52
-0.08618164,-0.002685547,1.202881,56.35115,17.00763,-11.41221,-92.92,47.84,-28.52
-0.0871582,-0.02514648,1.167969,65.79389,20.40458,-14.8626,-92.92,47.84,-28.52
-0.09301758,-0.0703125,1.165283,72.48855,23.84733,-15.83206,-97.52,44.16,-27.6
-0.1147461,-0.08544922,1.175293,81.03817,21.62595,-8.900764,-97.52,44.16,-27.6
-0.1208496,-0.1044922,1.169189,89.52672,17.89313,-2.900763,-104.88,39.56,-26.68
-0.09082031,-0.1289063,1.150635,94.83969,17.58015,4.0,-104.88,39.56,-26.68
-0.06518555,-0.1481934,1.125977,96.96947,19.12214,10.14504,-104.88,39.56,-26.68
-0.03833008,-0.1730957,1.105469,98.99236,14.34351,14.45038,-114.08,34.04,-27.6
0.007324219,-0.1833496,1.063477,98.70992,8.396947,23.84733,-114.08,34.04,-27.6
0.09472656,-0.177002,1.0354,92.67175,8.412213,11.56489,-114.08,34.04,-27.6
0.09277344,-0.1914063,0.9990234,84.35878,13.89313,-11.24428,-122.36,27.6,-30.36
0.02905273,-0.2121582,0.953125,78.89313,17.13741,-18.24427,-122.36,27.6,-30.36
-0.003662109,-0.2375488,0.901123,68.24428,13.56489,-9.358779,-130.64,19.32,-33.12
-0.03271484,-0.2553711,0.7438965,29.74046,5.152672,-12.00763,-130.64,19.32,-33.12
-0.08129883,-0.2653809,0.715332,8.114504,9.473283,-2.244275,-134.32,13.8,-35.88
-0.2734375,-0.2353516,0.7895508,-12.90076,0.2671756,51.51908,-134.32,13.8,-35.88
-0.1479492,-0.2524414,0.8188477,-13.48092,-28.05343,38.15267,-134.32,13.8,-38.64
-0.04467773,-0.2272949,0.7956543,-38.20611,-12.1145,35.28244,-134.32,13.8,-38.64
-0.08984375,-0.2475586,0.8693848,-49.42748,-17.59542,21.73282,-134.32,13.8,-38.64
-0.0378418,-0.21875,0.9123535,-63.38931,-26.0687,33.91603,-129.72,21.16,-39.56
0.05541992,-0.2277832,0.9655762,-75.06107,-21.61069,30.15267,-129.72,21.16,-39.56
0.09594727,-0.1933594,0.9628906,-89.09161,-15.32061,29.61832,-129.72,21.16,-39.56
0.0847168,-0.199707,1.003174,-93.59542,-16.13741,16.01527,-121.44,31.28,-38.64
0.09838867,-0.1779785,1.006836,-104.0458,-12.46565,11.96947,-121.44,31.28,-38.64
0.06738281,-0.1364746,1.062988,-113.0534,-11.85496,12.45038,-110.4,40.48,-37.72
-0.02563477,-0.128418,1.195801,-108.8931,-19.41221,7.038168,-110.4,40.48,-37.72
-0.09790039,-0.04931641,1.162842,-101.9084,-13.43511,27.87023,-110.4,40.48,-37.72
-0.03955078,-0.02807617,1.177979,-98.25954,-15.67939,51.73283,-98.44,47.84,-36.8
0.0949707,0.02172852,1.220703,-89.62595,-19.67939,54.74046,-98.44,47.84,-36.8
0.1928711,0.08959961,1.247559,-78.78626,-19.70992,23.9771,-98.44,47.84,-36.8
0.1728516,0.1181641,1.281982,-66.78626,-4.938931,-8.236641,-86.48,54.28,-38.64
0.05566406,0.1486816,1.284424,-54.38168,7.419847,-21.79389,-86.48,54.28,-38.64
0.002929688,0.1352539,1.303223,-30.76336,14.70992,-32.12977,-81.88,57.04,-38.64
-0.06420898,0.1213379,1.283447,-6.641222,11.41221,-29.03053,-81.88,57.04,-38.64
-0.04296875,0.1098633,1.259521,13.42748,15.45038,-28.64122,-81.88,57.04,-38.64
-0.078125,0.07495117,1.251221,29.54962,22.65649,-30.15267,-83.72,56.12,-38.64
-0.1022949,0.04052734,1.21167,45.43512,23.46565,-20.69466,-83.72,56.12,-38.64
-0.03564453,0.0,1.196777,56.44275,22.61069,-16.75573,-83.72,56.12,-38.64
-0.005126953,-0.01367188,1.205566,63.8855,29.03053,-22.64122,-89.24,52.44,-36.8
-0.04760742,-0.05444336,1.22168,73.25191,31.79389,-27.0,-89.24,52.44,-36.8
-0.05224609,-0.09619141,1.221924,84.35878,33.1832,-19.18321,-97.52,48.76,-34.04
-0.04077148,-0.1254883,1.233154,92.32061,30.22137,-10.74809,-97.52,48.76,-34.04
-0.04101563,-0.1582031,1.219238,105.2214,29.39695,-3.099237,-97.52,48.76,-34.04
-0.005859375,-0.1877441,1.162598,106.2519,27.67175,1.755725,-107.64,42.32,-31.28
0.003417969,-0.1970215,1.131836,108.2137,30.90076,1.381679,-107.64,42.32,-31.28
-0.01025391,-0.229248,1.085938,109.458,27.86259,6.946565,-107.64,42.32,-31.28
-0.01171875,-0.2319336,1.021973,107.8244,20.94657,16.23664,-118.68,34.96,-31.28
0.05517578,-0.2387695,0.9555664,100.3588,12.58015,16.32061,-118.68,34.96,-31.28
0.08935547,-0.2407227,0.9135742,88.29771,8.763359,6.496183,-126.96,26.68,-34.96
0.0715332,-0.2387695,0.8723145,74.10687,11.0,-2.251908,-126.96,26.68,-34.96
0.03686523,-0.2478027,0.8122559,64.47328,11.29008,-2.870229,-126.96,26.68,-34.96
0.04858398,-0.2375488,0.7556152,49.07634,7.748092,3.076336,-133.4,19.32,-39.56
0.05761719,-0.2331543,0.7229004,29.0,1.793893,-2.305344,-133.4,19.32,-39.56
0.03930664,-0.232666,0.7060547,6.687023,4.91603,-6.236641,-133.4,19.32,-39.56
-0.007568359,-0.2463379,0.7502441,-13.71756,1.145038,-5.793893,-135.24,17.48,-41.4
-0.06469727,-0.2246094,0.8083496,-28.64122,-8.61832,6.076336,-135.24,17.48,-41.4
-0.05566406,-0.2001953,0.8354492,-37.58779,-14.82443,18.75573,-132.48,20.24,-40.48
-0.02954102,-0.1987305,0.8608398,-50.62595,-10.77863,25.18321,-132.48,20.24,-40.48
-0.03588867,-0.1845703,0.9226074,-64.64886,-10.51145,26.45038,-132.48,20.24,-40.48
-0.05371094,-0.1655273,1.002686,-66.9542,-23.03817,34.22137,-126.96,28.52,-40.48
0.0002441406,-0.1291504,1.010254,-74.10687,-25.48092,42.25191,-126.96,28.52,-40.48
0.01708984,-0.07299805,1.067871,-83.0458,-11.94656,37.38931,-126.96,28.52,-40.48
-0.04418945,-0.05981445,1.173828,-80.54962,-6.946565,37.9084,-116.84,37.72,-40.48
-0.002441406,-0.02783203,1.18335,-74.48092,-12.24428,51.93893,-116.84,37.72,-40.48
0.1572266,0.0559082,1.118408,-72.9313,-3.160305,20.22901,-105.8,46.0,-40.48
0.09838867,0.07592773,1.152344,-74.0458,-1.618321,6.580153,-105.8,46.0,-40.48
0.01220703,0.1096191,1.166992,-66.70229,-4.183206,2.259542,-96.6,50.6,-40.48
-0.004394531,0.1352539,1.145752,-58.51145,-4.358778,7.587786,-96.6,50.6,-40.48
0.03955078,0.1508789,1.129639,-50.9771,-4.847328,10.9771,-90.16,53.36,-41.4
0.07861328,0.1801758,1.132813,-46.89313,-0.8396947,0.1755725,-90.16,53.36,-41.4
0.07299805,0.184082,1.174561,-39.53435,7.59542,-16.76336,-90.16,53.36,-41.4
-0.005371094,0.1867676,1.202881,-29.08397,18.57252,-28.80916,-86.48,55.2,-41.4
-0.08740234,0.1586914,1.234375,-7.343512,12.64122,-21.03817,-86.48,55.2,-41.4
-0.04907227,0.1357422,1.21875,9.511451,9.78626,-8.977099,-86.48,55.2,-41.4
0.03369141,0.1347656,1.187988,22.0458,16.18321,-15.37405,-86.48,55.2,-40.48
0.0324707,0.1047363,1.20166,32.24427,26.22137,-30.69466,-86.48,55.2,-40.48
-0.02709961,0.0625,1.206299,46.32061,28.32061,-36.17557,-91.08,53.36,-37.72
-0.09472656,0.0234375,1.169189,62.06107,23.0458,-23.36641,-91.08,53.36,-37.72
-0.0715332,-0.05419922,1.185547,68.55725,22.41221,-9.40458,-91.08,53.36,-37.72
-0.03442383,-0.06567383,1.182129,71.85497,25.22901,0.4122138,-96.6,49.68,-36.8
0.004150391,-0.09277344,1.190674,79.29008,27.45802,5.78626,-96.6,49.68,-36.8
0.04907227,-0.1125488,1.147461,84.15267,25.32825,2.854962,-96.6,49.68,-36.8
0.04541016,-0.1437988,1.114014,83.80916,27.92366,-8.290076,-104.88,46.0,-34.04
0.0456543,-0.1835938,1.076172,82.1832,29.26718,-12.03817,-104.88,46.0,-34.04
0.04443359,-0.1940918,1.037354,78.44275,24.80916,-15.48092,-114.08,39.56,-33.12
0.05175781,-0.2097168,0.9902344,76.65649,27.27481,-26.89313,-114.08,39.56,-33.12
0.02758789,-0.2368164,0.9379883,65.32061,32.13741,-28.96183,-114.08,39.56,-33.12
0.02197266,-0.2512207,0.892334,54.56488,29.9084,-27.16794,-123.28,31.28,-32.2
0.01928711,-0.2736816,0.8562012,44.05344,25.41221,-30.57252,-123.28,31.28,-32.2
0.01196289,-0.2888184,0.8374023,28.71756,21.19084,-31.54198,-123.28,31.28,-32.2
-0.008056641,-0.2910156,0.8061523,18.36641,17.87023,-29.12214,-129.72,24.84,-31.28
-0.01513672,-0.2939453,0.7756348,5.847328,14.64886,-23.93893,-129.72,24.84,-31.28
-0.03466797,-0.3005371,0.7836914,-9.80916,4.29771,-17.12214,-129.72,24.84,-30.36
-0.04345703,-0.3012695,0.8122559,-24.83969,-1.625954,-8.351145,-130.64,21.16,-30.36
-0.07104492,-0.3024902,0.8271484,-36.73283,-7.770992,-7.557252,-130.64,21.16,-30.36
-0.1171875,-0.286377,0.8503418,-47.58015,-18.87023,-2.740458,-127.88,23.92,-29.44
-0.07470703,-0.2644043,0.9343262,-54.9542,-27.87023,14.41221,-127.88,23.92,-29.44
0.001953125,-0.2192383,1.009033,-62.86259,-33.80153,17.84733,-127.88,23.92,-29.44
-0.03491211,-0.1999512,1.048584,-62.58015,-25.45038,7.305344,-121.44,30.36,-30.36
-0.1223145,-0.1513672,1.056152,-67.16031,-20.91603,24.62595,-121.44,30.36,-30.36
-0.05151367,-0.08886719,1.107666,-68.08397,-21.79389,47.43512,-121.44,30.36,-30.36
0.06518555,-0.03833008,1.159912,-66.48855,-22.1145,36.32824,-112.24,37.72,-32.2
0.05224609,0.01000977,1.204346,-64.29008,-14.12977,8.19084,-112.24,37.72,-32.2
-0.02514648,0.03833008,1.186523,-57.38931,-10.0229,4.320611,-103.96,43.24,-34.04
-0.01831055,0.06274414,1.169189,-50.58015,-9.687023,6.587786,-103.96,43.24,-34.04
0.03393555,0.1037598,1.151855,-51.66412,-3.038168,-0.1374046,-103.96,43.24,-34.04
0.01904297,0.08789063,1.14917,-46.09924,1.801527,-19.16794,-98.44,46.0,-35.88
-0.04638672,0.114502,1.102295,-41.47328,1.862595,-24.15267,-98.44,46.0,-35.88
-0.1120605,0.1027832,1.120361,-30.67939,-6.519084,-14.87023,-98.44,46.0,-35.88
-0.08496094,0.1245117,1.094727,-23.51908,-4.954198,-7.648855,-95.68,46.0,-35.88
-0.06347656,0.1381836,1.092041,-18.05343,5.0,-10.45802,-95.68,46.0,-35.88
-0.07250977,0.1574707,1.101318,-10.01527,13.28244,-16.35114,-94.76,46.92,-35.88
-0.06225586,0.1789551,1.127197,-1.473282,14.61832,-19.69466,-94.76,46.92,-35.88
-0.05688477,0.1674805,1.145264,4.687023,26.82443,-33.57252,-94.76,46.92,-35.88
-0.1398926,0.1320801,1.174072,13.91603,37.16794,-41.9542,-95.68,46.0,-34.04
-0.1940918,0.09936523,1.194092,24.84733,32.96947,-31.69466,-95.68,46.0,-34.04
-0.1608887,0.01123047,1.263916,54.35115,44.98473,-26.69466,-99.36,42.32,-30.36
-0.1386719,-0.03076172,1.26709,64.32061,48.8855,-13.43511,-99.36,42.32,-30.36
-0.06567383,-0.06665039,1.276123,74.57252,47.12977,-8.824428,-105.8,38.64,-25.76
-0.03735352,-0.1049805,1.240234,87.24428,53.35115,-15.81679,-105.8,38.64,-25.76
-0.04418945,-0.1564941,1.187012,90.54198,56.28244,-11.45038,-115.0,31.28,-21.16
-0.06738281,-0.2143555,1.174561,97.67939,49.44275,2.473282,-115.0,31.28,-21.16
-0.07202148,-0.2609863,1.112061,105.0458,40.50382,8.641221,-115.0,31.28,-21.16
-0.007568359,-0.2636719,1.008545,102.2595,39.27481,6.763359,-124.2,23.0,-19.32
0.01367188,-0.2927246,0.909668,91.771,36.25191,-1.564886,-124.2,23.0,-19.32
-0.01391602,-0.3024902,0.8503418,79.50381,29.9542,-4.137404,-124.2,23.0,-19.32
-0.04931641,-0.3029785,0.8037109,63.87023,21.32061,2.679389,-133.4,11.96,-20.24
-0.05566406,-0.3068848,0.7609863,49.9313,9.374045,7.145038,-133.4,11.96,-20.24
-0.04248047,-0.2841797,0.734375,30.0458,0.08396947,19.74046,-137.08,5.52,-23.92
-0.0002441406,-0.2729492,0.7602539,10.48092,-10.87023,19.40458,-137.08,5.52,-23.92
0.01586914,-0.2421875,0.7731934,-8.442748,-11.49618,3.656489,-137.08,5.52,-23.92
-0.04370117,-0.2460938,0.7802734,-21.83206,-12.79389,-2.923664,-137.08,6.44,-26.68
-0.09204102,-0.2434082,0.8151855,-35.70992,-18.25954,4.328244,-137.08,6.44,-26.68
