ax,ay,az,gx,gy,gz,mx,my,mz
-0.1430664,0.7390137,0.6708984,14.0687,1.709924,7.122138,-126.04,-62.56,-96.6
-0.1025391,0.7595215,0.6806641,11.51908,3.992366,0.7328244,-126.04,-62.56,-96.6
-0.04199219,0.8093262,0.6208496,21.77099,43.19847,2.129771,-125.12,-63.48,-98.44
-0.1967773,0.8356934,0.5891113,21.12214,33.67176,-10.99237,-123.28,-62.56,-103.96
-0.2275391,0.7729492,0.6137695,17.96947,17.51145,0.06870229,-123.28,-62.56,-103.96
-0.2141113,0.6784668,0.546875,22.28244,-3.312977,10.45038,-123.28,-62.56,-103.96
-0.0847168,0.6721191,0.4887695,7.870229,-17.67175,10.99237,-121.44,-61.64,-107.64
-0.07568359,0.6547852,0.5524902,1.832061,-22.39695,-4.656488,-121.44,-61.64,-107.64
-0.1433105,0.8037109,0.6364746,7.435114,-38.15267,22.58015,-121.44,-60.72,-108.56
-0.07299805,0.90625,0.6450195,6.603054,-16.0458,32.43512,-121.44,-60.72,-108.56
-0.0078125,0.878418,0.5942383,7.59542,-14.09924,37.58015,-121.44,-60.72,-108.56
0.1015625,0.8432617,0.5368652,-4.48855,-9.091603,8.717557,-122.36,-57.04,-112.24
0.02587891,0.8151855,0.5407715,-22.12214,21.69466,-25.83969,-122.36,-57.04,-112.24
-0.05688477,0.7851563,0.635498,-27.38931,32.80916,-32.06107,-122.36,-57.04,-112.24
-0.2150879,0.7810059,0.6791992,-16.32825,20.38168,-21.32825,-124.2,-57.04,-109.48
-0.1711426,0.7385254,0.6364746,-8.625955,1.648855,-0.351145,-124.2,-57.04,-109.48
-0.1677246,0.7751465,0.6325684,-3.427481,0.129771,-0.6641222,-124.2,-57.04,-108.56
-0.1904297,0.8103027,0.6428223,-7.175572,-2.251908,4.80916,-124.2,-57.04,-108.56
-0.1223145,0.814209,0.6032715,-13.67176,1.351145,3.48855,-124.2,-57.04,-108.56
-0.05761719,0.7871094,0.6052246,-25.74809,-1.900763,-5.038168,-126.04,-56.12,-108.56
-0.0559082,0.7927246,0.6123047,-31.03817,1.480916,-10.80153,-126.04,-56.12,-108.56
-0.08081055,0.7922363,0.6472168,-35.32824,6.061069,-21.94657,-126.04,-56.12,-108.56
-0.09790039,0.7736816,0.6787109,-31.85496,1.732824,-25.38168,-127.88,-55.2,-103.96
-0.1171875,0.7658691,0.7138672,-30.51145,1.755725,-24.16794,-127.88,-55.2,-103.96
-0.1433105,0.7272949,0.720459,-24.89313,5.778626,-29.18321,-130.64,-56.12,-98.44
-0.173584,0.7028809,0.6918945,-24.16031,10.38168,-18.65649,-130.64,-56.12,-98.44
-0.1430664,0.6679688,0.7507324,-27.99237,20.10687,-15.45802,-130.64,-56.12,-98.44
-0.230957,0.6501465,0.720459,-18.38931,12.25954,-10.00763,-132.48,-57.96,-92.92
-0.2026367,0.6843262,0.7126465,-8.442748,-2.358779,5.427481,-132.48,-57.96,-92.92
-0.1564941,0.621582,0.8647461,-3.832061,-2.145038,11.9542,-132.48,-57.96,-92.92
-0.1950684,0.7209473,0.7595215,2.29771,3.778626,-0.3664122,-133.4,-57.04,-91.08
-0.1655273,0.6955566,0.7272949,2.519084,7.091603,-2.854962,-133.4,-57.04,-91.08
-0.1452637,0.6791992,0.7468262,5.572519,1.114504,3.832061,-133.4,-57.96,-91.08
-0.1450195,0.7075195,0.7363281,9.832061,-11.45802,11.25191,-133.4,-57.96,-91.08
-0.1174316,0.736084,0.7177734,9.282443,-11.1145,4.21374,-133.4,-57.96,-91.08
-0.09057617,0.7314453,0.7243652,5.068702,-10.21374,-0.4656488,-133.4,-57.04,-92.0
-0.1010742,0.7348633,0.6916504,-0.6335878,-2.122137,-8.725191,-133.4,-57.04,-92.0
-0.1086426,0.715332,0.7089844,-5.335878,3.946565,-11.59542,-133.4,-57.04,-92.0
-0.1557617,0.6960449,0.722168,-7.022901,7.732824,-12.08397,-133.4,-57.04,-91.08
-0.1772461,0.6816406,0.7478027,-6.816794,8.587787,-8.969465,-133.4,-57.04,-91.08
-0.192627,0.6538086,0.7541504,-2.938931,7.671756,-5.89313,-133.4,-57.04,-91.08
-0.2072754,0.652832,0.7436523,1.442748,1.755725,-1.572519,-133.4,-57.96,-88.32
-0.1906738,0.6647949,0.7475586,3.366412,-1.022901,1.870229,-133.4,-57.96,-88.32
-0.1586914,0.6906738,0.7431641,5.755725,-0.2900764,6.045802,-134.32,-57.04,-89.24
-0.1420898,0.6982422,0.7263184,4.954198,1.824428,8.648855,-134.32,-57.04,-89.24
-0.1123047,0.6994629,0.7131348,4.076336,-2.061069,9.19084,-134.32,-57.04,-89.24
-0.0859375,0.7180176,0.729248,1.954198,-0.1679389,5.160306,-134.32,-56.12,-90.16
-0.08959961,0.7211914,0.7226563,1.343511,2.725191,0.3587786,-134.32,-56.12,-90.16
-0.09521484,0.7050781,0.7138672,-1.610687,2.374046,-3.526718,-134.32,-56.12,-90.16
-0.1115723,0.7033691,0.7307129,-3.480916,3.969466,-3.687023,-134.32,-56.12,-90.16
-0.1320801,0.6977539,0.7436523,-1.748092,4.022901,-6.80916,-134.32,-56.12,-90.16
-0.152832,0.6860352,0.7285156,-0.5954198,4.465649,1.870229,-134.32,-56.12,-89.24
-0.1340332,0.690918,0.730957,0.2366412,5.839694,0.6259542,-134.32,-56.12,-89.24
-0.1328125,0.6958008,0.7331543,-0.4961832,3.992366,2.007634,-134.32,-56.12,-89.24
-0.1254883,0.6960449,0.7321777,-2.396947,3.679389,-5.847328,-134.32,-56.12,-89.24
-0.1296387,0.689209,0.7478027,-4.572519,7.305344,-4.664122,-134.32,-57.04,-88.32
-0.1467285,0.6850586,0.7419434,-4.992366,8.274809,-3.587786,-134.32,-57.04,-88.32
-0.1484375,0.6591797,0.7404785,-2.80916,7.473282,-4.091603,-135.24,-57.04,-87.4
-0.1450195,0.6650391,0.7478027,-1.427481,5.908397,2.755725,-135.24,-57.04,-87.4
-0.1386719,0.7058105,0.7351074,-1.290076,7.923664,-0.389313,-135.24,-57.04,-87.4
-0.1242676,0.6896973,0.7387695,-0.0610687,11.25191,-5.832061,-135.24,-56.12,-86.48
-0.126709,0.6845703,0.7275391,-2.725191,9.419847,-0.5114504,-135.24,-56.12,-86.48
-0.1218262,0.6865234,0.748291,-8.251908,14.55725,-4.877862,-135.24,-56.12,-86.48
-0.1542969,0.6896973,0.7416992,-5.076336,15.55725,-9.412213,-135.24,-57.04,-85.56001
-0.1542969,0.6738281,0.7495117,-6.40458,14.99237,-11.91603,-135.24,-57.04,-85.56001
-0.2558594,0.6740723,0.7875977,-5.923664,10.99237,-7.137404,-136.16,-57.04,-83.72
-0.177002,0.6350098,0.7561035,-5.885496,15.99237,-12.44275,-136.16,-57.04,-83.72
-0.152832,0.6467285,0.7802734,-10.1374,16.79389,-10.53435,-136.16,-57.04,-83.72
-0.1950684,0.6679688,0.7583008,-6.969466,17.14504,-5.099236,-136.16,-57.96,-80.96
-0.2607422,0.6647949,0.7687988,-6.10687,18.52672,-14.49618,-136.16,-57.96,-80.96
-0.1691895,0.6210938,0.7788086,-8.061069,18.28244,-11.0229,-136.16,-57.96,-80.96
-0.2583008,0.6335449,0.7602539,-4.992366,14.1145,10.29771,-137.08,-58.88,-78.2
-0.2741699,0.6218262,0.7775879,-1.748092,12.46565,-1.541985,-137.08,-58.88,-78.2
-0.217041,0.6191406,0.755127,1.496183,9.679389,5.473282,-137.08,-58.88,-78.2
-0.2246094,0.6149902,0.7785645,1.503817,5.412214,8.603053,-137.08,-58.88,-78.2
-0.2270508,0.6608887,0.7468262,4.458015,3.328244,10.64886,-137.08,-58.88,-78.2
-0.1916504,0.6591797,0.7648926,1.0,4.259542,4.389313,-137.08,-57.96,-79.12
-0.2016602,0.651123,0.7663574,1.549618,2.10687,5.122138,-137.08,-57.96,-79.12
-0.2089844,0.6472168,0.7421875,4.167939,0.5343512,0.4045802,-137.08,-57.96,-79.12
-0.1882324,0.6418457,0.7336426,3.282443,-2.206107,2.610687,-137.08,-57.96,-79.12
-0.1911621,0.6486816,0.7624512,0.3358779,3.656489,-0.2290076,-137.08,-57.96,-79.12
-0.2216797,0.6577148,0.7695313,4.114504,2.748092,1.473282,-137.08,-57.96,-79.12
-0.2023926,0.6469727,0.769043,4.335878,2.778626,4.435114,-137.08,-57.96,-80.04
-0.1948242,0.6403809,0.7541504,3.984733,4.671756,4.610687,-137.08,-57.96,-80.04
-0.2045898,0.6518555,0.7438965,4.10687,4.717557,2.549618,-137.08,-57.04,-80.04
-0.1994629,0.6491699,0.7585449,4.282443,6.221374,3.679389,-137.08,-57.04,-80.04
-0.1977539,0.6564941,0.7526855,5.022901,4.709924,5.824428,-137.08,-57.04,-80.04
-0.1787109,0.6601563,0.7512207,1.656489,0.6412213,3.099237,-137.08,-56.12,-80.04
-0.1794434,0.6618652,0.7526855,2.625954,3.557252,-2.618321,-137.08,-56.12,-80.04
-0.1887207,0.6584473,0.7541504,1.442748,2.145038,0.1145038,-137.08,-56.12,-80.04
-0.1958008,0.6569824,0.7573242,-0.2290076,5.61832,-3.114504,-137.08,-57.04,-80.96
-0.1975098,0.6474609,0.7561035,1.358779,4.419847,-0.01526718,-137.08,-57.04,-80.96
-0.1843262,0.6499023,0.7570801,1.160305,2.862595,0.4274809,-137.08,-56.12,-80.96
-0.1896973,0.6564941,0.75,0.8473283,1.679389,1.282443,-137.08,-56.12,-80.96
-0.1923828,0.6630859,0.7561035,2.21374,1.282443,0.3587786,-137.08,-56.12,-80.96
-0.1923828,0.6540527,0.7475586,1.129771,-0.7938931,-2.618321,-138.0,-57.04,-80.96
-0.1943359,0.6564941,0.7590332,0.8015267,0.7022901,1.80916,-138.0,-57.04,-80.96
-0.1962891,0.6564941,0.7585449,2.145038,1.022901,0.1984733,-138.0,-57.04,-80.96
-0.1687012,0.6518555,0.7563477,2.80916,1.053435,1.664122,-137.08,-56.12,-80.04
-0.1730957,0.6560059,0.7536621,1.427481,1.381679,0.5801527,-137.08,-56.12,-80.04
-0.1730957,0.6601563,0.7595215,0.6793893,3.78626,0.1221374,-137.08,-56.12,-80.96
-0.1730957,0.6516113,0.7570801,1.679389,3.839695,-0.3587786,-137.08,-56.12,-80.96
-0.1862793,0.6530762,0.7602539,2.145038,4.259542,0.9465649,-138.0,-56.12,-80.96
-0.1850586,0.6538086,0.7568359,2.290076,4.534351,-0.7099237,-138.0,-56.12,-80.96
-0.1860352,0.6503906,0.753418,4.419847,4.778626,0.9083969,-137.08,-56.12,-80.96
-0.1889648,0.6618652,0.7502441,2.687023,3.267176,2.259542,-137.08,-56.12,-80.96
-0.173584,0.6611328,0.7563477,3.068702,3.870229,0.740458,-137.08,-56.12,-80.96
-0.1767578,0.6660156,0.7458496,0.1984733,3.633588,-0.5877862,-137.08,-56.12,-80.96
-0.1835938,0.6555176,0.7553711,0.9770992,4.725191,-1.59542,-137.08,-56.12,-80.96
-0.1779785,0.6472168,0.7670898,2.465649,4.748092,-0.03053435,-137.08,-56.12,-80.96
-0.1914063,0.654541,0.7641602,1.778626,3.198473,-0.1374046,-137.08,-56.12,-80.96
-0.1901855,0.6533203,0.7597656,1.061069,0.9160305,0.6259542,-137.08,-56.12,-80.96
-0.1791992,0.6594238,0.7583008,0.2519084,1.435114,0.0,-137.08,-56.12,-80.96
-0.1723633,0.6567383,0.7666016,1.587786,2.709924,0.9465649,-137.08,-56.12,-80.96
-0.1813965,0.6584473,0.7553711,2.80916,3.274809,0.870229,-137.08,-56.12,-80.96
-0.1804199,0.6540527,0.746582,1.832061,2.053435,0.6183206,-137.08,-56.12,-80.96
-0.1713867,0.6606445,0.7485352,1.824428,3.167939,0.3129771,-137.08,-56.12,-80.96
-0.166748,0.6630859,0.7597656,0.9312977,3.80916,-0.3969466,-137.08,-56.12,-80.96
-0.1777344,0.6582031,0.7575684,2.89313,5.648855,1.847328,-137.08,-56.12,-80.96
-0.1801758,0.6630859,0.7556152,2.427481,5.709924,-0.06870229,-137.08,-56.12,-80.96
-0.1748047,0.6564941,0.7561035,1.801527,5.305344,-1.320611,-138.0,-55.2,-80.96
-0.1726074,0.6569824,0.7541504,3.0,3.725191,0.9160305,-138.0,-55.2,-80.96
-0.1708984,0.6584473,0.7514648,1.908397,-0.4961832,0.648855,-138.0,-55.2,-80.96
-0.1640625,0.6582031,0.7558594,3.29771,2.732824,1.862595,-137.08,-55.2,-81.88
-0.1728516,0.6601563,0.7575684,2.450382,4.946565,1.473282,-137.08,-55.2,-81.88
-0.1660156,0.6572266,0.7548828,3.358779,5.038168,1.885496,-137.08,-55.2,-81.88
-0.166748,0.6623535,0.7595215,1.816794,3.755725,0.351145,-137.08,-55.2,-81.88
-0.1723633,0.6591797,0.7600098,2.427481,3.633588,0.4045802,-137.08,-55.2,-81.88
-0.1730957,0.657959,0.7512207,2.328244,4.519084,2.015267,-137.08,-56.12,-82.8
-0.1750488,0.6616211,0.7541504,2.183206,4.08397,0.02290076,-137.08,-56.12,-82.8
-0.168457,0.6582031,0.7568359,2.175573,2.557252,0.2442748,-137.08,-56.12,-82.8
-0.1677246,0.6635742,0.7609863,1.709924,3.687023,0.4580153,-137.08,-55.2,-81.88
-0.1696777,0.6623535,0.7504883,3.061069,4.068702,0.0,-137.08,-55.2,-81.88
-0.1674805,0.6574707,0.7431641,2.740458,3.366412,0.1450382,-137.08,-55.2,-81.88
-0.1635742,0.6655273,0.7573242,1.564886,2.78626,1.358779,-137.08,-55.2,-82.8
-0.1625977,0.6655273,0.763916,1.763359,2.770992,-0.3053435,-137.08,-55.2,-82.8
-0.166748,0.6625977,0.755127,1.755725,4.122138,-0.5496183,-137.08,-55.2,-82.8
-0.1743164,0.6574707,0.7592773,1.206107,3.717557,-1.40458,-137.08,-55.2,-82.8
-0.1730957,0.6594238,0.7539063,3.877863,4.099236,0.9236641,-137.08,-55.2,-82.8
-0.1542969,0.6608887,0.7565918,4.908397,6.198473,1.320611,-137.08,-55.2,-81.88
-0.1611328,0.6616211,0.7546387,1.763359,5.541985,-0.4885496,-137.08,-55.2,-81.88
-0.1716309,0.6687012,0.753418,0.5877862,4.70229,0.6717557,-137.08,-55.2,-81.88
-0.1625977,0.6647949,0.7614746,0.9541985,3.290076,-1.389313,-137.08,-55.2,-82.8
-0.1552734,0.6611328,0.7563477,2.847328,4.534351,-0.01526718,-137.08,-55.2,-82.8
-0.1647949,0.6643066,0.7475586,1.519084,3.725191,0.3435115,-137.08,-55.2,-82.8
-0.1643066,0.6611328,0.7592773,1.320611,4.687023,-0.1145038,-137.08,-55.2,-82.8
-0.1711426,0.6647949,0.7619629,0.9923664,3.396947,0.389313,-137.08,-55.2,-82.8
-0.1650391,0.6630859,0.7587891,2.198473,4.08397,0.9236641,-137.08,-55.2,-81.88
-0.1611328,0.6623535,0.7529297,1.053435,4.541985,-0.8854962,-137.08,-55.2,-81.88
-0.1604004,0.6665039,0.7585449,0.9923664,4.641222,2.145038,-137.08,-55.2,-81.88
-0.1662598,0.6616211,0.7641602,1.717557,4.793893,-1.099237,-137.08,-55.2,-82.8
-0.1569824,0.6601563,0.75,3.10687,6.10687,-0.4427481,-137.08,-55.2,-82.8
-0.1606445,0.6652832,0.7607422,1.564886,4.580153,0.2977099,-137.08,-55.2,-82.8
-0.1677246,0.6628418,0.7475586,1.236641,3.29771,0.4427481,-137.08,-55.2,-82.8
-0.1669922,0.6616211,0.7546387,3.076336,4.755725,0.6183206,-137.08,-55.2,-82.8
-0.157959,0.6608887,0.7541504,1.664122,4.541985,-0.1450382,-137.08,-55.2,-82.8
-0.1691895,0.6540527,0.7575684,2.396947,3.206107,0.5954198,-137.08,-55.2,-82.8
-0.1677246,0.6633301,0.7600098,2.076336,1.89313,1.641221,-137.08,-55.2,-82.8
-0.1640625,0.6572266,0.7629395,1.274809,1.793893,0.6183206,-137.08,-55.2,-82.8
-0.1608887,0.6635742,0.7597656,3.847328,4.587786,1.259542,-136.16,-54.28,-82.8
-0.1665039,0.659668,0.7541504,2.687023,3.274809,1.564886,-136.16,-54.28,-82.8
-0.1523438,0.6674805,0.7539063,3.603053,5.70229,0.610687,-136.16,-54.28,-82.8
-0.154541,0.666748,0.7563477,3.755725,5.648855,-0.8396947,-137.08,-55.2,-82.8
-0.1591797,0.6657715,0.748291,0.5343512,3.129771,-1.320611,-137.08,-55.2,-82.8
-0.1599121,0.6633301,0.7529297,3.870229,4.587786,1.748092,-137.08,-55.2,-83.72
-0.1599121,0.6694336,0.7602539,1.229008,3.206107,0.4122138,-137.08,-55.2,-83.72
-0.1586914,0.6652832,0.7536621,2.587786,3.122137,0.6335878,-137.08,-55.2,-83.72
-0.1608887,0.6674805,0.755127,2.557252,3.442748,-0.1068702,-137.08,-54.28,-82.8
-0.1618652,0.6652832,0.7456055,2.80916,4.40458,0.6183206,-137.08,-54.28,-82.8
-0.1569824,0.6662598,0.7504883,1.587786,3.122137,1.129771,-137.08,-54.28,-82.8
-0.1499023,0.6674805,0.7504883,2.503817,4.419847,-0.1755725,-137.08,-55.2,-83.72
-0.1518555,0.6625977,0.7575684,2.793893,4.389313,1.038168,-137.08,-55.2,-83.72
-0.1601563,0.6665039,0.7602539,2.427481,3.145038,1.587786,-137.08,-55.2,-83.72
-0.1489258,0.666748,0.7487793,4.419847,4.38168,1.343511,-137.08,-55.2,-83.72
-0.1398926,0.661377,0.7526855,3.061069,5.732824,0.4351145,-137.08,-55.2,-83.72
-0.1621094,0.6674805,0.7634277,1.763359,4.984733,0.3816794,-136.16,-54.28,-83.72
-0.1604004,0.666748,0.7478027,0.5496183,3.977099,-0.8854962,-136.16,-54.28,-83.72
-0.1533203,0.6645508,0.7609863,2.465649,4.870229,-1.763359,-136.16,-54.28,-83.72
-0.1611328,0.6647949,0.7556152,2.099237,3.78626,2.374046,-137.08,-55.2,-83.72
-0.1567383,0.6728516,0.7468262,2.694656,5.022901,1.038168,-137.08,-55.2,-83.72
-0.1452637,0.6640625,0.746582,1.076336,3.183206,-0.610687,-137.08,-55.2,-83.72
-0.1599121,0.6628418,0.7529297,1.374046,5.610687,-2.931298,-137.08,-54.28,-84.64
-0.1713867,0.6616211,0.7617188,0.4885496,2.19084,0.7938931,-137.08,-54.28,-84.64
-0.1569824,0.6660156,0.7502441,2.083969,4.19084,0.5267176,-137.08,-54.28,-83.72
-0.1486816,0.6669922,0.7434082,1.832061,4.419847,-0.1145038,-137.08,-54.28,-83.72
-0.152832,0.6638184,0.7578125,0.7480916,3.961832,-0.6564885,-137.08,-54.28,-83.72
-0.1584473,0.6687012,0.7575684,0.8091603,2.70229,-0.9770992,-136.16,-54.28,-83.72
-0.1477051,0.6647949,0.7526855,2.053435,3.687023,0.1374046,-136.16,-54.28,-83.72
-0.1564941,0.6682129,0.7519531,2.022901,4.480916,0.3129771,-136.16,-54.28,-83.72
-0.152832,0.6638184,0.7543945,1.51145,5.374046,-0.6335878,-137.08,-54.28,-83.72
-0.1479492,0.661377,0.755127,1.801527,4.022901,-0.4580153,-137.08,-54.28,-83.72
-0.1550293,0.6689453,0.7558594,2.244275,2.473282,2.580153,-137.08,-54.28,-83.72
-0.1481934,0.6801758,0.7570801,1.587786,3.549618,-0.1145038,-137.08,-54.28,-83.72
-0.1413574,0.675293,0.7497559,1.59542,4.725191,-1.770992,-137.08,-54.28,-83.72
-0.1503906,0.6625977,0.7504883,2.091603,5.480916,0.4351145,-136.16,-54.28,-83.72
-0.1594238,0.6640625,0.7492676,0.6870229,1.694656,0.06870229,-136.16,-54.28,-83.72
-0.1516113,0.673584,0.7646484,3.0,4.358778,0.06870229,-136.16,-54.28,-83.72
-0.1503906,0.6713867,0.75,2.007634,5.458015,-0.5877862,-137.08,-54.28,-83.72
-0.1523438,0.6679688,0.7526855,3.167939,5.038168,0.7480916,-137.08,-54.28,-83.72
-0.1481934,0.6672363,0.7495117,1.664122,2.648855,0.2061069,-137.08,-54.28,-84.64
-0.1450195,0.6677246,0.7453613,0.5572519,2.816794,-0.1145038,-137.08,-54.28,-84.64
-0.151123,0.6699219,0.7514648,2.557252,4.08397,-1.160305,-137.08,-54.28,-84.64
-0.1516113,0.6687012,0.7602539,1.740458,4.832061,-0.259542,-137.08,-54.28,-83.72
-0.1452637,0.6621094,0.7421875,3.671756,5.51145,2.053435,-137.08,-54.28,-83.72
-0.1552734,0.6738281,0.751709,2.320611,3.839695,0.1679389,-137.08,-54.28,-84.64
-0.1369629,0.6708984,0.7485352,2.396947,4.29771,0.2213741,-137.08,-54.28,-84.64
-0.1411133,0.6694336,0.7561035,1.549618,3.610687,0.6335878,-137.08,-54.28,-84.64
-0.152832,0.6630859,0.7626953,1.625954,3.801527,-1.343511,-137.08,-54.28,-84.64
-0.1618652,0.6657715,0.7502441,0.9923664,3.091603,0.07633588,-137.08,-54.28,-84.64
-0.1469727,0.6679688,0.7507324,1.625954,1.908397,1.480916,-137.08,-54.28,-84.64
-0.1381836,0.6677246,0.7609863,1.068702,2.335878,1.274809,-137.08,-54.28,-84.64
-0.1560059,0.6728516,0.7553711,2.709924,6.709924,0.8091603,-137.08,-54.28,-83.72
-0.1401367,0.6616211,0.7529297,1.755725,5.10687,-1.519084,-137.08,-54.28,-83.72
-0.1462402,0.6691895,0.7631836,2.480916,6.129771,0.8854962,-137.08,-54.28,-83.72
-0.1467285,0.6704102,0.7558594,1.763359,4.183206,0.1832061,-137.08,-54.28,-84.64
-0.1494141,0.6682129,0.75,2.061069,4.267176,0.1526718,-137.08,-54.28,-84.64
-0.1452637,0.6604004,0.7509766,0.9694656,4.343512,-0.03816794,-137.08,-54.28,-84.64
-0.1420898,0.668457,0.7575684,0.389313,2.320611,0.2137404,-137.08,-54.28,-84.64
-0.1413574,0.6733398,0.7563477,1.763359,2.175573,-0.3358779,-137.08,-54.28,-84.64
-0.1433105,0.6640625,0.7563477,1.458015,2.816794,-0.2442748,-137.08,-54.28,-84.64
-0.1398926,0.6635742,0.763916,2.679389,4.160306,2.29771,-137.08,-54.28,-84.64
-0.1530762,0.6694336,0.755127,2.931298,5.870229,-0.9007633,-137.08,-54.28,-84.64
-0.1418457,0.6628418,0.7641602,1.580153,3.343511,-1.343511,-137.08,-54.28,-84.64
-0.1479492,0.6672363,0.7602539,1.251908,0.8854962,2.557252,-137.08,-54.28,-84.64
-0.1462402,0.6750488,0.7468262,2.954198,2.625954,1.984733,-137.08,-54.28,-84.64
-0.1352539,0.6730957,0.744873,2.122137,4.0,0.1145038,-137.08,-54.28,-84.64
-0.1364746,0.6555176,0.7626953,3.19084,1.923664,-1.244275,-137.08,-54.28,-84.64
-0.1555176,0.6674805,0.7619629,5.412214,1.389313,-1.564886,-137.08,-54.28,-84.64
-0.1359863,0.6774902,0.7504883,4.274809,1.877863,1.641221,-137.08,-54.28,-84.64
-0.1384277,0.6809082,0.7546387,3.587786,3.145038,1.709924,-137.08,-54.28,-84.64
-0.1347656,0.671875,0.7399902,3.70229,5.183206,0.2824428,-136.16,-54.28,-85.56001
-0.1259766,0.666748,0.7541504,1.022901,5.335878,-1.610687,-136.16,-54.28,-85.56001
-0.1430664,0.6748047,0.7600098,0.02290076,3.557252,0.01526718,-136.16,-54.28,-85.56001
-0.1491699,0.6723633,0.7563477,2.419847,5.763359,0.5496183,-136.16,-54.28,-85.56001
-0.1306152,0.6665039,0.746582,0.03053435,3.648855,-0.961832,-136.16,-54.28,-85.56001
-0.1362305,0.6694336,0.744873,0.3969466,4.320611,0.740458,-137.08,-54.28,-86.48
-0.1464844,0.6728516,0.7539063,2.236641,4.801527,1.038168,-137.08,-54.28,-86.48
-0.1352539,0.6711426,0.7497559,1.29771,3.099237,-0.3969466,-137.08,-54.28,-86.48
-0.1333008,0.6608887,0.7539063,4.48855,4.290076,-3.015267,-137.08,-54.28,-85.56001
-0.1418457,0.6665039,0.7524414,4.175572,1.80916,0.7328244,-137.08,-54.28,-85.56001
-0.1386719,0.6801758,0.7558594,2.938931,4.274809,0.9236641,-137.08,-54.28,-85.56001
-0.1303711,0.6784668,0.7446289,0.6259542,3.427481,-1.572519,-137.08,-54.28,-85.56001
-0.1262207,0.6682129,0.7607422,1.076336,5.832061,-0.9312977,-137.08,-54.28,-85.56001
-0.1435547,0.6687012,0.7570801,1.923664,3.931298,-1.541985,-136.16,-54.28,-85.56001
-0.1491699,0.6730957,0.7456055,1.259542,3.709924,0.3129771,-136.16,-54.28,-85.56001
-0.1306152,0.6748047,0.7521973,3.89313,5.259542,1.183206,-136.16,-54.28,-85.56001
-0.1340332,0.6740723,0.7619629,1.137405,-0.5572519,-0.778626,-137.08,-54.28,-85.56001
-0.1364746,0.6796875,0.7580566,1.251908,4.91603,-1.351145,-137.08,-54.28,-85.56001
-0.1425781,0.6618652,0.7546387,1.916031,3.458015,-0.8549618,-137.08,-54.28,-85.56001
-0.1335449,0.6643066,0.7556152,2.641221,4.748092,1.312977,-137.08,-54.28,-85.56001
-0.1328125,0.6689453,0.7602539,2.435115,2.534351,1.282443,-137.08,-54.28,-85.56001
-0.1359863,0.6755371,0.7546387,4.068702,5.694656,0.03053435,-136.16,-53.36,-85.56001
-0.1376953,0.6767578,0.7507324,4.351145,5.816794,-0.09923664,-136.16,-53.36,-85.56001
-0.1298828,0.6711426,0.7504883,1.870229,3.709924,0.03816794,-136.16,-53.36,-85.56001
-0.1381836,0.6738281,0.7407227,3.427481,5.755725,1.709924,-137.08,-53.36,-85.56001
-0.1315918,0.6777344,0.7531738,1.221374,4.366412,-0.09923664,-137.08,-53.36,-85.56001
-0.1337891,0.670166,0.7468262,1.549618,3.587786,-0.2061069,-137.08,-53.36,-85.56001
-0.1430664,0.6757813,0.7502441,2.328244,4.473282,0.7251908,-137.08,-53.36,-85.56001
-0.1286621,0.6750488,0.7512207,2.541985,4.167939,0.4580153,-136.16,-53.36,-85.56001
-0.1264648,0.6726074,0.748291,1.396947,4.335878,0.07633588,-136.16,-53.36,-85.56001
-0.1362305,0.6748047,0.7504883,2.526718,4.70229,-0.05343511,-136.16,-53.36,-85.56001
-0.1459961,0.675293,0.7519531,1.549618,3.862595,-1.854962,-136.16,-53.36,-85.56001
-0.1362305,0.6716309,0.7419434,3.099237,4.656488,0.4198473,-136.16,-53.36,-85.56001
-0.1262207,0.675293,0.7507324,1.580153,3.946565,0.5419847,-136.16,-54.28,-85.56001
-0.1296387,0.6760254,0.7541504,1.267176,4.694656,-0.4580153,-136.16,-54.28,-85.56001
-0.138916,0.668457,0.7548828,2.503817,5.221374,-1.580153,-136.16,-54.28,-85.56001
-0.1425781,0.6694336,0.7480469,0.8473283,2.938931,-1.007634,-136.16,-54.28,-86.48
-0.1386719,0.6745605,0.7495117,1.557252,4.251908,-0.1832061,-136.16,-54.28,-86.48
-0.1289063,0.6782227,0.7436523,1.221374,3.358779,-0.2671756,-136.16,-54.28,-86.48
-0.1369629,0.675293,0.7495117,1.740458,4.59542,-1.450382,-136.16,-54.28,-86.48
-0.1413574,0.6730957,0.7521973,3.0,5.122138,-0.7633588,-136.16,-54.28,-86.48
-0.1330566,0.675293,0.7475586,1.946565,4.40458,-0.1908397,-136.16,-54.28,-85.56001
-0.1340332,0.6704102,0.7634277,2.541985,5.709924,-1.122137,-136.16,-54.28,-85.56001
-0.1433105,0.6750488,0.753418,2.0,4.526718,1.251908,-136.16,-54.28,-85.56001
-0.1384277,0.6748047,0.7585449,1.29771,3.389313,-0.01526718,-136.16,-53.36,-85.56001
-0.1411133,0.6711426,0.7519531,4.183206,3.236641,2.839695,-136.16,-53.36,-85.56001
-0.1164551,0.6738281,0.75,2.167939,3.763359,-0.8625955,-136.16,-53.36,-85.56001
-0.1276855,0.6711426,0.7546387,1.335878,3.160305,1.435114,-136.16,-53.36,-85.56001
-0.1367188,0.6772461,0.7583008,1.29771,4.038168,-0.4580153,-136.16,-53.36,-85.56001
-0.1311035,0.6765137,0.7421875,1.908397,3.793893,-0.4961832,-136.16,-53.36,-86.48
-0.1342773,0.6716309,0.7446289,0.5267176,3.641221,-0.5954198,-136.16,-53.36,-86.48
-0.1376953,0.6777344,0.7390137,2.748092,5.671756,1.923664,-136.16,-53.36,-86.48
-0.1245117,0.6821289,0.7561035,2.122137,2.526718,0.4198473,-136.16,-53.36,-86.48
-0.1320801,0.6818848,0.7512207,2.908397,4.78626,-0.8015267,-136.16,-53.36,-86.48
-0.1311035,0.6716309,0.75,2.282443,4.442748,-0.7328244,-136.16,-53.36,-86.48
-0.1281738,0.6750488,0.7558594,1.832061,4.022901,0.6870229,-136.16,-53.36,-86.48
-0.130127,0.6828613,0.7519531,2.358779,5.458015,1.572519,-136.16,-53.36,-86.48
-0.1242676,0.6784668,0.7492676,0.8015267,3.870229,-2.503817,-136.16,-53.36,-86.48
-0.1320801,0.6704102,0.7497559,1.022901,3.816794,-1.282443,-136.16,-53.36,-86.48
-0.1403809,0.6760254,0.7485352,3.625954,6.793893,1.412214,-136.16,-53.36,-86.48
-0.1289063,0.6806641,0.7565918,1.465649,3.152672,0.4274809,-136.16,-53.36,-86.48
-0.119873,0.6777344,0.7512207,2.908397,6.175572,-0.3206107,-136.16,-53.36,-86.48
-0.1269531,0.6789551,0.7502441,1.557252,3.664122,-0.129771,-136.16,-53.36,-86.48
-0.1296387,0.6801758,0.7507324,2.068702,4.366412,0.1832061,-136.16,-53.36,-86.48
-0.1342773,0.6748047,0.7473145,2.625954,5.587786,-0.08396947,-136.16,-53.36,-86.48
-0.1325684,0.6762695,0.7492676,0.832061,3.435115,0.1068702,-136.16,-54.28,-85.56001
-0.1276855,0.6826172,0.7519531,2.610687,4.496183,1.030534,-136.16,-54.28,-85.56001
-0.126709,0.6740723,0.7495117,1.221374,3.916031,0.3664122,-136.16,-54.28,-85.56001
-0.1320801,0.6833496,0.7492676,1.312977,4.022901,0.1984733,-136.16,-53.36,-86.48
-0.1262207,0.6828613,0.7529297,1.725191,3.664122,-1.992366,-136.16,-53.36,-86.48
-0.1335449,0.6782227,0.7421875,1.465649,3.938931,-0.02290076,-136.16,-53.36,-86.48
-0.137207,0.6765137,0.7441406,2.877863,5.908397,0.7328244,-136.16,-53.36,-86.48
-0.1257324,0.6882324,0.7468262,2.335878,3.351145,0.7328244,-136.16,-53.36,-86.48
-0.1264648,0.6826172,0.748291,1.694656,4.534351,-2.19084,-136.16,-54.28,-86.48
-0.1401367,0.670166,0.744873,1.679389,3.961832,0.2290076,-137.08,-53.36,-86.48
-0.1257324,0.6782227,0.7490234,3.687023,4.748092,1.80916,-137.08,-53.36,-86.48
-0.1237793,0.6845703,0.7487793,2.816794,4.335878,-0.6335878,-137.08,-53.36,-86.48
-0.1318359,0.6757813,0.7548828,1.374046,3.755725,-1.0,-136.16,-53.36,-86.48
-0.1274414,0.6772461,0.7404785,1.938931,0.4503817,-0.3969466,-136.16,-53.36,-86.48
-0.121582,0.6801758,0.7463379,1.343511,3.580153,0.03816794,-136.16,-53.36,-86.48
-0.1223145,0.6804199,0.7463379,2.938931,4.358778,0.04580153,-136.16,-53.36,-85.56001
-0.1296387,0.6796875,0.746582,1.343511,4.045802,-0.3282443,-136.16,-53.36,-85.56001
-0.1279297,0.6833496,0.746582,1.259542,2.366412,-1.030534,-136.16,-53.36,-86.48
-0.1262207,0.6796875,0.7468262,1.717557,3.847328,-0.01526718,-136.16,-53.36,-86.48
-0.1242676,0.677002,0.7451172,3.763359,5.167939,0.9236641,-136.16,-53.36,-86.48
-0.130127,0.6738281,0.7543945,2.244275,4.679389,0.1755725,-136.16,-53.36,-86.48
-0.1318359,0.6816406,0.7541504,1.48855,3.465649,-0.07633588,-136.16,-53.36,-86.48
-0.1274414,0.6821289,0.7502441,1.717557,5.458015,-0.01526718,-136.16,-53.36,-86.48
-0.1257324,0.677002,0.7539063,2.0,4.221374,-0.1068702,-136.16,-54.28,-86.48
-0.1228027,0.6816406,0.7529297,1.526718,3.480916,0.007633588,-136.16,-54.28,-86.48
-0.1328125,0.684082,0.7460938,0.8091603,2.679389,0.6030535,-136.16,-53.36,-86.48
-0.128418,0.6799316,0.7475586,1.625954,4.030534,0.4274809,-136.16,-53.36,-86.48
-0.1286621,0.6755371,0.7519531,2.732824,6.305344,-0.01526718,-136.16,-53.36,-86.48
-0.1350098,0.6809082,0.7504883,2.839695,5.259542,2.183206,-136.16,-53.36,-86.48
-0.1274414,0.6782227,0.7524414,1.045802,3.198473,-0.03053435,-136.16,-53.36,-86.48
-0.1223145,0.6699219,0.7558594,2.587786,4.854962,0.5954198,-136.16,-53.36,-86.48
-0.1271973,0.6801758,0.7490234,1.625954,3.694656,-1.793893,-136.16,-53.36,-86.48
-0.137207,0.6821289,0.7458496,2.580153,4.496183,0.1603053,-136.16,-53.36,-86.48
-0.114502,0.6818848,0.7460938,1.129771,3.931298,-0.1145038,-136.16,-53.36,-86.48
-0.1254883,0.6723633,0.7614746,0.3129771,3.725191,-0.870229,-136.16,-53.36,-86.48
-0.128418,0.6706543,0.7460938,0.8473283,5.08397,-0.6946565,-136.16,-53.36,-86.48
-0.1293945,0.6794434,0.7497559,3.419847,5.007634,0.7480916,-136.16,-54.28,-86.48
-0.121582,0.6853027,0.7460938,1.183206,5.015267,-0.08396947,-136.16,-54.28,-86.48
-0.1303711,0.6789551,0.7524414,1.992366,5.343512,0.3664122,-136.16,-54.28,-86.48
-0.1230469,0.6750488,0.7480469,2.267176,4.206107,0.2824428,-136.16,-53.36,-86.48
-0.1291504,0.6772461,0.7490234,1.198473,4.740458,-1.587786,-136.16,-53.36,-86.48
-0.126709,0.6755371,0.7490234,1.427481,3.381679,-0.3587786,-136.16,-54.28,-86.48
-0.1330566,0.6818848,0.7509766,2.038168,4.625954,0.8625955,-136.16,-54.28,-86.48
-0.1245117,0.682373,0.7470703,1.183206,4.435114,-1.847328,-136.16,-54.28,-86.48
-0.1328125,0.675293,0.7421875,2.175573,3.312977,-0.03816794,-136.16,-54.28,-86.48
-0.1325684,0.6696777,0.7583008,2.412214,2.381679,-1.916031,-136.16,-54.28,-86.48
-0.1181641,0.6721191,0.748291,2.091603,2.755725,3.496183,-136.16,-54.28,-86.48
-0.1208496,0.6826172,0.7504883,2.572519,4.801527,0.4198473,-136.16,-53.36,-86.48
-0.1230469,0.6799316,0.75,2.198473,6.053435,-2.435115,-136.16,-53.36,-86.48
-0.130127,0.673584,0.7565918,2.236641,3.80916,0.519084,-136.16,-53.36,-86.48
-0.1247559,0.6821289,0.7521973,3.679389,5.022901,1.145038,-136.16,-53.36,-86.48
-0.1225586,0.6757813,0.7441406,1.366412,5.053435,-0.740458,-136.16,-53.36,-86.48
-0.1259766,0.6767578,0.7546387,1.259542,4.030534,0.1145038,-136.16,-54.28,-86.48
-0.1291504,0.6789551,0.7570801,1.908397,4.007634,0.09923664,-136.16,-54.28,-86.48
-0.1206055,0.6774902,0.7497559,2.381679,5.007634,-1.152672,-136.16,-54.28,-86.48
-0.1315918,0.6809082,0.75,1.076336,4.206107,-2.229008,-136.16,-53.36,-87.4
-0.1289063,0.6779785,0.751709,1.717557,4.473282,-1.022901,-136.16,-53.36,-87.4
-0.1235352,0.6774902,0.7529297,2.40458,5.687023,0.129771,-136.16,-53.36,-87.4
-0.1223145,0.6750488,0.7519531,1.610687,5.503817,-1.160305,-136.16,-53.36,-86.48
-0.1311035,0.6828613,0.7509766,1.351145,3.587786,-0.1145038,-136.16,-53.36,-86.48
-0.1296387,0.6784668,0.7431641,-1.114504,4.572519,-1.10687,-136.16,-54.28,-87.4
-0.111084,0.6853027,0.7480469,0.7175572,3.480916,1.961832,-136.16,-53.36,-86.48
-0.1130371,0.6804199,0.744873,-1.236641,3.694656,-2.251908,-136.16,-53.36,-86.48
-0.1335449,0.6726074,0.7492676,1.435114,6.29771,-1.206107,-136.16,-53.36,-86.48
-0.1289063,0.6706543,0.7543945,0.9465649,4.129771,1.587786,-136.16,-53.36,-86.48
-0.123291,0.6811523,0.7507324,2.946565,5.40458,2.656489,-136.16,-53.36,-86.48
-0.1162109,0.6848145,0.7536621,2.374046,6.89313,-1.328244,-136.16,-53.36,-86.48
-0.1379395,0.6743164,0.7480469,1.977099,5.648855,-0.08396947,-136.16,-53.36,-86.48
-0.1340332,0.6689453,0.7373047,2.221374,4.29771,0.2213741,-136.16,-53.36,-86.48
-0.1228027,0.6760254,0.7460938,2.274809,3.534351,1.335878,-136.16,-53.36,-86.48
-0.1123047,0.6811523,0.7404785,0.961832,2.244275,1.236641,-136.16,-53.36,-86.48
-0.1174316,0.6791992,0.7487793,0.3816794,1.946565,-2.29771,-136.16,-53.36,-86.48
-0.142334,0.6777344,0.7492676,1.770992,4.725191,-3.748092,-136.16,-53.36,-86.48
-0.1359863,0.6708984,0.7514648,2.923664,2.305344,1.473282,-136.16,-53.36,-86.48
-0.125,0.6791992,0.7512207,2.221374,2.778626,1.633588,-136.16,-53.36,-86.48
-0.1071777,0.6816406,0.7556152,0.9083969,2.244275,-0.1755725,-136.16,-53.36,-86.48
-0.1203613,0.6782227,0.7607422,3.152672,4.854962,-2.206107,-136.16,-53.36,-86.48
-0.1398926,0.6738281,0.7597656,1.152672,4.61832,-0.1908397,-136.16,-53.36,-86.48
-0.1291504,0.673584,0.7504883,0.8244275,4.152672,-1.274809,-136.16,-53.36,-86.48
-0.114502,0.6704102,0.7504883,1.274809,3.198473,0.4961832,-136.16,-53.36,-86.48
-0.1186523,0.6816406,0.7485352,1.931298,3.633588,-0.04580153,-135.24,-53.36,-86.48
-0.1306152,0.6757813,0.7541504,1.412214,4.328244,-0.610687,-135.24,-53.36,-86.48
-0.1306152,0.6818848,0.7509766,3.854962,5.801527,1.877863,-135.24,-53.36,-86.48
-0.1125488,0.6809082,0.7416992,1.961832,5.374046,-0.5419847,-136.16,-54.28,-86.48
-0.121582,0.6726074,0.7436523,3.885496,7.206107,-0.1908397,-136.16,-54.28,-86.48
-0.1259766,0.6772461,0.7575684,2.412214,6.099236,0.3358779,-136.16,-54.28,-87.4
-0.1311035,0.6748047,0.7558594,1.549618,4.740458,-0.2900764,-136.16,-54.28,-87.4
-0.1323242,0.6787109,0.7502441,3.610687,4.480916,0.4427481,-136.16,-54.28,-87.4
-0.1228027,0.6728516,0.7478027,2.89313,4.625954,0.7099237,-136.16,-53.36,-86.48
-0.1203613,0.6772461,0.7497559,2.274809,4.274809,0.3282443,-136.16,-53.36,-86.48
-0.126709,0.6811523,0.7573242,1.099237,2.709924,-0.1526718,-136.16,-53.36,-86.48
-0.1257324,0.6806641,0.7512207,2.442748,5.129771,0.2137404,-136.16,-53.36,-86.48
-0.1210938,0.6740723,0.7502441,2.29771,4.923664,-0.648855,-136.16,-53.36,-86.48
-0.1262207,0.6777344,0.7419434,1.633588,4.244275,0.2442748,-136.16,-53.36,-86.48
-0.1220703,0.6809082,0.7426758,1.099237,3.145038,-0.1832061,-136.16,-54.28,-86.48
-0.1169434,0.677002,0.7531738,2.633588,5.778626,-1.022901,-136.16,-54.28,-86.48
-0.1203613,0.6743164,0.7590332,2.610687,5.137404,-0.08396947,-136.16,-53.36,-86.48
-0.1252441,0.6794434,0.7497559,0.8854962,4.251908,-0.1145038,-136.16,-53.36,-86.48
-0.1137695,0.6826172,0.7453613,1.59542,4.793893,-1.572519,-136.16,-53.36,-86.48
-0.1196289,0.6699219,0.7568359,1.305344,4.977099,0.2442748,-136.16,-53.36,-86.48
-0.1320801,0.6694336,0.7438965,0.9236641,4.419847,1.122137,-136.16,-53.36,-86.48
-0.1262207,0.6835938,0.746582,0.6641222,3.870229,-0.9083969,-136.16,-53.36,-86.48
-0.1201172,0.6833496,0.7429199,1.740458,4.167939,-0.7251908,-137.08,-53.36,-86.48
-0.1164551,0.6821289,0.7397461,1.580153,4.641222,-0.1755725,-137.08,-53.36,-86.48
-0.1271973,0.6730957,0.7458496,1.152672,3.389313,-0.7099237,-136.16,-53.36,-86.48
-0.1318359,0.6811523,0.7641602,1.984733,4.389313,-0.1908397,-136.16,-53.36,-86.48
-0.1262207,0.6811523,0.75,1.427481,4.526718,-1.580153,-136.16,-53.36,-86.48
-0.1135254,0.6713867,0.7446289,1.549618,4.198473,-1.854962,-137.08,-53.36,-86.48
-0.1279297,0.6713867,0.7568359,1.251908,3.580153,0.02290076,-137.08,-53.36,-86.48
-0.1298828,0.6730957,0.7590332,0.8549618,3.977099,-0.7480916,-137.08,-53.36,-86.48
-0.1223145,0.6777344,0.7597656,1.40458,3.824427,-0.3129771,-136.16,-53.36,-86.48
-0.1147461,0.6787109,0.7509766,2.076336,3.793893,-0.9923664,-136.16,-53.36,-86.48
-0.1171875,0.6789551,0.7553711,2.954198,4.572519,0.8015267,-136.16,-53.36,-86.48
-0.126709,0.6726074,0.7492676,1.435114,4.221374,-0.09923664,-136.16,-53.36,-86.48
-0.1240234,0.6760254,0.7451172,3.389313,5.396946,-0.1374046,-136.16,-53.36,-86.48
-0.1203613,0.6811523,0.7504883,2.648855,4.748092,1.328244,-136.16,-53.36,-86.48
-0.1257324,0.6777344,0.7553711,1.068702,4.534351,-0.1755725,-136.16,-53.36,-86.48
-0.1247559,0.6760254,0.7502441,3.129771,3.198473,-0.4885496,-136.16,-53.36,-86.48
-0.1213379,0.6772461,0.7426758,2.954198,4.29771,0.1603053,-136.16,-53.36,-86.48
-0.1171875,0.6762695,0.7553711,2.251908,3.022901,1.648855,-136.16,-53.36,-86.48
-0.1220703,0.6843262,0.7504883,2.770992,4.40458,0.4198473,-136.16,-53.36,-86.48
-0.1171875,0.677002,0.7492676,1.51145,2.89313,-0.7862596,-136.16,-53.36,-86.48
-0.1191406,0.6818848,0.7487793,1.48855,4.740458,-0.961832,-136.16,-53.36,-86.48
-0.1208496,0.675293,0.7543945,2.389313,6.61832,-0.5648855,-136.16,-53.36,-86.48
-0.1201172,0.668457,0.7558594,2.732824,5.099236,0.6717557,-136.16,-53.36,-86.48
-0.1201172,0.6682129,0.7597656,1.778626,4.290076,-0.1832061,-136.16,-53.36,-86.48
-0.1193848,0.6760254,0.7475586,2.793893,4.625954,0.1984733,-136.16,-53.36,-86.48
-0.1225586,0.6828613,0.7502441,3.839695,6.526718,1.641221,-136.16,-53.36,-86.48
-0.1223145,0.6794434,0.7490234,2.732824,4.343512,1.580153,-136.16,-53.36,-86.48
-0.1196289,0.6867676,0.7451172,1.198473,3.748092,-0.5496183,-136.16,-53.36,-86.48
-0.1279297,0.6791992,0.7519531,1.343511,4.122138,-1.458015,-136.16,-53.36,-86.48
-0.1259766,0.6711426,0.7412109,2.801527,3.832061,0.3358779,-136.16,-53.36,-86.48
-0.1186523,0.6716309,0.7490234,3.900763,2.908397,1.816794,-136.16,-53.36,-86.48
-0.1147461,0.6850586,0.7412109,2.305344,3.870229,-2.068702,-136.16,-53.36,-86.48
-0.1208496,0.6879883,0.7460938,2.496183,2.435115,0.3969466,-136.16,-53.36,-86.48
-0.1115723,0.6762695,0.7497559,0.9770992,1.625954,-0.2366412,-136.16,-53.36,-87.4
-0.1176758,0.6821289,0.7561035,-0.5725191,2.755725,-1.068702,-136.16,-53.36,-87.4
-0.1135254,0.6791992,0.751709,0.09923664,6.351145,-1.839695,-136.16,-53.36,-86.48
-0.1184082,0.6672363,0.7490234,-0.1603053,3.900763,-2.045802,-136.16,-53.36,-86.48
-0.1162109,0.6726074,0.7590332,-0.01526718,4.122138,0.02290076,-136.16,-53.36,-86.48
-0.1254883,0.6806641,0.7590332,1.320611,5.969466,0.1068702,-136.16,-53.36,-86.48
-0.1225586,0.6791992,0.7414551,0.6259542,6.541985,-0.08396947,-136.16,-53.36,-86.48
-0.1176758,0.6765137,0.7431641,2.10687,6.671756,-1.51145,-136.16,-53.36,-86.48
-0.1279297,0.6765137,0.7536621,-0.09160305,5.732824,-0.5267176,-135.24,-53.36,-86.48
-0.1298828,0.6799316,0.7436523,-0.2824428,4.854962,0.1908397,-135.24,-53.36,-86.48
-0.1210938,0.6721191,0.744873,0.9007633,5.145038,-0.2748091,-135.24,-53.36,-86.48
-0.1223145,0.6762695,0.753418,0.9847328,5.755725,-0.06870229,-136.16,-54.28,-85.56001
-0.1262207,0.6740723,0.7531738,0.5038168,6.290076,-0.5267176,-136.16,-54.28,-85.56001
-0.1230469,0.6633301,0.7587891,1.465649,4.854962,-0.1450382,-136.16,-53.36,-86.48
-0.126709,0.6704102,0.755127,2.145038,2.732824,2.251908,-136.16,-53.36,-86.48
-0.1293945,0.6809082,0.7546387,1.709924,4.305344,0.7251908,-136.16,-53.36,-86.48
-0.1132813,0.6745605,0.748291,2.0,3.152672,-1.885496,-136.16,-53.36,-85.56001
-0.1311035,0.6721191,0.7563477,1.259542,4.465649,0.3206107,-136.16,-53.36,-85.56001
-0.1242676,0.6767578,0.7451172,3.21374,4.396946,0.740458,-136.16,-53.36,-85.56001
-0.1108398,0.6796875,0.7485352,0.6030535,2.870229,-0.8167939,-136.16,-53.36,-85.56001
-0.1228027,0.6791992,0.7546387,1.51145,4.358778,0.1221374,-136.16,-53.36,-85.56001
-0.1259766,0.6862793,0.7358398,2.007634,5.251908,-0.4045802,-136.16,-53.36,-85.56001
-0.1184082,0.6733398,0.7529297,1.335878,4.824428,-1.694656,-136.16,-53.36,-85.56001
-0.1276855,0.673584,0.7614746,1.083969,4.419847,0.5038168,-136.16,-53.36,-85.56001
-0.1254883,0.6743164,0.7487793,1.557252,5.603054,-0.3664122,-136.16,-54.28,-85.56001
-0.1174316,0.6765137,0.7575684,4.61832,5.59542,1.854962,-136.16,-53.36,-85.56001
-0.1132813,0.6870117,0.7573242,1.366412,4.824428,2.038168,-136.16,-53.36,-85.56001
-0.1225586,0.682373,0.7473145,1.961832,5.992366,-2.633588,-136.16,-53.36,-85.56001
-0.1262207,0.6682129,0.7556152,0.6259542,5.725191,-2.10687,-136.16,-53.36,-86.48
-0.1311035,0.6674805,0.7543945,2.328244,6.21374,1.061069,-136.16,-53.36,-86.48
-0.1228027,0.6691895,0.7504883,2.78626,4.832061,1.824428,-136.16,-53.36,-85.56001
-0.1098633,0.6757813,0.7558594,3.725191,6.076336,0.7938931,-136.16,-53.36,-85.56001
-0.1279297,0.6901855,0.7463379,2.839695,4.137404,2.122137,-136.16,-53.36,-85.56001
-0.1235352,0.6799316,0.746582,3.091603,4.961832,-2.549618,-136.16,-53.36,-85.56001
-0.1242676,0.6716309,0.7458496,0.9007633,4.687023,-0.5267176,-136.16,-53.36,-85.56001
-0.1308594,0.6765137,0.7504883,2.59542,4.80916,2.374046,-136.16,-53.36,-85.56001
-0.1328125,0.6782227,0.7490234,1.618321,3.763359,-1.053435,-136.16,-54.28,-86.48
-0.1125488,0.6799316,0.748291,1.137405,3.312977,-1.946565,-136.16,-54.28,-86.48
-0.1152344,0.6760254,0.7590332,1.152672,3.961832,-0.05343511,-136.16,-53.36,-85.56001
-0.1220703,0.670166,0.7509766,1.183206,4.900764,0.2748091,-136.16,-53.36,-85.56001
-0.1223145,0.668457,0.7456055,2.51145,4.61832,-2.114504,-136.16,-53.36,-85.56001
-0.1259766,0.6779785,0.7541504,2.19084,4.007634,2.0,-136.16,-54.28,-86.48
-0.1203613,0.6853027,0.7504883,3.870229,5.839694,1.091603,-136.16,-54.28,-86.48
-0.1210938,0.6789551,0.7426758,2.587786,4.717557,-1.603053,-136.16,-54.28,-86.48
-0.125,0.6652832,0.7529297,3.068702,4.48855,-1.694656,-136.16,-53.36,-86.48
-0.1313477,0.6799316,0.762207,3.267176,4.549618,2.480916,-136.16,-53.36,-86.48
-0.1135254,0.6845703,0.7561035,2.320611,4.633588,-0.2137404,-136.16,-53.36,-86.48
-0.121582,0.6755371,0.7419434,2.381679,5.541985,-1.694656,-136.16,-53.36,-87.4
-0.1264648,0.6691895,0.7441406,1.343511,3.175573,-1.816794,-136.16,-53.36,-87.4
-0.1252441,0.6713867,0.7453613,2.770992,3.442748,2.129771,-136.16,-54.28,-86.48
-0.1201172,0.6816406,0.7497559,4.122138,3.938931,2.137405,-136.16,-54.28,-86.48
-0.1105957,0.6791992,0.7434082,3.145038,3.824427,0.7862596,-136.16,-54.28,-86.48
-0.1230469,0.6811523,0.7548828,2.618321,4.78626,0.07633588,-135.24,-54.28,-87.4
-0.1213379,0.6855469,0.7460938,3.534351,5.389313,-0.8244275,-135.24,-54.28,-87.4
-0.1188965,0.6843262,0.7402344,2.946565,5.641222,1.045802,-135.24,-54.28,-87.4
-0.1181641,0.6813965,0.7526855,2.610687,5.648855,0.8091603,-136.16,-54.28,-87.4
-0.1188965,0.6804199,0.7446289,1.557252,4.389313,-1.320611,-136.16,-54.28,-87.4
-0.1186523,0.6757813,0.7512207,0.7175572,4.671756,-1.496183,-135.24,-54.28,-87.4
-0.1257324,0.6811523,0.7609863,-0.5648855,5.160306,-1.206107,-135.24,-54.28,-87.4
-0.1235352,0.6838379,0.7529297,0.480916,5.045802,-0.01526718,-135.24,-54.28,-87.4
-0.1164551,0.6765137,0.7436523,-0.05343511,5.198473,-1.343511,-135.24,-53.36,-87.4
-0.1223145,0.6713867,0.7402344,0.8549618,5.320611,-0.2366412,-135.24,-53.36,-87.4
-0.1159668,0.6762695,0.7507324,1.732824,7.328244,2.496183,-135.24,-53.36,-87.4
-0.1201172,0.6787109,0.763916,2.251908,7.671756,1.969466,-136.16,-53.36,-87.4
-0.1149902,0.692627,0.760498,1.465649,6.473282,1.954198,-136.16,-53.36,-87.4
-0.1328125,0.6845703,0.7468262,0.610687,5.885496,-1.557252,-136.16,-53.36,-87.4
-0.135498,0.6723633,0.7473145,-0.01526718,5.580153,-0.6870229,-136.16,-53.36,-87.4
-0.1308594,0.6743164,0.7563477,1.656489,5.221374,2.290076,-136.16,-53.36,-87.4
-0.1218262,0.6765137,0.7436523,1.694656,4.870229,-0.2137404,-136.16,-54.28,-86.48
-0.121582,0.6848145,0.7346191,0.5725191,3.961832,-0.832061,-136.16,-54.28,-86.48
-0.1318359,0.6828613,0.7424316,1.030534,3.763359,-2.038168,-136.16,-54.28,-86.48
-0.1340332,0.6750488,0.7492676,3.656489,3.290076,1.763359,-136.16,-54.28,-86.48
-0.1166992,0.673584,0.744873,2.534351,0.3740458,1.10687,-136.16,-54.28,-86.48
-0.1057129,0.7004395,0.7446289,2.793893,1.633588,3.061069,-135.24,-54.28,-86.48
-0.1020508,0.6899414,0.7648926,1.977099,4.961832,-3.480916,-135.24,-54.28,-86.48
-0.104248,0.6687012,0.7548828,0.961832,5.969466,-3.343511,-135.24,-54.28,-86.48
-0.1340332,0.671875,0.760498,0.5267176,4.946565,1.007634,-136.16,-53.36,-86.48
-0.1271973,0.6799316,0.7424316,1.480916,3.854962,2.412214,-136.16,-53.36,-86.48
-0.1213379,0.6809082,0.7341309,1.824428,3.916031,-0.4732824,-136.16,-53.36,-86.48
-0.123291,0.6879883,0.7421875,1.664122,4.89313,1.282443,-136.16,-53.36,-86.48
-0.1157227,0.6916504,0.7490234,1.633588,5.167939,1.877863,-136.16,-53.36,-86.48
-0.1103516,0.675293,0.7475586,1.458015,4.816794,-2.366412,-136.16,-53.36,-86.48
-0.1252441,0.6728516,0.7553711,0.7633588,3.671756,-1.381679,-136.16,-53.36,-87.4
-0.1257324,0.6801758,0.7636719,-0.3969466,3.78626,-2.312977,-136.16,-53.36,-87.4
-0.1271973,0.6750488,0.7585449,0.8854962,5.656488,-0.9007633,-136.16,-53.36,-87.4
-0.1179199,0.6704102,0.7539063,-0.2671756,4.290076,-2.129771,-135.24,-53.36,-86.48
-0.1315918,0.6672363,0.7487793,0.2519084,2.938931,-2.48855,-135.24,-53.36,-86.48
-0.1286621,0.6640625,0.7561035,2.938931,3.977099,1.534351,-135.24,-53.36,-86.48
-0.1142578,0.6774902,0.7539063,3.70229,6.740458,2.145038,-136.16,-53.36,-86.48
-0.1118164,0.6796875,0.751709,2.755725,5.725191,-0.9236641,-136.16,-53.36,-86.48
-0.1181641,0.6799316,0.7519531,3.80916,4.961832,0.7251908,-136.16,-53.36,-86.48
-0.125,0.6796875,0.7580566,2.954198,4.61832,-0.4351145,-136.16,-53.36,-86.48
-0.1125488,0.6750488,0.744873,1.618321,3.480916,-1.045802,-136.16,-53.36,-86.48
-0.1223145,0.6760254,0.7387695,1.549618,5.793893,-0.5114504,-136.16,-54.28,-86.48
-0.1257324,0.6799316,0.7514648,2.053435,5.312977,-0.7938931,-136.16,-54.28,-86.48
-0.1196289,0.6833496,0.7463379,1.938931,5.40458,-0.9160305,-136.16,-54.28,-86.48
-0.1169434,0.6799316,0.7456055,2.78626,3.610687,0.389313,-136.16,-54.28,-86.48
-0.1164551,0.6733398,0.7539063,1.778626,4.305344,-1.854962,-136.16,-54.28,-86.48
-0.1289063,0.6716309,0.7609863,1.931298,3.412214,0.8015267,-136.16,-54.28,-86.48
-0.1218262,0.6733398,0.7651367,5.656488,4.221374,3.10687,-136.16,-54.28,-86.48
-0.1057129,0.6806641,0.7600098,2.908397,4.59542,1.908397,-136.16,-54.28,-86.48
-0.1103516,0.6774902,0.7602539,1.198473,6.816794,0.06870229,-135.24,-53.36,-87.4
-0.1313477,0.6674805,0.75,1.625954,6.519084,0.7328244,-135.24,-53.36,-87.4
-0.1350098,0.6691895,0.7390137,3.80916,6.564886,1.572519,-135.24,-53.36,-87.4
-0.1218262,0.684082,0.7443848,0.9236641,5.564886,1.175573,-136.16,-53.36,-87.4
-0.1147461,0.6889648,0.7434082,0.2977099,3.992366,0.4961832,-136.16,-53.36,-87.4
-0.1118164,0.6855469,0.7431641,-0.5496183,3.19084,-1.679389,-136.16,-54.28,-86.48
-0.1242676,0.6799316,0.7429199,-1.145038,2.480916,-3.671756,-136.16,-54.28,-86.48
-0.1264648,0.6713867,0.7426758,2.007634,2.793893,-1.587786,-136.16,-54.28,-86.48
-0.1164551,0.6806641,0.7463379,1.152672,0.5496183,2.114504,-136.16,-54.28,-86.48
-0.1103516,0.6862793,0.7619629,1.473282,1.580153,1.732824,-136.16,-54.28,-86.48
-0.1113281,0.6745605,0.7578125,0.480916,2.900763,-2.549618,-136.16,-54.28,-86.48
-0.1318359,0.675293,0.7614746,2.19084,7.10687,-1.221374,-135.24,-54.28,-86.48
-0.1286621,0.6708984,0.7565918,3.885496,6.007634,-1.541985,-135.24,-54.28,-86.48
-0.1359863,0.6733398,0.7497559,3.59542,5.755725,1.083969,-135.24,-54.28,-87.4
-0.1291504,0.6855469,0.7512207,4.572519,5.320611,2.679389,-135.24,-54.28,-87.4
-0.119873,0.6870117,0.7351074,4.541985,2.816794,3.755725,-135.24,-54.28,-87.4
-0.1022949,0.6796875,0.7375488,3.961832,5.366412,0.1068702,-135.24,-53.36,-87.4
-0.1079102,0.6806641,0.7563477,1.541985,4.877862,2.465649,-135.24,-53.36,-87.4
-0.1103516,0.6865234,0.7497559,0.5572519,3.709924,-0.259542,-135.24,-53.36,-87.4
-0.1142578,0.6816406,0.7387695,1.465649,4.51145,-1.160305,-135.24,-53.36,-87.4
-0.1264648,0.675293,0.753418,1.557252,3.847328,0.3053435,-135.24,-53.36,-87.4
-0.1289063,0.6804199,0.7385254,1.366412,3.137405,-0.5114504,-136.16,-53.36,-87.4
-0.123291,0.6877441,0.7431641,1.59542,4.389313,1.954198,-136.16,-53.36,-87.4
-0.1196289,0.6867676,0.7404785,2.916031,2.961832,0.3587786,-136.16,-53.36,-87.4
-0.111084,0.6787109,0.7463379,1.580153,1.923664,-1.175573,-135.24,-53.36,-87.4
-0.1208496,0.6794434,0.7531738,1.877863,2.801527,-3.129771,-135.24,-53.36,-87.4
-0.09790039,0.6855469,0.7397461,4.427481,2.854962,4.152672,-136.16,-53.36,-87.4
-0.09667969,0.6914063,0.7319336,3.129771,2.625954,-0.7938931,-136.16,-53.36,-87.4
-0.1030273,0.6867676,0.7438965,-0.0610687,4.778626,-2.022901,-135.24,-53.36,-88.32
-0.1118164,0.6774902,0.7570801,1.969466,6.435114,0.09160305,-135.24,-53.36,-88.32
-0.1208496,0.6730957,0.7614746,1.458015,6.816794,-1.091603,-135.24,-53.36,-88.32
-0.1359863,0.6760254,0.7512207,1.282443,5.458015,0.2213741,-135.24,-53.36,-87.4
-0.1125488,0.6862793,0.7468262,1.412214,3.977099,2.603053,-135.24,-53.36,-87.4
-0.1000977,0.6899414,0.7390137,0.5954198,4.709924,-0.740458,-135.24,-53.36,-88.32
-0.1103516,0.6865234,0.7373047,1.641221,5.290076,-2.89313,-135.24,-53.36,-88.32
-0.1259766,0.6757813,0.7414551,1.641221,6.282443,-2.206107,-135.24,-53.36,-88.32
-0.1240234,0.6767578,0.7490234,3.969466,6.198473,3.206107,-135.24,-54.28,-87.4
-0.1035156,0.6809082,0.7382813,2.145038,4.076336,1.587786,-135.24,-54.28,-87.4
-0.1186523,0.6821289,0.7385254,2.122137,3.290076,-0.4045802,-135.24,-54.28,-87.4
-0.1181641,0.684082,0.7509766,2.656489,5.29771,0.0,-136.16,-53.36,-87.4
-0.1257324,0.6887207,0.7470703,1.358779,4.59542,0.4732824,-136.16,-53.36,-87.4
-0.1201172,0.685791,0.7456055,0.9465649,4.648855,-2.618321,-136.16,-53.36,-87.4
-0.1098633,0.6745605,0.7475586,1.70229,4.61832,-2.160305,-136.16,-53.36,-87.4
-0.1218262,0.6730957,0.7456055,1.900763,3.206107,1.763359,-136.16,-53.36,-87.4
-0.1162109,0.6762695,0.7563477,4.442748,5.633588,2.465649,-135.24,-53.36,-87.4
-0.1113281,0.6838379,0.7521973,3.175573,4.0,1.389313,-135.24,-53.36,-87.4
-0.1083984,0.6813965,0.7485352,1.870229,4.21374,-1.618321,-135.24,-53.36,-87.4
-0.1103516,0.6782227,0.7436523,1.328244,5.61832,-0.3358779,-136.16,-54.28,-87.4
-0.121582,0.6791992,0.748291,2.442748,4.435114,-0.04580153,-136.16,-54.28,-87.4
-0.1169434,0.6831055,0.7519531,2.083969,4.129771,0.5496183,-136.16,-53.36,-87.4
-0.1152344,0.6914063,0.7426758,1.282443,3.603053,0.8167939,-136.16,-53.36,-87.4
-0.1096191,0.6884766,0.751709,-0.3053435,4.267176,-2.320611,-136.16,-53.36,-87.4
-0.1125488,0.6811523,0.748291,1.244275,6.061069,-3.030534,-135.24,-53.36,-86.48
-0.1159668,0.6728516,0.7460938,1.824428,4.40458,1.114504,-135.24,-53.36,-86.48
-0.1091309,0.6791992,0.7431641,4.633588,6.625954,3.572519,-135.24,-53.36,-86.48
-0.1074219,0.685791,0.7480469,2.549618,4.870229,1.717557,-135.24,-53.36,-87.4
-0.1105957,0.6799316,0.7529297,1.534351,5.763359,0.03816794,-135.24,-53.36,-87.4
-0.1237793,0.6765137,0.7473145,1.221374,4.816794,-0.6335878,-135.24,-53.36,-87.4
-0.123291,0.6791992,0.7487793,3.969466,4.137404,2.061069,-135.24,-53.36,-87.4
-0.1118164,0.6894531,0.744873,0.9160305,4.145038,2.038168,-135.24,-53.36,-87.4
-0.1140137,0.6855469,0.7414551,0.5267176,4.763359,-0.740458,-135.24,-53.36,-87.4
-0.1298828,0.6779785,0.7468262,1.0,3.778626,-1.854962,-135.24,-53.36,-87.4
-0.1259766,0.6799316,0.7463379,0.259542,1.923664,-1.068702,-135.24,-53.36,-87.4
-0.1159668,0.685791,0.7543945,1.206107,1.557252,0.129771,-136.16,-53.36,-87.4
-0.1086426,0.6789551,0.7453613,1.938931,3.221374,-1.793893,-136.16,-53.36,-87.4
-0.1166992,0.6748047,0.7434082,3.435115,2.541985,1.259542,-135.24,-54.28,-88.32
-0.1044922,0.6853027,0.7568359,2.801527,4.763359,1.435114,-135.24,-54.28,-88.32
-0.09594727,0.6828613,0.7458496,1.80916,3.076336,-0.09160305,-135.24,-54.28,-88.32
-0.1066895,0.6833496,0.7502441,1.656489,5.351145,0.3664122,-136.16,-53.36,-87.4
-0.1240234,0.6767578,0.7519531,2.374046,4.51145,-1.40458,-136.16,-53.36,-87.4
-0.1213379,0.6794434,0.7473145,3.725191,6.10687,2.137405,-136.16,-53.36,-87.4
-0.1079102,0.6938477,0.7431641,2.923664,5.091603,1.923664,-135.24,-53.36,-88.32
-0.107666,0.6848145,0.7404785,2.236641,4.137404,-0.3282443,-135.24,-53.36,-88.32
-0.1118164,0.6801758,0.7453613,1.679389,4.007634,-0.8244275,-136.16,-53.36,-87.4
-0.1166992,0.6896973,0.7460938,2.206107,5.725191,0.6717557,-136.16,-53.36,-87.4
-0.1115723,0.689209,0.7463379,2.183206,6.358778,-1.312977,-136.16,-53.36,-87.4
-0.1157227,0.6811523,0.7443848,0.02290076,3.70229,-1.832061,-135.24,-53.36,-87.4
-0.1083984,0.6870117,0.7456055,-0.08396947,3.832061,-0.06870229,-135.24,-54.28,-88.32
-0.1115723,0.6853027,0.7434082,-0.03053435,4.541985,-0.1526718,-135.24,-54.28,-88.32
-0.105957,0.6813965,0.7514648,0.2748091,5.160306,-2.503817,-135.24,-54.28,-88.32
-0.1188965,0.6811523,0.7473145,0.5267176,4.351145,-0.7022901,-136.16,-54.28,-87.4
-0.1020508,0.6765137,0.7504883,-0.6793893,5.885496,-1.534351,-136.16,-54.28,-87.4
-0.1157227,0.6708984,0.748291,-0.1984733,2.770992,-0.129771,-136.16,-54.28,-87.4
-0.1201172,0.6767578,0.7487793,1.709924,6.419847,1.442748,-136.16,-53.36,-87.4
-0.1096191,0.685791,0.7497559,0.09923664,4.320611,-0.4198473,-136.16,-53.36,-87.4
-0.107666,0.6845703,0.7507324,1.022901,4.40458,0.351145,-136.16,-53.36,-86.48
-0.1147461,0.6774902,0.7390137,1.938931,4.015267,-0.1679389,-136.16,-53.36,-86.48
-0.1123047,0.6750488,0.7490234,2.366412,3.89313,-0.07633588,-136.16,-53.36,-86.48
-0.1184082,0.6748047,0.7612305,2.70229,4.503817,1.274809,-136.16,-53.36,-86.48
-0.1154785,0.6655273,0.7578125,3.244275,3.21374,-0.1984733,-136.16,-53.36,-86.48
-0.1103516,0.6765137,0.744873,3.770992,1.312977,0.519084,-136.16,-53.36,-86.48
-0.1047363,0.6862793,0.7529297,3.977099,3.160305,1.89313,-136.16,-53.36,-87.4
-0.109375,0.6867676,0.7397461,4.129771,2.389313,-1.870229,-136.16,-53.36,-87.4
-0.1120605,0.6870117,0.7541504,-0.3435115,4.465649,-3.572519,-136.16,-53.36,-87.4
-0.1062012,0.6765137,0.7514648,-0.1450382,6.526718,-3.557252,-136.16,-53.36,-87.4
-0.1140137,0.666748,0.7536621,0.2671756,4.61832,-1.694656,-136.16,-53.36,-87.4
-0.1147461,0.6733398,0.7446289,0.2442748,4.740458,-0.7099237,-136.16,-53.36,-87.4
-0.1210938,0.6784668,0.7419434,3.374046,5.694656,-0.5267176,-136.16,-53.36,-87.4
-0.112793,0.6779785,0.7412109,1.870229,5.267176,-0.7557252,-136.16,-53.36,-87.4
-0.1125488,0.6809082,0.7458496,1.564886,3.335878,0.1908397,-136.16,-53.36,-86.48
-0.1103516,0.6755371,0.7463379,3.977099,5.732824,1.503817,-136.16,-53.36,-86.48
-0.1149902,0.6728516,0.7531738,5.244275,5.458015,1.580153,-136.16,-53.36,-86.48
-0.1101074,0.6726074,0.7509766,5.08397,5.694656,1.610687,-136.16,-53.36,-86.48
-0.1191406,0.6799316,0.7424316,1.885496,3.160305,-0.2900764,-136.16,-53.36,-86.48
-0.1125488,0.6860352,0.7438965,0.8931297,2.519084,1.061069,-136.16,-52.44,-87.4
-0.105957,0.6882324,0.7441406,2.908397,4.503817,0.7099237,-136.16,-52.44,-87.4
-0.1074219,0.6755371,0.7434082,3.526718,5.251908,-1.129771,-136.16,-52.44,-87.4
-0.1105957,0.6784668,0.7434082,2.847328,2.442748,0.1145038,-136.16,-53.36,-87.4
-0.1196289,0.6843262,0.7497559,2.908397,1.625954,-0.0610687,-136.16,-53.36,-87.4
-0.1020508,0.6833496,0.7473145,4.38168,2.068702,2.603053,-135.24,-53.36,-87.4
-0.09936523,0.6845703,0.7419434,1.572519,-0.6870229,-0.4961832,-135.24,-53.36,-87.4
-0.1154785,0.6804199,0.7438965,3.389313,2.816794,-2.374046,-135.24,-53.36,-87.4
-0.1049805,0.6794434,0.7514648,4.755725,3.40458,-0.7099237,-135.24,-53.36,-88.32
-0.1079102,0.6794434,0.7485352,4.251908,3.465649,3.51145,-135.24,-53.36,-88.32
-0.1008301,0.6958008,0.7490234,3.198473,1.89313,3.641221,-135.24,-53.36,-88.32
-0.09545898,0.6965332,0.748291,1.793893,1.343511,-0.2290076,-135.24,-53.36,-88.32
-0.08740234,0.6870117,0.7446289,1.778626,3.687023,-0.832061,-135.24,-53.36,-88.32
-0.1022949,0.6916504,0.7419434,2.694656,4.816794,0.6412213,-135.24,-53.36,-88.32
-0.1088867,0.6965332,0.7480469,1.320611,5.328244,1.038168,-135.24,-53.36,-88.32
-0.0925293,0.6838379,0.748291,0.8167939,4.503817,-0.09923664,-135.24,-53.36,-88.32
-0.09838867,0.6782227,0.7416992,1.656489,5.480916,0.8091603,-135.24,-53.36,-88.32
-0.1052246,0.6853027,0.7487793,0.5267176,4.343512,0.1450382,-135.24,-53.36,-88.32
-0.1108398,0.6904297,0.7409668,1.19084,4.022901,0.3053435,-135.24,-53.36,-88.32
-0.1005859,0.6828613,0.7416992,2.167939,4.48855,0.5801527,-135.24,-53.36,-89.24
-0.09985352,0.6862793,0.7478027,-0.3969466,4.076336,-0.4122138,-135.24,-53.36,-89.24
-0.1074219,0.6813965,0.7460938,0.9389313,5.38168,-1.137405,-135.24,-53.36,-88.32
-0.1098633,0.685791,0.7434082,0.9389313,3.244275,0.0610687,-135.24,-53.36,-88.32
-0.1013184,0.6862793,0.7443848,3.458015,4.366412,0.5038168,-135.24,-53.36,-88.32
-0.09741211,0.6826172,0.7536621,1.900763,5.679389,0.1984733,-135.24,-53.36,-88.32
-0.1049805,0.6882324,0.7475586,1.656489,5.08397,-0.07633588,-135.24,-53.36,-88.32
-0.1069336,0.6845703,0.7434082,1.389313,3.801527,-3.053435,-135.24,-53.36,-88.32
-0.09350586,0.677002,0.748291,2.633588,4.816794,0.3969466,-135.24,-53.36,-88.32
-0.1010742,0.6779785,0.751709,2.259542,4.70229,0.3053435,-135.24,-53.36,-88.32
-0.104248,0.6806641,0.7443848,0.6335878,4.114504,-1.70229,-135.24,-53.36,-88.32
-0.1069336,0.6826172,0.746582,4.526718,4.152672,0.5648855,-135.24,-53.36,-88.32
-0.09594727,0.6931152,0.7434082,3.625954,6.022901,3.923664,-135.24,-53.36,-88.32
-0.09277344,0.6970215,0.7355957,1.862595,5.709924,-0.9312977,-135.24,-53.36,-88.32
-0.1071777,0.6867676,0.7412109,0.5572519,4.70229,-2.091603,-136.16,-53.36,-88.32
-0.1083984,0.684082,0.7526855,0.6870229,5.145038,-1.083969,-136.16,-53.36,-88.32
-0.09301758,0.6943359,0.7558594,1.580153,4.900764,1.076336,-136.16,-53.36,-88.32
-0.09375,0.6838379,0.7587891,0.9312977,4.984733,-1.877863,-135.24,-52.44,-88.32
-0.1032715,0.6687012,0.7473145,0.6030535,5.419847,-1.427481,-135.24,-52.44,-88.32
-0.1096191,0.6630859,0.7407227,1.778626,6.450382,-1.610687,-135.24,-52.44,-88.32
-0.1157227,0.6772461,0.7473145,3.40458,4.709924,1.870229,-135.24,-53.36,-87.4
-0.1003418,0.6984863,0.7414551,3.358779,2.977099,2.022901,-135.24,-53.36,-87.4
-0.09741211,0.692627,0.7460938,1.603053,3.312977,0.1908397,-136.16,-53.36,-87.4
-0.1079102,0.6945801,0.7407227,1.480916,5.885496,-1.648855,-136.16,-53.36,-87.4
-0.1071777,0.6855469,0.7446289,0.9160305,4.229008,-2.175573,-136.16,-53.36,-87.4
-0.1088867,0.682373,0.7426758,1.435114,2.992366,0.5725191,-135.24,-53.36,-87.4
-0.09277344,0.6809082,0.7514648,1.725191,0.7557252,-2.412214,-135.24,-53.36,-87.4
-0.1027832,0.6799316,0.7441406,1.648855,3.366412,-0.2671756,-135.24,-53.36,-87.4
-0.1010742,0.6782227,0.7473145,3.78626,5.587786,2.442748,-135.24,-53.36,-88.32
-0.09741211,0.682373,0.7436523,3.503817,3.725191,0.5801527,-135.24,-53.36,-88.32
-0.105957,0.6933594,0.744873,2.717557,3.931298,0.2061069,-136.16,-53.36,-88.32
-0.1040039,0.6862793,0.7473145,0.2748091,3.885496,-0.389313,-136.16,-53.36,-88.32
-0.104248,0.6794434,0.7419434,2.465649,4.816794,-1.671756,-136.16,-53.36,-88.32
-0.1025391,0.6882324,0.7438965,3.076336,4.328244,1.19084,-135.24,-53.36,-89.24
-0.08520508,0.685791,0.7458496,2.458015,2.885496,1.274809,-135.24,-53.36,-89.24
-0.09716797,0.6821289,0.7463379,2.145038,4.10687,-0.1908397,-135.24,-53.36,-89.24
-0.1027832,0.6877441,0.7490234,1.977099,4.78626,0.1679389,-135.24,-53.36,-89.24
-0.1069336,0.6887207,0.7438965,1.847328,6.312977,0.4503817,-135.24,-53.36,-89.24
-0.1054688,0.682373,0.7397461,2.389313,2.709924,-1.244275,-135.24,-53.36,-89.24
-0.1096191,0.6921387,0.7460938,0.778626,4.496183,1.625954,-135.24,-53.36,-89.24
-0.09326172,0.682373,0.7441406,1.900763,5.480916,-1.847328,-135.24,-53.36,-89.24
-0.09912109,0.6789551,0.7502441,2.465649,4.08397,-0.2366412,-135.24,-54.28,-88.32
-0.09228516,0.6904297,0.7421875,1.51145,1.78626,1.664122,-135.24,-54.28,-88.32
-0.09350586,0.7016602,0.7416992,1.923664,5.557252,-0.1755725,-135.24,-54.28,-88.32
-0.09619141,0.684082,0.746582,-0.9465649,5.328244,-4.290076,-135.24,-53.36,-88.32
-0.1103516,0.675293,0.7568359,0.8015267,4.335878,0.5572519,-135.24,-53.36,-88.32
-0.1113281,0.6791992,0.7502441,2.290076,4.480916,1.51145,-135.24,-53.36,-88.32
-0.09204102,0.6875,0.7404785,2.610687,6.961832,1.465649,-135.24,-53.36,-88.32
-0.09350586,0.6904297,0.7441406,2.221374,6.351145,-1.427481,-135.24,-53.36,-88.32
-0.1096191,0.685791,0.7507324,-0.5648855,5.450382,-1.412214,-135.24,-53.36,-88.32
-0.1091309,0.684082,0.7429199,0.9465649,6.091603,-1.40458,-135.24,-53.36,-88.32
-0.1000977,0.6782227,0.748291,2.038168,4.862596,2.129771,-135.24,-53.36,-88.32
-0.1025391,0.6818848,0.7421875,2.229008,5.40458,-0.5267176,-135.24,-53.36,-88.32
-0.1025391,0.6804199,0.7390137,3.137405,5.534351,-0.5801527,-135.24,-53.36,-88.32
-0.1013184,0.6896973,0.7387695,2.374046,4.450382,0.2061069,-135.24,-53.36,-88.32
-0.1027832,0.6831055,0.7348633,1.80916,4.122138,-0.03053435,-136.16,-53.36,-88.32
-0.1040039,0.6906738,0.7539063,3.198473,5.19084,0.2900764,-135.24,-53.36,-88.32
-0.09594727,0.6828613,0.7480469,0.4274809,4.473282,-2.206107,-135.24,-53.36,-88.32
-0.1015625,0.671875,0.7536621,1.167939,4.29771,-1.335878,-135.24,-53.36,-88.32
-0.1079102,0.6796875,0.753418,4.450382,4.946565,1.030534,-135.24,-53.36,-88.32
-0.09765625,0.684082,0.7526855,5.351145,4.664122,1.51145,-135.24,-53.36,-88.32
-0.1057129,0.6918945,0.746582,2.870229,3.732824,0.5801527,-135.24,-53.36,-88.32
-0.1015625,0.6948242,0.7446289,1.587786,3.381679,0.02290076,-135.24,-53.36,-88.32
-0.104248,0.6860352,0.7407227,1.335878,4.480916,-2.167939,-135.24,-53.36,-88.32
-0.1018066,0.6838379,0.736084,1.557252,4.0,-0.9236641,-135.24,-53.36,-88.32
-0.1000977,0.6813965,0.7541504,2.534351,4.755725,0.519084,-135.24,-53.36,-88.32
-0.109375,0.6848145,0.7375488,3.061069,3.641221,0.4198473,-135.24,-53.36,-88.32
-0.09472656,0.689209,0.7419434,2.961832,6.236641,-0.4351145,-135.24,-53.36,-88.32
-0.08813477,0.6811523,0.7487793,0.870229,5.221374,-0.5572519,-135.24,-53.36,-88.32
-0.1140137,0.6811523,0.7497559,1.328244,4.160306,-1.267176,-135.24,-53.36,-88.32
-0.1152344,0.6848145,0.7541504,1.862595,4.076336,-1.427481,-135.24,-53.36,-88.32
-0.09765625,0.6889648,0.7392578,3.763359,6.526718,2.343511,-135.24,-53.36,-88.32
-0.07495117,0.6967773,0.7380371,2.801527,4.931298,1.580153,-135.24,-53.36,-88.32
-0.09887695,0.6875,0.7473145,-1.091603,4.29771,-3.450382,-135.24,-53.36,-88.32
-0.1120605,0.6745605,0.7485352,-0.5419847,3.29771,-2.503817,-136.16,-53.36,-88.32
-0.1064453,0.6772461,0.7578125,2.160305,5.045802,0.4198473,-136.16,-53.36,-88.32
-0.09814453,0.689209,0.7480469,1.954198,5.198473,0.1450382,-136.16,-53.36,-88.32
-0.09326172,0.6921387,0.7460938,3.732824,8.122137,-1.290076,-135.24,-54.28,-88.32
-0.1186523,0.685791,0.7392578,2.709924,7.534351,-1.564886,-135.24,-54.28,-88.32
-0.1132813,0.6875,0.7502441,2.549618,6.847328,1.847328,-135.24,-54.28,-88.32
-0.09375,0.6936035,0.737793,1.137405,6.389313,2.236641,-135.24,-53.36,-88.32
-0.09985352,0.6796875,0.7355957,0.5877862,5.022901,-2.740458,-135.24,-53.36,-88.32
-0.1108398,0.6726074,0.7490234,0.9007633,4.167939,-1.946565,-135.24,-53.36,-88.32
-0.1147461,0.6713867,0.7502441,4.244275,3.053435,1.51145,-135.24,-53.36,-88.32
-0.1025391,0.6804199,0.7473145,5.832061,2.526718,4.160306,-135.24,-53.36,-88.32
-0.09570313,0.7001953,0.7431641,3.89313,4.824428,1.503817,-135.24,-53.36,-88.32
-0.09448242,0.701416,0.7443848,3.030534,6.236641,-0.2900764,-135.24,-53.36,-88.32
-0.1008301,0.7050781,0.7399902,2.587786,5.21374,3.045802,-135.24,-53.36,-88.32
-0.1159668,0.6850586,0.7365723,-0.4274809,4.70229,-0.03816794,-135.24,-53.36,-88.32
-0.1066895,0.673584,0.7365723,1.152672,4.427481,-1.541985,-135.24,-53.36,-88.32
-0.104248,0.6784668,0.7546387,1.541985,2.793893,-1.572519,-135.24,-53.36,-88.32
-0.09521484,0.6843262,0.7507324,4.274809,1.450382,0.8778625,-135.24,-53.36,-88.32
-0.08862305,0.6850586,0.7419434,3.114504,3.015267,-2.145038,-135.24,-53.36,-88.32
-0.109375,0.6872559,0.7416992,3.29771,4.534351,0.6412213,-135.24,-54.28,-88.32
-0.1184082,0.6962891,0.7363281,3.083969,4.473282,2.374046,-135.24,-54.28,-88.32
-0.09887695,0.6992188,0.7304688,2.381679,3.503817,2.137405,-135.24,-54.28,-88.32
-0.09570313,0.6948242,0.7224121,2.343511,2.755725,-4.175572,-135.24,-53.36,-89.24
-0.1210938,0.6831055,0.7392578,1.48855,1.580153,-1.70229,-135.24,-53.36,-89.24
-0.09521484,0.6894531,0.7470703,4.206107,2.167939,3.229008,-135.24,-53.36,-89.24
-0.07617188,0.701416,0.7443848,0.9236641,1.236641,-0.1832061,-135.24,-53.36,-89.24
-0.06298828,0.6977539,0.7473145,-0.2671756,2.335878,-0.7862596,-135.24,-53.36,-89.24
-0.09057617,0.6918945,0.7509766,1.572519,6.801527,-2.51145,-135.24,-53.36,-89.24
-0.1035156,0.6801758,0.7446289,0.5725191,5.671756,0.2519084,-135.24,-53.36,-89.24
-0.09887695,0.684082,0.7521973,0.9312977,6.007634,1.778626,-135.24,-53.36,-89.24
-0.09326172,0.692627,0.7509766,1.877863,7.122138,2.480916,-135.24,-53.36,-89.24
-0.104248,0.6914063,0.7407227,1.641221,6.839694,0.351145,-135.24,-53.36,-89.24
-0.1044922,0.6914063,0.7338867,4.053435,5.816794,2.793893,-135.24,-53.36,-89.24
-0.08911133,0.6970215,0.7319336,1.473282,2.534351,1.389313,-135.24,-53.36,-89.24
-0.09179688,0.7011719,0.7314453,1.183206,3.114504,-0.351145,-135.24,-53.36,-88.32
-0.08618164,0.6950684,0.7390137,1.763359,3.343511,-2.038168,-135.24,-53.36,-88.32
-0.09448242,0.6943359,0.7460938,-0.5648855,2.198473,-3.015267,-135.24,-53.36,-89.24
-0.1005859,0.6860352,0.7526855,0.09160305,3.526718,-1.328244,-135.24,-53.36,-89.24
-0.09667969,0.6711426,0.746582,-0.8854962,0.4656488,0.03053435,-135.24,-53.36,-89.24
-0.08227539,0.6855469,0.7429199,0.05343511,2.78626,0.7251908,-135.24,-53.36,-88.32
-0.09667969,0.6879883,0.7473145,-0.03053435,3.587786,-2.19084,-135.24,-53.36,-88.32
-0.09619141,0.685791,0.7475586,0.2519084,4.679389,-0.3816794,-135.24,-53.36,-88.32
-0.09545898,0.6877441,0.7468262,0.4732824,4.51145,0.9847328,-135.24,-53.36,-88.32
-0.09716797,0.6896973,0.7526855,0.961832,6.068702,-0.2900764,-135.24,-53.36,-88.32
-0.09448242,0.6865234,0.7473145,-0.2900764,5.0,0.2671756,-135.24,-52.44,-88.32
-0.09643555,0.6865234,0.7351074,-0.519084,4.442748,-0.5954198,-135.24,-52.44,-88.32
-0.09301758,0.6860352,0.7363281,-0.5114504,3.984733,-0.04580153,-135.24,-52.44,-88.32
-0.09448242,0.6853027,0.739502,0.3206107,3.251908,-0.5648855,-135.24,-52.44,-88.32
-0.09570313,0.6887207,0.7453613,1.480916,3.236641,-1.122137,-135.24,-52.44,-88.32
-0.09741211,0.6870117,0.7512207,1.541985,3.816794,0.7862596,-135.24,-52.44,-88.32
-0.08544922,0.6787109,0.7543945,1.152672,4.152672,-0.870229,-136.16,-52.44,-88.32
-0.09130859,0.6782227,0.7607422,-0.8931297,2.725191,-0.519084,-136.16,-52.44,-88.32
-0.1040039,0.6838379,0.7546387,1.007634,4.045802,-0.9541985,-136.16,-52.44,-88.32
-0.09521484,0.684082,0.7629395,-0.351145,3.396947,-1.572519,-136.16,-52.44,-88.32
-0.09423828,0.6782227,0.7600098,0.9083969,4.778626,-0.1145038,-136.16,-52.44,-88.32
-0.09155273,0.6799316,0.7426758,1.671756,4.48855,0.2442748,-136.16,-52.44,-88.32
-0.08691406,0.6765137,0.7397461,2.977099,6.725191,-0.351145,-136.16,-52.44,-88.32
-0.09814453,0.685791,0.7470703,1.320611,4.198473,-0.480916,-136.16,-52.44,-88.32
-0.09765625,0.6904297,0.7473145,3.473282,4.236641,2.442748,-136.16,-53.36,-87.4
-0.0859375,0.6945801,0.7365723,2.709924,4.610687,0.01526718,-136.16,-53.36,-87.4
-0.09179688,0.6875,0.7536621,3.885496,5.664122,-1.549618,-135.24,-52.44,-88.32
-0.09692383,0.6760254,0.7607422,1.305344,4.374046,0.2442748,-135.24,-52.44,-88.32
-0.09667969,0.6757813,0.7487793,1.183206,4.641222,-0.007633588,-135.24,-52.44,-88.32
-0.09790039,0.6804199,0.760498,-0.007633588,2.061069,0.0610687,-135.24,-52.44,-88.32
-0.09082031,0.6831055,0.7507324,2.427481,5.450382,0.6335878,-135.24,-52.44,-88.32
-0.09545898,0.6867676,0.7416992,2.839695,3.725191,-0.5114504,-135.24,-52.44,-88.32
-0.08959961,0.6850586,0.7438965,1.862595,4.931298,-1.083969,-136.16,-52.44,-88.32
-0.08984375,0.6921387,0.7492676,1.816794,5.687023,0.6335878,-136.16,-52.44,-88.32
-0.09057617,0.6818848,0.7475586,0.0,3.473282,-0.3358779,-136.16,-52.44,-88.32
-0.08935547,0.6821289,0.7536621,1.503817,4.977099,-2.282443,-136.16,-52.44,-88.32
-0.1015625,0.675293,0.7548828,0.3587786,4.793893,-1.641221,-136.16,-52.44,-88.32
-0.09814453,0.6748047,0.7575684,2.664122,6.259542,0.7328244,-135.24,-52.44,-88.32
-0.09545898,0.684082,0.7490234,0.4427481,3.564885,-0.519084,-135.24,-52.44,-88.32
-0.08398438,0.6831055,0.751709,1.015267,4.045802,-0.389313,-135.24,-52.44,-88.32
-0.09008789,0.6801758,0.7468262,0.5419847,3.954198,-0.2900764,-135.24,-52.44,-87.4
-0.09570313,0.6818848,0.7595215,1.045802,6.40458,-1.19084,-135.24,-52.44,-87.4
-0.1003418,0.6828613,0.7521973,0.961832,4.40458,0.6564885,-136.16,-52.44,-87.4
-0.0949707,0.6760254,0.7485352,1.671756,4.91603,-0.8167939,-136.16,-52.44,-87.4
-0.09350586,0.6787109,0.7541504,1.59542,5.305344,0.3740458,-136.16,-52.44,-87.4
-0.1008301,0.6787109,0.7597656,0.7022901,4.679389,-0.03816794,-136.16,-52.44,-87.4
-0.09399414,0.6787109,0.7478027,2.51145,5.40458,0.6641222,-136.16,-52.44,-87.4
-0.09228516,0.6867676,0.746582,0.480916,4.175572,-0.2061069,-136.16,-52.44,-87.4
-0.09716797,0.6779785,0.7556152,1.938931,3.923664,0.7328244,-135.24,-52.44,-87.4
-0.08959961,0.6801758,0.7575684,2.022901,3.40458,-0.9160305,-136.16,-52.44,-87.4
-0.09326172,0.6779785,0.7609863,2.40458,4.59542,-1.19084,-136.16,-52.44,-87.4
-0.09741211,0.6728516,0.7507324,1.580153,4.679389,0.07633588,-135.24,-52.44,-87.4
-0.0859375,0.6779785,0.7480469,1.274809,3.992366,0.3816794,-135.24,-52.44,-87.4
-0.09130859,0.6896973,0.7602539,1.427481,5.045802,-1.21374,-135.24,-52.44,-87.4
-0.1040039,0.6733398,0.7563477,1.221374,5.450382,-1.396947,-136.16,-52.44,-88.32
-0.1096191,0.6657715,0.7473145,2.053435,3.748092,-0.2290076,-136.16,-52.44,-88.32
-0.1037598,0.6821289,0.7487793,1.694656,1.732824,-0.480916,-136.16,-52.44,-88.32
-0.09057617,0.6901855,0.7507324,2.847328,4.114504,0.9312977,-136.16,-52.44,-87.4
-0.08325195,0.6772461,0.7336426,2.030534,3.78626,-0.2824428,-136.16,-52.44,-87.4
-0.08569336,0.6818848,0.7426758,1.183206,1.679389,-0.6335878,-136.16,-52.44,-87.4
-0.08984375,0.6875,0.7685547,0.5419847,4.870229,-2.229008,-136.16,-52.44,-87.4
-0.09448242,0.6821289,0.769043,-0.9770992,5.145038,-1.59542,-136.16,-52.44,-87.4
-0.09179688,0.6560059,0.7617188,0.7251908,5.122138,-0.7022901,-135.24,-52.44,-88.32
-0.08398438,0.6520996,0.7648926,0.9694656,2.656489,-1.816794,-135.24,-52.44,-88.32
-0.1027832,0.6843262,0.7585449,4.671756,5.633588,3.480916,-135.24,-52.44,-88.32
-0.08520508,0.690918,0.7458496,1.854962,5.687023,-0.7022901,-136.16,-52.44,-87.4
-0.08032227,0.6940918,0.7353516,1.450382,7.030534,2.946565,-136.16,-52.44,-87.4
-0.1105957,0.6928711,0.7399902,1.480916,4.801527,-2.251908,-136.16,-52.44,-88.32
-0.104248,0.6875,0.7504883,0.6793893,5.854962,0.4427481,-136.16,-52.44,-88.32
-0.1032715,0.6821289,0.7531738,-0.8396947,3.21374,0.5267176,-136.16,-52.44,-88.32
-0.1066895,0.6689453,0.7539063,-0.5496183,1.763359,-2.312977,-136.16,-52.44,-87.4
-0.09472656,0.6635742,0.7539063,2.152672,0.8473283,-0.3206107,-136.16,-52.44,-87.4
-0.08203125,0.6540527,0.7678223,4.435114,2.030534,3.862595,-136.16,-52.44,-87.4
-0.09619141,0.6660156,0.760498,6.656488,5.51145,3.0,-136.16,-51.52,-87.4
-0.09179688,0.671875,0.7561035,7.0,6.145038,3.633588,-136.16,-51.52,-87.4
-0.0871582,0.6950684,0.7514648,8.687023,6.328244,3.923664,-136.16,-51.52,-87.4
-0.08520508,0.6943359,0.7336426,7.931298,5.740458,1.40458,-136.16,-52.44,-88.32
-0.08422852,0.697998,0.7138672,4.847328,5.732824,0.3740458,-136.16,-52.44,-88.32
-0.0871582,0.7033691,0.7468262,3.70229,5.801527,-2.954198,-135.24,-52.44,-88.32
-0.09619141,0.6882324,0.7504883,5.587786,4.969466,-4.030534,-135.24,-52.44,-88.32
-0.07421875,0.6774902,0.7473145,7.908397,2.091603,-1.877863,-135.24,-52.44,-88.32
-0.09204102,0.6706543,0.7368164,9.061069,3.709924,-9.145039,-135.24,-53.36,-89.24
-0.1330566,0.6831055,0.7583008,7.954198,3.732824,-3.725191,-135.24,-53.36,-89.24
-0.105957,0.6816406,0.7768555,10.29008,1.709924,3.122137,-135.24,-53.36,-89.24
-0.09057617,0.6962891,0.7431641,12.83206,0.6335878,3.770992,-134.32,-54.28,-90.16
-0.09008789,0.6965332,0.7199707,11.05344,-0.4503817,1.992366,-134.32,-54.28,-90.16
-0.09912109,0.7143555,0.7312012,6.78626,0.6717557,0.6412213,-134.32,-54.28,-92.0
-0.08813477,0.71875,0.7402344,6.541985,1.587786,-1.320611,-134.32,-54.28,-92.0
-0.06445313,0.6975098,0.7329102,5.374046,4.114504,-0.4503817,-134.32,-54.28,-92.0
-0.09179688,0.6992188,0.7192383,6.137404,2.496183,0.7480916,-134.32,-54.28,-92.0
-0.08105469,0.703125,0.7216797,5.022901,1.503817,1.229008,-134.32,-54.28,-92.0
-0.08300781,0.7167969,0.7287598,4.954198,1.251908,0.129771,-134.32,-54.28,-92.0
-0.08032227,0.7026367,0.7224121,5.534351,1.725191,-1.51145,-133.4,-54.28,-92.0
-0.08081055,0.7004395,0.7321777,5.694656,-0.1221374,0.2442748,-133.4,-54.28,-92.0
-0.08935547,0.7211914,0.7294922,6.114504,3.068702,4.152672,-132.48,-55.2,-92.92
-0.06933594,0.715332,0.7075195,5.305344,5.251908,3.259542,-132.48,-55.2,-92.92
-0.06713867,0.6970215,0.7304688,4.19084,2.015267,1.694656,-132.48,-55.2,-92.92
-0.1057129,0.7226563,0.7087402,6.717557,0.6793893,3.038168,-132.48,-54.28,-93.84
-0.08569336,0.7316895,0.7128906,4.80916,-1.175573,-0.4274809,-132.48,-54.28,-93.84
-0.05810547,0.7092285,0.7241211,5.19084,1.557252,0.2061069,-132.48,-54.28,-93.84
-0.0625,0.7177734,0.7253418,6.679389,2.748092,3.183206,-132.48,-54.28,-93.84
-0.05273438,0.7214355,0.7199707,5.61832,2.51145,0.0610687,-132.48,-55.2,-95.68
-0.06298828,0.7233887,0.7175293,1.305344,3.419847,-0.1755725,-132.48,-55.2,-95.68
-0.0690918,0.7143555,0.71875,1.267176,3.496183,-0.1068702,-131.56,-55.2,-95.68
-0.07177734,0.7121582,0.7172852,2.59542,4.458015,1.885496,-131.56,-55.2,-95.68
-0.06860352,0.7214355,0.7180176,1.854962,4.221374,2.21374,-131.56,-55.2,-95.68
-0.06713867,0.7185059,0.7109375,1.366412,3.801527,5.78626,-131.56,-55.2,-95.68
-0.05761719,0.7280273,0.6967773,2.076336,2.801527,1.351145,-131.56,-55.2,-95.68
-0.06591797,0.75,0.7106934,1.381679,5.419847,-5.229008,-131.56,-55.2,-95.68
-0.07177734,0.7297363,0.6914063,2.412214,5.251908,-1.496183,-131.56,-55.2,-95.68
-0.06225586,0.7287598,0.7004395,-0.1374046,4.526718,1.59542,-131.56,-55.2,-95.68
-0.05761719,0.7226563,0.7177734,-0.1755725,4.351145,0.0610687,-132.48,-55.2,-95.68
-0.04858398,0.7072754,0.7216797,2.885496,4.580153,-2.633588,-132.48,-55.2,-95.68
-0.04272461,0.7028809,0.7287598,4.496183,2.442748,2.045802,-132.48,-55.2,-95.68
-0.0559082,0.7138672,0.7202148,3.053435,5.458015,0.7022901,-131.56,-55.2,-95.68
-0.05810547,0.7089844,0.7167969,3.992366,5.564886,2.664122,-131.56,-55.2,-95.68
-0.06176758,0.7250977,0.7263184,4.427481,5.290076,0.740458,-131.56,-55.2,-95.68
-0.06689453,0.7329102,0.715332,3.236641,3.389313,0.3206107,-131.56,-55.2,-95.68
-0.07250977,0.7294922,0.7001953,1.541985,4.122138,-0.8778625,-131.56,-55.2,-95.68
-0.07299805,0.7275391,0.704834,1.862595,4.480916,-0.09160305,-131.56,-55.2,-96.6
-0.06640625,0.7307129,0.7197266,0.7480916,2.48855,-1.961832,-131.56,-55.2,-96.6
-0.06933594,0.7224121,0.7143555,0.9923664,1.038168,-1.923664,-131.56,-55.2,-96.6
-0.04882813,0.715332,0.7126465,0.7862596,1.740458,-2.610687,-131.56,-55.2,-95.68
-0.05834961,0.7189941,0.7158203,1.534351,3.480916,0.1221374,-131.56,-55.2,-95.68
-0.05737305,0.7287598,0.7192383,0.2900764,1.916031,0.2977099,-131.56,-55.2,-95.68
-0.0637207,0.7302246,0.7333984,-0.09160305,3.259542,-3.839695,-131.56,-56.12,-95.68
-0.06860352,0.7468262,0.7165527,-1.045802,1.259542,3.465649,-131.56,-56.12,-95.68
-0.04443359,0.7231445,0.7106934,-1.29771,6.931298,-3.053435,-132.48,-55.2,-95.68
-0.04345703,0.706543,0.7116699,-2.335878,7.236641,-0.8015267,-132.48,-55.2,-95.68
-0.05004883,0.7001953,0.7236328,-2.137405,5.38168,-4.137404,-132.48,-55.2,-95.68
-0.06274414,0.7165527,0.7209473,-0.007633588,7.053435,1.969466,-132.48,-55.2,-94.76
-0.06396484,0.7224121,0.7016602,0.4961832,4.961832,3.053435,-132.48,-55.2,-94.76
-0.05322266,0.7177734,0.7141113,-0.04580153,5.801527,2.007634,-132.48,-55.2,-94.76
-0.07617188,0.7280273,0.7258301,-1.091603,6.427481,1.847328,-132.48,-54.28,-93.84
-0.07495117,0.7133789,0.7172852,-0.5954198,6.29771,1.526718,-132.48,-54.28,-93.84
-0.08398438,0.7143555,0.7268066,-1.969466,5.08397,1.847328,-132.48,-54.28,-93.84
-0.1210938,0.71875,0.7392578,-1.389313,16.12977,6.78626,-133.4,-54.28,-93.84
-0.09521484,0.7067871,0.7331543,1.061069,8.290076,13.56489,-133.4,-54.28,-93.84
-0.03881836,0.7282715,0.7150879,2.122137,-0.07633588,15.55725,-132.48,-53.36,-94.76
0.01708984,0.7177734,0.7207031,-1.557252,2.854962,2.29771,-132.48,-53.36,-94.76
0.004150391,0.715332,0.7297363,-3.183206,12.8626,-5.290076,-132.48,-53.36,-94.76
-0.05273438,0.6999512,0.7304688,-5.862596,10.08397,-3.480916,-133.4,-53.36,-94.76
-0.06640625,0.6992188,0.744873,-2.40458,5.961832,-1.21374,-133.4,-53.36,-94.76
-0.0625,0.6958008,0.7265625,1.839695,5.259542,2.664122,-133.4,-53.36,-94.76
-0.06396484,0.703125,0.7094727,1.89313,5.282443,1.854962,-134.32,-51.52,-93.84
-0.06347656,0.7043457,0.7338867,1.80916,3.816794,2.59542,-134.32,-51.52,-93.84
-0.06591797,0.7233887,0.7314453,0.9160305,0.961832,1.236641,-133.4,-51.52,-94.76
-0.05273438,0.7231445,0.715332,1.473282,2.725191,-0.648855,-133.4,-51.52,-94.76
-0.05004883,0.7114258,0.7290039,-2.48855,3.290076,-0.3740458,-133.4,-51.52,-94.76
-0.0546875,0.6967773,0.730957,-2.931298,1.59542,-2.0,-134.32,-51.52,-93.84
-0.0456543,0.7045898,0.7270508,-0.1145038,0.8015267,0.4732824,-134.32,-51.52,-93.84
-0.04052734,0.7163086,0.7270508,-1.732824,2.267176,-1.885496,-134.32,-51.52,-93.84
-0.04003906,0.7158203,0.7341309,-0.519084,4.435114,-2.29771,-134.32,-51.52,-93.84
-0.03100586,0.6987305,0.7353516,-0.6946565,5.10687,-1.21374,-133.4,-50.6,-93.84
-0.04907227,0.6967773,0.737793,-1.282443,4.633588,-2.290076,-133.4,-50.6,-93.84
-0.0546875,0.6867676,0.7492676,-1.89313,3.977099,-3.793893,-134.32,-50.6,-93.84
-0.07250977,0.6938477,0.7512207,1.648855,6.328244,1.366412,-134.32,-50.6,-93.84
-0.05249023,0.7062988,0.7307129,0.870229,5.152672,1.267176,-134.32,-50.6,-93.84
-0.04516602,0.7041016,0.7248535,3.061069,5.862596,-1.603053,-134.32,-50.6,-92.92
-0.05273438,0.6994629,0.7387695,0.6412213,5.290076,-2.083969,-134.32,-50.6,-92.92
-0.05249023,0.697998,0.7385254,1.59542,4.114504,0.3740458,-134.32,-50.6,-92.92
-0.05810547,0.6938477,0.7507324,3.175573,5.259542,-1.274809,-134.32,-50.6,-92.92
-0.05493164,0.6931152,0.7358398,5.10687,5.290076,1.389313,-134.32,-50.6,-92.92
-0.05517578,0.6945801,0.7297363,3.557252,5.534351,2.167939,-134.32,-50.6,-92.92
-0.05371094,0.7026367,0.734375,1.648855,3.366412,0.0,-134.32,-51.52,-93.84
-0.05151367,0.708252,0.7424316,1.916031,2.290076,0.648855,-134.32,-51.52,-93.84
-0.0390625,0.7077637,0.730957,1.320611,3.816794,-1.816794,-134.32,-51.52,-92.92
-0.04541016,0.6931152,0.7368164,2.587786,5.78626,-2.351145,-134.32,-51.52,-92.92
-0.06005859,0.6958008,0.7404785,2.358779,3.824427,0.1603053,-134.32,-51.52,-92.92
-0.05957031,0.6984863,0.7404785,4.679389,3.885496,0.06870229,-133.4,-51.52,-93.84
-0.04296875,0.6972656,0.7275391,4.282443,4.236641,1.282443,-133.4,-51.52,-93.84
-0.04248047,0.6994629,0.7353516,4.160306,1.725191,0.5572519,-134.32,-51.52,-93.84
-0.05859375,0.7141113,0.7346191,4.694656,4.503817,1.89313,-134.32,-51.52,-93.84
-0.04418945,0.7253418,0.7312012,2.259542,4.679389,-1.625954,-134.32,-51.52,-93.84
-0.0402832,0.7016602,0.7194824,2.29771,4.396946,-1.938931,-134.32,-50.6,-93.84
-0.03979492,0.6982422,0.7314453,0.1145038,2.175573,0.02290076,-134.32,-50.6,-93.84
-0.05493164,0.6994629,0.7404785,1.877863,3.763359,-0.9923664,-134.32,-50.6,-93.84
-0.04638672,0.7001953,0.7475586,0.04580153,3.709924,-2.526718,-133.4,-51.52,-93.84
-0.06420898,0.7102051,0.7456055,1.923664,3.717557,-0.03816794,-133.4,-51.52,-93.84
-0.04516602,0.7021484,0.7436523,3.274809,4.10687,-0.4351145,-133.4,-51.52,-93.84
-0.02709961,0.7016602,0.737793,2.80916,6.419847,1.129771,-133.4,-51.52,-93.84
-0.04858398,0.6970215,0.7414551,0.8396947,7.862596,-0.6259542,-133.4,-51.52,-93.84
-0.05273438,0.6896973,0.7416992,0.740458,6.832061,-1.007634,-133.4,-51.52,-93.84
-0.04589844,0.6989746,0.7382813,3.793893,6.282443,2.389313,-133.4,-51.52,-93.84
-0.04443359,0.7075195,0.7387695,2.282443,6.854962,-1.19084,-133.4,-51.52,-93.84
-0.05444336,0.7050781,0.7316895,-0.3282443,5.778626,-0.2213741,-134.32,-51.52,-93.84
-0.05273438,0.697998,0.7246094,1.343511,5.770992,1.122137,-134.32,-51.52,-93.84
-0.05175781,0.6982422,0.7392578,1.076336,5.648855,-1.274809,-134.32,-51.52,-93.84
-0.05810547,0.701416,0.7390137,1.442748,4.19084,-1.854962,-134.32,-51.52,-93.84
-0.05883789,0.7038574,0.7458496,2.80916,5.129771,1.267176,-134.32,-51.52,-93.84
-0.05151367,0.6962891,0.7355957,0.4351145,4.19084,-2.442748,-133.4,-51.52,-93.84
-0.05859375,0.689209,0.7348633,4.221374,5.625954,-1.465649,-133.4,-51.52,-93.84
-0.046875,0.6982422,0.7407227,2.89313,5.70229,2.832061,-133.4,-51.52,-93.84
-0.04980469,0.7045898,0.737793,1.694656,3.053435,0.3206107,-134.32,-51.52,-92.92
-0.04589844,0.7026367,0.7436523,0.2366412,3.358779,-1.984733,-134.32,-51.52,-92.92
-0.0480957,0.6992188,0.732666,1.015267,3.633588,-1.480916,-134.32,-51.52,-92.92
-0.05029297,0.7041016,0.7404785,0.6030535,5.305344,-0.4045802,-133.4,-51.52,-92.92
-0.04858398,0.6984863,0.7387695,-0.2519084,6.557252,-1.328244,-133.4,-51.52,-92.92
-0.05322266,0.690918,0.7380371,-0.351145,5.938931,-1.854962,-134.32,-51.52,-92.92
-0.06518555,0.6972656,0.7319336,1.427481,4.358778,-0.5572519,-134.32,-51.52,-92.92
-0.04125977,0.7092285,0.7294922,2.763359,3.839695,1.206107,-134.32,-51.52,-92.92
-0.05615234,0.6999512,0.7390137,1.900763,5.099236,-1.694656,-134.32,-51.52,-92.92
-0.06542969,0.7023926,0.7431641,0.3053435,4.78626,-1.053435,-134.32,-51.52,-92.92
-0.05297852,0.7004395,0.7460938,-0.2671756,3.557252,-2.274809,-134.32,-51.52,-92.92
-0.05126953,0.6945801,0.7365723,1.816794,4.969466,-1.664122,-134.32,-51.52,-92.92
-0.05786133,0.6911621,0.7346191,2.389313,3.366412,-0.870229,-134.32,-51.52,-92.0
-0.04931641,0.7038574,0.7351074,3.068702,3.832061,1.870229,-134.32,-51.52,-92.0
-0.05297852,0.7045898,0.7436523,0.9923664,2.748092,-1.045802,-134.32,-51.52,-92.92
-0.05541992,0.690918,0.737793,2.526718,4.633588,-0.1526718,-134.32,-51.52,-92.92
-0.05688477,0.7041016,0.7358398,3.099237,4.832061,0.2900764,-134.32,-51.52,-92.92
-0.05688477,0.7094727,0.748291,1.572519,5.38168,-0.4198473,-134.32,-51.52,-92.92
-0.06079102,0.7028809,0.732666,2.274809,2.908397,-1.480916,-134.32,-51.52,-92.92
-0.05566406,0.6867676,0.7287598,3.320611,3.885496,-0.129771,-134.32,-51.52,-92.92
-0.05664063,0.701416,0.7412109,4.022901,2.954198,0.6641222,-134.32,-51.52,-92.92
-0.04638672,0.7111816,0.7346191,1.877863,2.465649,1.870229,-134.32,-51.52,-92.92
-0.04467773,0.7163086,0.7299805,-0.4961832,3.10687,-1.923664,-133.4,-51.52,-93.84
-0.05371094,0.7033691,0.7390137,0.5038168,3.0,-1.78626,-133.4,-51.52,-93.84
-0.04589844,0.6950684,0.7355957,1.045802,5.557252,-0.5496183,-133.4,-51.52,-93.84
-0.04516602,0.6916504,0.739502,2.290076,6.603054,-0.2977099,-134.32,-52.44,-92.92
-0.04956055,0.6923828,0.7426758,0.8625955,4.656488,-1.526718,-134.32,-52.44,-92.92
-0.05737305,0.6970215,0.7492676,2.908397,4.343512,0.6412213,-134.32,-52.44,-92.92
-0.03930664,0.7077637,0.7368164,3.854962,5.137404,2.229008,-134.32,-52.44,-92.92
-0.04638672,0.6982422,0.7302246,0.5267176,4.045802,-0.7633588,-134.32,-52.44,-92.92
-0.06274414,0.6999512,0.7346191,1.80916,5.435114,0.4580153,-134.32,-52.44,-92.92
-0.05908203,0.7067871,0.7453613,3.358779,4.763359,1.969466,-133.4,-52.44,-92.92
-0.04785156,0.7026367,0.7287598,1.480916,4.091603,-0.4732824,-133.4,-52.44,-92.92
-0.06152344,0.6999512,0.7316895,3.198473,6.725191,-0.9389313,-133.4,-51.52,-92.92
-0.05615234,0.6977539,0.7373047,3.587786,4.29771,1.19084,-133.4,-51.52,-92.92
-0.04101563,0.7055664,0.7353516,2.580153,4.473282,0.9847328,-133.4,-51.52,-92.92
-0.04589844,0.7072754,0.7353516,1.053435,5.076336,-1.557252,-133.4,-51.52,-92.92
-0.05810547,0.6960449,0.7370605,0.9007633,5.045802,-2.198473,-133.4,-51.52,-92.92
-0.05078125,0.6938477,0.7460938,1.129771,4.221374,0.5496183,-133.4,-51.52,-92.92
-0.05224609,0.6999512,0.7397461,1.259542,5.08397,0.259542,-134.32,-51.52,-92.92
-0.05419922,0.6982422,0.7392578,2.152672,5.0,-1.282443,-134.32,-51.52,-92.92
-0.04760742,0.6967773,0.7321777,2.587786,4.458015,1.687023,-134.32,-51.52,-92.92
-0.04956055,0.7009277,0.734375,0.9389313,3.679389,-0.8396947,-134.32,-51.52,-92.92
-0.05297852,0.7036133,0.7375488,2.442748,4.175572,0.4122138,-134.32,-51.52,-92.92
-0.0546875,0.6958008,0.7429199,2.419847,5.068702,-1.183206,-134.32,-52.44,-92.92
-0.04321289,0.6970215,0.7380371,6.389313,6.80916,-0.2900764,-134.32,-52.44,-92.92
-0.04589844,0.7021484,0.7419434,3.374046,5.770992,-1.40458,-134.32,-51.52,-92.92
-0.06542969,0.6982422,0.7355957,1.969466,3.709924,-2.580153,-134.32,-51.52,-92.92
-0.05493164,0.6970215,0.736084,3.664122,6.061069,0.9007633,-134.32,-51.52,-92.92
-0.0534668,0.6943359,0.7414551,1.969466,4.91603,0.2366412,-134.32,-51.52,-92.92
-0.05639648,0.703125,0.7348633,3.343511,4.557252,0.6717557,-134.32,-51.52,-92.92
-0.05371094,0.713623,0.732666,0.9923664,3.908397,0.4656488,-134.32,-51.52,-92.92
-0.05493164,0.7050781,0.732666,1.343511,4.503817,-1.717557,-133.4,-52.44,-92.92
-0.05078125,0.6940918,0.7419434,-0.09923664,3.992366,-0.3740458,-133.4,-52.44,-92.92
-0.05883789,0.7038574,0.7397461,0.3664122,5.656488,-1.022901,-134.32,-51.52,-92.92
-0.05322266,0.7033691,0.7485352,0.03816794,4.167939,-0.6030535,-134.32,-51.52,-92.92
-0.05224609,0.699707,0.736084,1.091603,5.068702,-1.847328,-134.32,-51.52,-92.92
-0.05004883,0.6904297,0.736084,0.8854962,5.557252,-0.7633588,-134.32,-52.44,-92.0
-0.05151367,0.7050781,0.7382813,2.824427,4.557252,0.6564885,-134.32,-51.52,-92.92
-0.05053711,0.6984863,0.7404785,0.6030535,3.778626,-1.931298,-134.32,-51.52,-92.92
-0.05615234,0.6984863,0.7341309,1.015267,5.374046,-1.259542,-134.32,-51.52,-92.92
-0.06396484,0.6953125,0.7275391,0.7709923,5.167939,-0.1221374,-133.4,-51.52,-92.0
-0.05029297,0.6977539,0.7397461,0.8778625,3.687023,0.389313,-133.4,-51.52,-92.0
-0.05908203,0.7004395,0.7390137,3.549618,3.679389,-0.4961832,-134.32,-51.52,-92.0
-0.05151367,0.7016602,0.7346191,1.221374,3.496183,0.8854962,-134.32,-51.52,-92.0
-0.05566406,0.6984863,0.7290039,1.48855,4.374046,-1.083969,-134.32,-51.52,-92.0
-0.05322266,0.6948242,0.7421875,0.4503817,3.648855,-0.6946565,-134.32,-51.52,-92.92
-0.05566406,0.6999512,0.7358398,0.9007633,3.961832,-0.2442748,-134.32,-51.52,-92.92
-0.05151367,0.697998,0.7409668,1.900763,4.664122,-0.5419847,-134.32,-51.52,-92.92
-0.0559082,0.6953125,0.7431641,1.748092,3.916031,-0.3435115,-134.32,-51.52,-92.0
-0.05932617,0.6916504,0.7392578,1.900763,5.580153,0.129771,-134.32,-51.52,-92.0
-0.04882813,0.697998,0.7416992,2.145038,4.816794,0.2671756,-134.32,-51.52,-92.92
-0.04907227,0.7016602,0.737793,0.7633588,4.496183,-0.1374046,-134.32,-51.52,-92.92
-0.05249023,0.7060547,0.7424316,0.2977099,4.603054,-1.740458,-134.32,-51.52,-92.92
-0.06054688,0.6960449,0.739502,2.068702,4.648855,-0.1603053,-134.32,-51.52,-92.0
-0.0559082,0.6958008,0.7290039,0.2519084,5.007634,-1.389313,-134.32,-51.52,-92.0
-0.05566406,0.6940918,0.7490234,1.969466,5.374046,-0.9541985,-134.32,-51.52,-92.0
-0.05273438,0.6982422,0.7443848,0.5496183,3.709924,0.1450382,-134.32,-51.52,-92.0
-0.05444336,0.7019043,0.7321777,0.6030535,2.725191,-2.40458,-134.32,-51.52,-92.0
-0.04638672,0.6940918,0.732666,2.114504,4.816794,-1.824428,-134.32,-51.52,-92.0
-0.06616211,0.684082,0.7368164,0.4045802,4.10687,-0.5572519,-134.32,-51.52,-92.0
-0.05493164,0.6875,0.7424316,3.801527,5.89313,1.015267,-134.32,-51.52,-92.0
-0.05053711,0.7021484,0.7404785,3.862595,4.152672,2.053435,-134.32,-52.44,-92.0
-0.05664063,0.7094727,0.7436523,2.473282,4.335878,-1.465649,-134.32,-52.44,-92.0
-0.05834961,0.704834,0.7387695,2.473282,3.977099,-0.05343511,-134.32,-52.44,-92.0
-0.05200195,0.6953125,0.7402344,1.229008,4.656488,-0.4961832,-134.32,-51.52,-92.0
-0.05175781,0.6933594,0.7407227,2.427481,4.48855,-1.435114,-134.32,-51.52,-92.0
-0.05566406,0.6899414,0.7492676,4.992366,5.427481,0.06870229,-134.32,-51.52,-92.0
-0.05273438,0.6945801,0.7434082,3.137405,5.51145,1.541985,-134.32,-52.44,-92.0
-0.04663086,0.7026367,0.737793,4.351145,6.038168,2.778626,-134.32,-52.44,-92.0
-0.04711914,0.7043457,0.7304688,0.6259542,3.923664,-1.992366,-134.32,-52.44,-92.0
-0.04345703,0.6987305,0.7390137,0.740458,4.748092,-0.2366412,-134.32,-52.44,-92.0
-0.05932617,0.7026367,0.7402344,1.122137,5.526718,-0.9847328,-134.32,-52.44,-92.0
-0.06030273,0.6987305,0.748291,1.290076,4.091603,0.9007633,-134.32,-51.52,-92.0
-0.06030273,0.6984863,0.7302246,2.389313,3.832061,-1.534351,-134.32,-51.52,-92.0
-0.04980469,0.6945801,0.7373047,2.931298,4.824428,1.396947,-134.32,-51.52,-92.0
-0.04711914,0.699707,0.7302246,0.3740458,0.6641222,-1.80916,-134.32,-52.44,-92.92
-0.06030273,0.6950684,0.7402344,2.526718,4.946565,-1.206107,-134.32,-52.44,-92.92
-0.05053711,0.6972656,0.7443848,1.78626,4.08397,2.29771,-134.32,-52.44,-92.0
-0.05029297,0.703125,0.7397461,-0.05343511,5.19084,-0.259542,-134.32,-52.44,-92.0
-0.05664063,0.6928711,0.7402344,2.671756,6.70229,-2.229008,-134.32,-52.44,-92.0
-0.06274414,0.6972656,0.737793,2.954198,4.679389,0.4656488,-134.32,-52.44,-92.0
-0.04956055,0.6987305,0.7390137,1.832061,4.656488,2.450382,-134.32,-52.44,-92.0
-0.04394531,0.6999512,0.7436523,1.89313,4.167939,-0.7709923,-134.32,-52.44,-92.0
-0.05078125,0.6940918,0.734375,0.8244275,5.152672,-1.564886,-134.32,-52.44,-92.0
-0.05444336,0.7021484,0.7478027,0.5648855,3.435115,-0.6183206,-134.32,-52.44,-92.0
-0.05273438,0.6994629,0.7453613,1.083969,3.992366,-0.2977099,-134.32,-51.52,-92.0
-0.05053711,0.6960449,0.7390137,0.6946565,3.984733,0.03053435,-134.32,-51.52,-92.0
-0.05200195,0.7055664,0.7353516,2.877863,5.320611,0.5648855,-134.32,-51.52,-92.92
-0.04492188,0.7004395,0.7392578,2.541985,4.29771,-0.1603053,-134.32,-51.52,-92.92
-0.05053711,0.6975098,0.7370605,0.2061069,5.29771,-1.045802,-134.32,-51.52,-92.0
-0.06225586,0.6982422,0.7429199,0.2900764,3.908397,-2.068702,-134.32,-51.52,-92.0
-0.05078125,0.6970215,0.7358398,2.320611,4.08397,0.7938931,-134.32,-51.52,-92.0
-0.05297852,0.6938477,0.7341309,1.679389,4.137404,-0.6870229,-134.32,-52.44,-92.0
-0.05102539,0.6992188,0.7414551,1.343511,3.526718,0.4580153,-134.32,-52.44,-92.0
-0.05371094,0.6984863,0.7470703,1.351145,5.832061,0.05343511,-133.4,-51.52,-92.0
-0.05297852,0.6955566,0.7365723,1.603053,6.625954,0.05343511,-133.4,-51.52,-92.0
-0.05786133,0.6945801,0.7363281,2.625954,4.763359,-0.1450382,-133.4,-51.52,-92.0
-0.05249023,0.7011719,0.7426758,3.229008,4.51145,1.312977,-134.32,-52.44,-92.0
-0.04882813,0.7062988,0.732666,2.0,4.923664,0.01526718,-134.32,-52.44,-92.0
-0.05249023,0.6950684,0.7319336,1.21374,5.099236,-1.763359,-134.32,-52.44,-92.0
-0.05664063,0.6882324,0.737793,2.374046,4.183206,-0.778626,-134.32,-52.44,-92.0
-0.05712891,0.6972656,0.7463379,3.465649,3.122137,1.961832,-134.32,-52.44,-92.0
-0.04321289,0.704834,0.7380371,2.816794,6.259542,1.10687,-134.32,-52.44,-92.0
-0.046875,0.7021484,0.732666,1.465649,2.801527,-1.755725,-134.32,-52.44,-92.0
-0.05834961,0.6975098,0.7382813,1.717557,4.725191,-1.267176,-134.32,-52.44,-92.0
-0.05786133,0.6933594,0.7416992,2.091603,5.160306,1.091603,-134.32,-52.44,-92.0
-0.04516602,0.7060547,0.7421875,3.442748,4.480916,0.3129771,-134.32,-52.44,-92.0
-0.05004883,0.7045898,0.7387695,2.679389,5.51145,0.4885496,-134.32,-52.44,-92.0
-0.06103516,0.6994629,0.7431641,0.1984733,4.374046,-0.8396947,-134.32,-52.44,-92.0
-0.04980469,0.6916504,0.7429199,2.435115,4.732824,0.832061,-134.32,-52.44,-92.0
-0.04443359,0.6948242,0.7416992,2.145038,4.328244,1.870229,-134.32,-52.44,-92.0
-0.05029297,0.701416,0.7385254,1.709924,4.244275,0.09160305,-133.4,-52.44,-92.92
-0.05786133,0.7006836,0.7297363,1.480916,3.977099,-2.152672,-133.4,-52.44,-92.92
-0.05517578,0.6945801,0.7351074,1.78626,5.778626,-1.847328,-134.32,-52.44,-92.0
-0.05200195,0.697998,0.7382813,1.832061,4.045802,1.732824,-134.32,-52.44,-92.0
-0.05078125,0.7019043,0.7409668,2.0,4.229008,0.1603053,-134.32,-52.44,-92.0
-0.0546875,0.7011719,0.7460938,0.1145038,3.0,-1.885496,-134.32,-51.52,-92.92
-0.0534668,0.7016602,0.7399902,1.442748,3.091603,0.3129771,-134.32,-51.52,-92.92
-0.04931641,0.6984863,0.7414551,1.458015,4.679389,-1.549618,-134.32,-51.52,-92.92
-0.05541992,0.6972656,0.7416992,1.267176,5.251908,-1.709924,-134.32,-51.52,-92.0
-0.05639648,0.6943359,0.7446289,3.358779,5.648855,1.053435,-134.32,-51.52,-92.0
-0.05029297,0.7019043,0.7468262,0.8167939,2.290076,0.610687,-134.32,-51.52,-92.0
-0.0534668,0.7019043,0.7382813,1.709924,4.877862,-1.625954,-134.32,-51.52,-92.0
-0.05908203,0.699707,0.7370605,3.145038,5.0,-0.2900764,-134.32,-51.52,-92.0
-0.04956055,0.689209,0.736084,0.870229,3.59542,-0.1908397,-134.32,-51.52,-92.92
-0.05102539,0.6989746,0.7443848,1.442748,3.175573,0.6183206,-134.32,-51.52,-92.92
-0.05786133,0.7038574,0.7414551,3.526718,5.625954,0.2137404,-134.32,-51.52,-92.92
-0.0612793,0.6989746,0.7399902,1.908397,4.053435,-0.04580153,-134.32,-51.52,-92.0
-0.04980469,0.701416,0.7333984,1.770992,4.351145,-0.129771,-134.32,-51.52,-92.0
-0.04418945,0.7021484,0.7407227,2.381679,4.305344,-0.7633588,-134.32,-51.52,-92.0
-0.05908203,0.6906738,0.7404785,3.916031,5.557252,0.4198473,-134.32,-51.52,-92.0
-0.0534668,0.7028809,0.7419434,2.137405,4.70229,1.572519,-134.32,-51.52,-92.0
-0.04907227,0.7084961,0.7353516,1.770992,4.671756,0.09923664,-133.4,-51.52,-92.92
-0.04736328,0.6975098,0.7382813,2.290076,4.664122,-0.4503817,-133.4,-51.52,-92.92
-0.04711914,0.6953125,0.7475586,1.114504,4.740458,-0.1679389,-133.4,-51.52,-92.92
-0.05810547,0.6958008,0.7436523,2.923664,5.198473,0.3664122,-134.32,-52.44,-92.92
-0.04956055,0.699707,0.7358398,2.396947,4.587786,0.3435115,-134.32,-52.44,-92.92
-0.04980469,0.704834,0.7346191,2.717557,5.290076,1.366412,-134.32,-52.44,-92.92
-0.05664063,0.6955566,0.7402344,3.519084,4.694656,-0.3740458,-133.4,-52.44,-92.0
-0.05297852,0.7036133,0.7458496,3.435115,5.236641,1.427481,-133.4,-52.44,-92.0
-0.046875,0.7053223,0.7375488,2.412214,5.564886,0.1221374,-133.4,-52.44,-92.0
-0.0546875,0.7016602,0.7373047,1.045802,4.496183,-1.473282,-134.32,-52.44,-92.92
-0.0480957,0.6953125,0.7336426,0.9312977,3.343511,0.0610687,-134.32,-52.44,-92.92
-0.0546875,0.7006836,0.7385254,1.549618,6.389313,1.458015,-134.32,-52.44,-92.92
-0.04125977,0.7011719,0.734375,2.480916,4.763359,0.2442748,-134.32,-52.44,-92.0
-0.04858398,0.7028809,0.7392578,1.183206,4.51145,1.51145,-134.32,-52.44,-92.0
-0.04858398,0.7075195,0.7363281,1.687023,4.900764,0.9847328,-134.32,-51.52,-92.92
-0.05566406,0.6984863,0.7419434,0.9694656,5.091603,-1.045802,-134.32,-51.52,-92.92
-0.04541016,0.6965332,0.7370605,1.931298,4.885496,1.358779,-134.32,-51.52,-92.92
-0.04614258,0.6948242,0.7351074,3.89313,5.923664,-0.7099237,-134.32,-52.44,-92.0
-0.04418945,0.6950684,0.7453613,1.305344,4.320611,0.389313,-134.32,-52.44,-92.0
-0.05297852,0.7009277,0.7460938,1.007634,4.89313,1.435114,-134.32,-52.44,-92.0
-0.04638672,0.6933594,0.7348633,2.267176,5.442748,-0.09923664,-134.32,-51.52,-92.0
-0.04980469,0.6948242,0.732666,1.129771,4.51145,-1.969466,-134.32,-51.52,-92.0
-0.05126953,0.703125,0.7419434,2.801527,5.099236,1.885496,-134.32,-51.52,-92.0
-0.0546875,0.7055664,0.737793,2.519084,4.076336,0.9312977,-134.32,-51.52,-92.0
-0.046875,0.6994629,0.7370605,1.709924,3.763359,-0.1145038,-134.32,-51.52,-92.0
-0.05395508,0.6955566,0.732666,0.7862596,4.030534,-2.129771,-134.32,-51.52,-92.0
-0.05200195,0.6948242,0.7382813,3.335878,4.358778,0.2671756,-134.32,-51.52,-92.0
-0.04516602,0.703125,0.7346191,2.687023,4.045802,2.061069,-134.32,-51.52,-92.0
-0.04516602,0.7043457,0.7346191,2.320611,5.80916,-0.9694656,-134.32,-51.52,-92.0
-0.05200195,0.6970215,0.7382813,1.343511,3.633588,-0.4274809,-134.32,-51.52,-92.0
-0.04736328,0.6938477,0.7399902,1.80916,4.259542,0.3664122,-134.32,-51.52,-92.0
-0.04882813,0.6989746,0.7436523,1.534351,3.48855,-0.1984733,-134.32,-52.44,-92.0
-0.04125977,0.7006836,0.7426758,2.21374,3.580153,-0.02290076,-134.32,-52.44,-92.0
-0.04931641,0.6984863,0.7353516,2.526718,4.343512,-0.007633588,-134.32,-52.44,-92.92
-0.05126953,0.7016602,0.7438965,1.671756,3.259542,0.2442748,-134.32,-52.44,-92.92
-0.04443359,0.704834,0.7375488,2.10687,3.015267,0.3664122,-134.32,-52.44,-92.92
-0.05004883,0.7087402,0.7390137,1.40458,3.419847,-0.02290076,-134.32,-52.44,-92.92
-0.04125977,0.7050781,0.7338867,1.870229,5.030534,-4.183206,-134.32,-52.44,-92.92
-0.04541016,0.6921387,0.734375,2.10687,5.022901,-0.3129771,-134.32,-52.44,-92.92
-0.0612793,0.697998,0.7402344,3.229008,5.122138,0.6641222,-134.32,-51.52,-92.92
-0.046875,0.6982422,0.7404785,1.022901,5.305344,0.0610687,-134.32,-51.52,-92.92
-0.04003906,0.699707,0.7399902,2.114504,4.267176,-0.3587786,-134.32,-52.44,-92.0
-0.04980469,0.7050781,0.7463379,1.122137,3.458015,-0.351145,-134.32,-52.44,-92.0
-0.04370117,0.6918945,0.7419434,1.877863,6.70229,-0.8396947,-134.32,-52.44,-92.0
-0.05957031,0.6945801,0.7397461,1.335878,4.992366,-0.480916,-134.32,-51.52,-92.0
-0.04418945,0.7026367,0.7409668,2.931298,7.633588,2.038168,-134.32,-51.52,-92.0
-0.04321289,0.7055664,0.7358398,2.748092,7.137404,0.2671756,-134.32,-51.52,-92.0
-0.05249023,0.6967773,0.7431641,-0.8091603,3.351145,-1.366412,-134.32,-51.52,-92.0
-0.05029297,0.6923828,0.751709,3.862595,4.290076,-1.625954,-134.32,-51.52,-92.0
-0.04418945,0.7026367,0.7392578,2.320611,3.725191,-0.5801527,-134.32,-51.52,-92.0
-0.04443359,0.7019043,0.7404785,2.374046,5.21374,0.1755725,-134.32,-51.52,-92.0
-0.05126953,0.7004395,0.7365723,0.648855,4.351145,0.09160305,-134.32,-51.52,-92.0
-0.05541992,0.6958008,0.7436523,1.870229,4.610687,-0.1679389,-134.32,-51.52,-92.0
-0.0559082,0.6962891,0.7390137,1.022901,3.603053,0.2748091,-134.32,-51.52,-92.0
-0.04272461,0.6970215,0.7460938,2.312977,3.083969,0.6946565,-134.32,-51.52,-92.0
-0.04663086,0.6955566,0.7402344,1.656489,4.160306,-0.129771,-134.32,-51.52,-92.0
-0.04711914,0.6972656,0.7473145,1.564886,1.374046,0.5496183,-134.32,-52.44,-92.0
-0.04199219,0.6955566,0.7399902,1.725191,5.251908,-0.5877862,-134.32,-52.44,-92.0
-0.04711914,0.6984863,0.7392578,1.641221,4.801527,0.5877862,-134.32,-51.52,-92.0
-0.04736328,0.6989746,0.7421875,1.442748,4.557252,0.01526718,-134.32,-51.52,-92.0
-0.046875,0.6970215,0.7382813,3.358779,5.458015,-1.229008,-134.32,-51.52,-92.0
-0.0480957,0.6989746,0.7399902,3.305344,3.610687,-1.465649,-134.32,-52.44,-92.0
-0.04370117,0.7011719,0.7453613,1.793893,4.465649,-0.2671756,-134.32,-52.44,-92.0
-0.04760742,0.7033691,0.7363281,1.10687,5.114504,-0.01526718,-134.32,-52.44,-92.0
-0.03759766,0.701416,0.7324219,0.6030535,4.70229,0.2137404,-134.32,-51.52,-92.0
-0.04492188,0.7038574,0.7434082,2.412214,4.717557,-0.3282443,-134.32,-51.52,-92.0
-0.04956055,0.6977539,0.737793,1.381679,3.473282,-2.007634,-134.32,-52.44,-92.0
-0.05004883,0.6938477,0.7321777,1.70229,5.343512,-0.4961832,-134.32,-52.44,-92.0
-0.04711914,0.6989746,0.7416992,1.801527,4.80916,1.465649,-134.32,-52.44,-92.0
-0.04614258,0.7043457,0.7470703,1.145038,2.244275,0.7328244,-134.32,-51.52,-92.0
-0.04321289,0.6984863,0.7333984,1.610687,4.541985,-2.709924,-134.32,-51.52,-92.0
-0.05566406,0.697998,0.7370605,2.061069,5.725191,-0.4961832,-134.32,-51.52,-92.0
-0.04980469,0.6943359,0.7397461,1.793893,4.0,0.5877862,-133.4,-51.52,-92.0
-0.03955078,0.692627,0.7478027,2.396947,5.38168,1.007634,-133.4,-51.52,-92.0
-0.04467773,0.6989746,0.7434082,2.931298,4.145038,-1.206107,-134.32,-51.52,-92.0
-0.04516602,0.6916504,0.7397461,2.48855,6.38168,0.07633588,-134.32,-51.52,-92.0
-0.0378418,0.6938477,0.7502441,1.198473,5.48855,0.4351145,-134.32,-51.52,-92.0
-0.05224609,0.6977539,0.744873,1.679389,4.206107,-1.580153,-134.32,-52.44,-92.0
-0.0534668,0.699707,0.737793,1.534351,4.229008,-0.2290076,-134.32,-52.44,-92.0
-0.04638672,0.6989746,0.7329102,2.610687,4.251908,0.259542,-134.32,-52.44,-92.0
-0.04467773,0.6948242,0.7419434,1.908397,4.946565,-0.8931297,-134.32,-51.52,-92.0
-0.04858398,0.6931152,0.7480469,1.984733,3.954198,0.3129771,-134.32,-51.52,-92.0
-0.05541992,0.6989746,0.7419434,2.114504,3.374046,0.6946565,-134.32,-52.44,-92.0
-0.04956055,0.699707,0.7380371,3.145038,4.541985,-1.137405,-134.32,-52.44,-92.0
-0.04345703,0.6992188,0.7424316,2.152672,3.984733,-0.6870229,-134.32,-52.44,-92.0
-0.05297852,0.6987305,0.7436523,0.7709923,2.885496,0.01526718,-134.32,-51.52,-92.0
-0.05053711,0.697998,0.7336426,1.290076,3.167939,-2.099237,-134.32,-51.52,-92.0
-0.03759766,0.6940918,0.7412109,2.007634,3.870229,-0.4274809,-134.32,-51.52,-92.0
-0.04125977,0.6984863,0.7421875,1.89313,4.427481,-0.1832061,-134.32,-51.52,-92.0
-0.04785156,0.6982422,0.7304688,0.9541985,2.877863,0.09923664,-134.32,-51.52,-92.0
-0.04418945,0.6975098,0.7390137,2.709924,4.625954,0.09160305,-134.32,-51.52,-92.0
-0.04248047,0.697998,0.7419434,1.763359,4.137404,0.9007633,-134.32,-51.52,-92.0
-0.05102539,0.6960449,0.7368164,1.053435,3.977099,-1.450382,-134.32,-51.52,-92.0
-0.05273438,0.699707,0.7409668,2.282443,4.145038,0.3969466,-134.32,-51.52,-92.0
-0.04614258,0.6970215,0.7399902,1.938931,3.900763,0.3206107,-134.32,-51.52,-92.0
-0.04223633,0.701416,0.737793,3.114504,4.656488,1.419847,-134.32,-51.52,-92.0
-0.04345703,0.7021484,0.7404785,1.709924,3.519084,0.3969466,-134.32,-52.44,-92.0
-0.04101563,0.7009277,0.7434082,2.282443,4.320611,-0.4198473,-134.32,-52.44,-92.0
-0.0546875,0.6962891,0.7460938,0.7938931,3.21374,-0.03816794,-134.32,-52.44,-92.0
-0.04516602,0.6953125,0.7414551,3.053435,5.10687,1.648855,-134.32,-51.52,-92.92
-0.04003906,0.6999512,0.7475586,1.450382,4.290076,-0.06870229,-134.32,-51.52,-92.92
-0.046875,0.7021484,0.7355957,0.5419847,4.427481,-2.007634,-134.32,-51.52,-92.0
-0.05273438,0.6989746,0.7434082,1.160305,3.977099,-1.358779,-134.32,-51.52,-92.0
-0.04150391,0.7001953,0.7407227,3.435115,6.389313,0.832061,-134.32,-51.52,-92.0
-0.03955078,0.7028809,0.7463379,1.717557,4.450382,0.6030535,-134.32,-51.52,-92.0
-0.04956055,0.7009277,0.7370605,0.7099237,4.877862,0.3053435,-134.32,-51.52,-92.0
-0.05004883,0.6972656,0.7387695,1.114504,4.129771,-0.6259542,-134.32,-51.52,-92.0
-0.04833984,0.7019043,0.7373047,2.274809,3.664122,-0.3816794,-134.32,-52.44,-92.0
-0.0402832,0.6975098,0.7424316,1.251908,3.610687,-0.1832061,-133.4,-51.52,-92.0
-0.04589844,0.6987305,0.7370605,1.10687,4.343512,0.007633588,-133.4,-51.52,-92.0
-0.0534668,0.703125,0.7392578,1.419847,5.48855,-0.5572519,-134.32,-51.52,-92.0
-0.04492188,0.7026367,0.7399902,2.954198,5.526718,-1.473282,-134.32,-51.52,-92.0
-0.04077148,0.6989746,0.7412109,2.664122,5.38168,-0.2977099,-134.32,-51.52,-92.0
-0.04833984,0.6984863,0.739502,1.946565,5.374046,-1.412214,-133.4,-52.44,-92.0
-0.05761719,0.699707,0.7404785,2.48855,3.931298,1.709924,-133.4,-52.44,-92.0
-0.03955078,0.7038574,0.7358398,3.610687,4.770992,0.5954198,-133.4,-52.44,-92.0
-0.03735352,0.7036133,0.7399902,1.450382,4.694656,-0.4732824,-134.32,-51.52,-92.0
-0.04467773,0.7021484,0.734375,2.641221,5.847328,-0.1450382,-134.32,-51.52,-92.0
-0.05395508,0.6918945,0.7329102,1.938931,3.603053,0.2824428,-134.32,-51.52,-92.92
-0.05078125,0.7001953,0.7331543,1.694656,4.183206,-1.656489,-134.32,-51.52,-92.92
-0.03588867,0.706543,0.7385254,2.992366,4.167939,0.5572519,-134.32,-51.52,-92.92
-0.03320313,0.7050781,0.7258301,1.80916,4.580153,0.2213741,-134.32,-51.52,-92.92
-0.05126953,0.7009277,0.7399902,1.328244,3.717557,-2.541985,-134.32,-51.52,-92.92
-0.05444336,0.6943359,0.7336426,1.442748,3.435115,0.1984733,-134.32,-51.52,-92.92
-0.03540039,0.6999512,0.7392578,1.954198,4.977099,0.2442748,-134.32,-51.52,-92.92
-0.04492188,0.7092285,0.7441406,0.9236641,4.931298,-1.603053,-134.32,-51.52,-92.92
-0.05688477,0.7026367,0.7390137,1.167939,4.870229,-0.8778625,-134.32,-51.52,-92.92
-0.04345703,0.7019043,0.7365723,2.030534,4.725191,1.664122,-134.32,-51.52,-92.92
-0.03466797,0.7004395,0.7307129,1.152672,3.572519,0.2213741,-134.32,-51.52,-92.92
-0.04907227,0.6967773,0.744873,0.5801527,2.732824,-0.6183206,-134.32,-51.52,-92.92
-0.0456543,0.703125,0.7421875,2.152672,4.022901,0.2366412,-134.32,-51.52,-92.92
-0.04492188,0.7038574,0.7333984,1.389313,4.038168,-0.3053435,-134.32,-51.52,-92.92
-0.0390625,0.7075195,0.7314453,2.053435,5.465649,0.8167939,-134.32,-51.52,-92.92
-0.04077148,0.7060547,0.7392578,1.251908,6.374046,-1.877863,-134.32,-51.52,-92.92
-0.04418945,0.6977539,0.7312012,1.503817,4.267176,-0.5267176,-134.32,-51.52,-92.92
-0.05126953,0.6999512,0.7426758,1.160305,4.274809,-1.671756,-134.32,-51.52,-92.92
-0.04858398,0.6972656,0.7385254,2.061069,4.40458,-1.59542,-134.32,-51.52,-92.92
-0.04199219,0.7050781,0.7475586,1.854962,4.137404,1.656489,-134.32,-51.52,-92.92
-0.04418945,0.7009277,0.7363281,1.763359,5.007634,0.2061069,-134.32,-51.52,-92.92
-0.04248047,0.7041016,0.7387695,1.526718,4.687023,0.3435115,-134.32,-51.52,-92.92
-0.04174805,0.7043457,0.7363281,1.938931,4.885496,0.1068702,-134.32,-51.52,-92.92
-0.05371094,0.7053223,0.7392578,1.938931,5.091603,0.832061,-134.32,-51.52,-92.92
-0.04882813,0.7050781,0.734375,2.351145,3.78626,0.4351145,-134.32,-51.52,-92.92
-0.04516602,0.7089844,0.7375488,1.061069,3.740458,0.129771,-134.32,-51.52,-92.92
-0.03369141,0.7041016,0.7390137,1.977099,5.206107,-1.526718,-134.32,-51.52,-92.92
-0.03149414,0.6970215,0.7370605,0.8625955,4.572519,-0.9847328,-133.4,-51.52,-92.92
-0.04663086,0.6982422,0.744873,1.763359,5.221374,1.526718,-133.4,-51.52,-92.92
-0.04956055,0.703125,0.7392578,0.7251908,4.832061,0.9465649,-133.4,-51.52,-92.92
-0.04589844,0.6984863,0.7392578,3.763359,4.694656,-1.022901,-134.32,-51.52,-92.92
-0.04101563,0.706543,0.7351074,1.259542,4.38168,0.3282443,-134.32,-51.52,-92.92
-0.04638672,0.6984863,0.7399902,1.717557,4.778626,0.5648855,-134.32,-51.52,-92.0
-0.04467773,0.6977539,0.7341309,1.778626,4.954198,0.3206107,-134.32,-51.52,-92.0
-0.04272461,0.7021484,0.7370605,1.145038,4.351145,-0.2442748,-134.32,-51.52,-92.0
-0.04174805,0.7033691,0.734375,2.519084,4.51145,0.8854962,-134.32,-51.52,-92.0
-0.04443359,0.7041016,0.729248,2.183206,5.21374,-1.541985,-134.32,-51.52,-92.0
-0.03881836,0.7058105,0.7385254,1.51145,6.328244,0.4351145,-134.32,-51.52,-92.0
-0.04370117,0.6982422,0.7404785,1.534351,4.175572,-0.05343511,-134.32,-51.52,-92.92
-0.04467773,0.7001953,0.7312012,1.496183,3.564885,-1.083969,-134.32,-51.52,-92.92
-0.04272461,0.699707,0.7412109,1.641221,6.221374,-0.1450382,-134.32,-51.52,-92.92
-0.04443359,0.6965332,0.7460938,2.236641,4.29771,-0.8549618,-133.4,-51.52,-92.0
-0.04467773,0.7004395,0.7407227,1.29771,3.900763,-0.3053435,-133.4,-51.52,-92.0
-0.03955078,0.7001953,0.7375488,1.648855,5.099236,-0.6793893,-133.4,-51.52,-92.0
-0.05200195,0.6977539,0.7431641,0.3206107,3.160305,-0.1068702,-134.32,-51.52,-92.92
-0.04174805,0.7023926,0.7373047,2.312977,4.908397,-1.21374,-134.32,-51.52,-92.92
-0.04443359,0.7028809,0.7365723,2.435115,3.328244,-0.2442748,-134.32,-51.52,-92.92
-0.04345703,0.699707,0.7355957,1.725191,5.847328,1.900763,-133.4,-51.52,-92.0
-0.03955078,0.7062988,0.730957,2.091603,4.572519,0.4427481,-133.4,-51.52,-92.0
-0.04248047,0.6975098,0.7319336,2.221374,3.755725,-1.671756,-133.4,-51.52,-92.0
-0.0456543,0.6999512,0.7365723,0.4885496,3.671756,-0.2748091,-134.32,-51.52,-92.92
-0.0480957,0.7072754,0.7434082,2.236641,4.251908,0.2213741,-134.32,-51.52,-92.92
-0.05029297,0.697998,0.7370605,2.519084,3.877863,-0.06870229,-133.4,-51.52,-92.92
-0.03344727,0.7021484,0.7385254,2.312977,4.946565,1.664122,-133.4,-51.52,-92.92
-0.04077148,0.6999512,0.7365723,2.603053,4.671756,-0.9694656,-133.4,-51.52,-92.92
-0.04272461,0.692627,0.7363281,2.526718,5.687023,-0.2290076,-133.4,-51.52,-92.92
-0.04760742,0.7019043,0.7385254,2.21374,3.916031,0.6412213,-133.4,-51.52,-92.92
-0.03955078,0.7036133,0.7363281,2.229008,4.587786,-0.1068702,-133.4,-51.52,-92.92
-0.0378418,0.7053223,0.7355957,2.51145,5.435114,-0.1679389,-133.4,-51.52,-92.92
-0.04394531,0.7028809,0.7314453,2.229008,5.320611,0.259542,-133.4,-51.52,-92.92
-0.04516602,0.7019043,0.7375488,3.038168,4.610687,1.061069,-134.32,-51.52,-92.92
-0.04443359,0.7028809,0.7404785,2.954198,5.419847,0.9770992,-134.32,-51.52,-92.92
-0.04663086,0.6962891,0.7336426,1.328244,5.183206,-1.725191,-134.32,-51.52,-92.92
-0.04272461,0.6982422,0.7399902,1.969466,4.21374,0.7251908,-133.4,-51.52,-92.92
-0.04931641,0.6987305,0.736084,2.427481,3.129771,0.2061069,-133.4,-51.52,-92.92
-0.03540039,0.7062988,0.7416992,1.221374,4.755725,1.267176,-133.4,-51.52,-92.92
-0.04345703,0.7087402,0.7348633,1.030534,5.519084,-1.961832,-134.32,-51.52,-92.92
-0.0480957,0.6948242,0.7346191,0.2290076,5.160306,-0.1374046,-134.32,-51.52,-92.92
-0.04272461,0.6962891,0.7333984,0.4351145,5.129771,0.06870229,-134.32,-51.52,-92.92
-0.0390625,0.6987305,0.7390137,1.282443,4.022901,-1.183206,-134.32,-51.52,-92.92
-0.04541016,0.7053223,0.7368164,2.625954,6.290076,-0.5114504,-134.32,-51.52,-92.92
-0.04101563,0.6982422,0.7404785,0.4732824,4.236641,0.2519084,-133.4,-51.52,-92.0
-0.04150391,0.6950684,0.7363281,3.328244,5.48855,-0.4045802,-133.4,-51.52,-92.0
-0.05273438,0.7006836,0.7399902,1.534351,3.541985,-0.3282443,-133.4,-51.52,-92.0
-0.04003906,0.7006836,0.7355957,3.541985,6.89313,1.679389,-134.32,-51.52,-92.92
-0.04418945,0.7070313,0.7348633,2.610687,4.320611,0.6564885,-134.32,-51.52,-92.92
-0.03515625,0.7053223,0.723877,1.709924,5.656488,-1.557252,-133.4,-51.52,-92.92
-0.04711914,0.697998,0.7468262,0.832061,3.625954,0.2137404,-133.4,-51.52,-92.92
-0.046875,0.6972656,0.744873,2.679389,3.442748,0.7938931,-133.4,-51.52,-92.92
-0.03710938,0.7023926,0.7290039,1.961832,4.427481,-1.083969,-134.32,-52.44,-92.92
-0.03662109,0.6984863,0.7353516,1.603053,4.519084,-0.7480916,-134.32,-52.44,-92.92
-0.04736328,0.704834,0.7380371,2.229008,5.51145,1.053435,-134.32,-52.44,-92.92
-0.04370117,0.7070313,0.7368164,2.832061,7.030534,-0.3664122,-134.32,-51.52,-92.92
-0.04370117,0.7026367,0.739502,0.5343512,4.61832,-0.3282443,-134.32,-51.52,-92.92
-0.04150391,0.7016602,0.7353516,2.641221,6.48855,-0.3053435,-134.32,-51.52,-92.92
-0.04272461,0.7016602,0.7441406,1.725191,4.435114,-0.07633588,-134.32,-51.52,-92.92
-0.03955078,0.703125,0.7404785,3.083969,5.022901,0.832061,-134.32,-51.52,-92.92
-0.04418945,0.703125,0.7375488,2.251908,5.59542,-1.534351,-133.4,-51.52,-92.0
-0.04614258,0.7041016,0.7385254,2.114504,5.824428,-1.320611,-133.4,-51.52,-92.0
-0.04736328,0.6958008,0.7319336,0.2519084,5.068702,-0.3587786,-133.4,-51.52,-92.0
-0.04370117,0.7011719,0.7416992,2.129771,4.290076,0.03816794,-134.32,-51.52,-92.92
-0.04638672,0.7019043,0.7324219,2.251908,4.816794,-0.2671756,-134.32,-51.52,-92.92
-0.05297852,0.699707,0.7346191,0.8473283,4.19084,-0.1374046,-134.32,-51.52,-92.92
-0.04248047,0.6967773,0.7414551,0.9236641,3.59542,-0.2290076,-134.32,-51.52,-92.92
-0.04223633,0.7055664,0.7441406,2.908397,4.778626,0.6641222,-134.32,-51.52,-92.92
-0.04223633,0.7004395,0.7368164,3.236641,5.59542,0.1221374,-134.32,-51.52,-92.92
-0.04785156,0.7021484,0.7365723,0.6564885,4.19084,-1.610687,-134.32,-51.52,-92.92
-0.04272461,0.6962891,0.7424316,1.412214,4.099236,0.5572519,-134.32,-51.52,-92.92
-0.04345703,0.7036133,0.7280273,1.641221,3.977099,0.1068702,-134.32,-51.52,-92.92
-0.04248047,0.7033691,0.7438965,2.0,4.435114,0.4274809,-134.32,-51.52,-92.92
-0.04248047,0.6989746,0.7529297,2.78626,4.725191,-0.6641222,-134.32,-51.52,-92.92
-0.04931641,0.6928711,0.7392578,1.984733,4.015267,-0.03053435,-134.32,-51.52,-92.92
-0.04516602,0.7006836,0.7336426,2.236641,4.687023,0.3587786,-134.32,-51.52,-92.92
-0.03710938,0.7053223,0.7341309,2.412214,4.961832,-0.3587786,-134.32,-51.52,-92.92
-0.04614258,0.6989746,0.7321777,1.40458,5.29771,-0.8549618,-134.32,-51.52,-92.92
-0.04394531,0.6999512,0.7336426,2.557252,3.717557,0.09160305,-134.32,-51.52,-92.92
-0.04394531,0.7036133,0.7321777,1.70229,5.610687,-1.679389,-134.32,-51.52,-92.92
-0.04785156,0.6994629,0.7363281,1.816794,3.778626,-0.2137404,-134.32,-51.52,-92.92
-0.04394531,0.7077637,0.7358398,2.656489,4.748092,0.778626,-134.32,-51.52,-92.92
-0.04077148,0.7077637,0.7392578,2.610687,5.152672,0.0,-134.32,-51.52,-92.92
-0.04321289,0.6977539,0.7324219,0.6946565,4.08397,-1.664122,-133.4,-51.52,-92.92
-0.04785156,0.6948242,0.7351074,1.900763,4.396946,0.3129771,-133.4,-51.52,-92.92
-0.04492188,0.7004395,0.7365723,3.229008,6.10687,-0.007633588,-134.32,-51.52,-92.92
-0.04125977,0.7097168,0.7407227,1.824428,4.351145,0.129771,-134.32,-51.52,-92.92
-0.0402832,0.7043457,0.7363281,2.389313,4.328244,-0.2213741,-134.32,-51.52,-92.92
-0.04663086,0.6984863,0.7287598,1.114504,3.564885,-0.778626,-134.32,-51.52,-92.92
-0.03979492,0.7001953,0.7355957,2.80916,5.480916,0.007633588,-134.32,-51.52,-92.92
-0.04516602,0.7009277,0.7436523,1.603053,4.320611,-0.351145,-134.32,-51.52,-92.92
-0.04345703,0.6984863,0.7409668,2.183206,4.145038,0.3358779,-133.4,-51.52,-92.92
-0.04199219,0.7033691,0.7412109,2.48855,6.175572,0.9847328,-133.4,-51.52,-92.92
-0.0402832,0.6999512,0.7390137,1.625954,5.328244,0.1068702,-133.4,-51.52,-92.92
-0.03955078,0.6970215,0.7409668,2.541985,4.358778,-0.1450382,-133.4,-51.52,-92.92
-0.04589844,0.7080078,0.7368164,2.549618,5.0,0.6259542,-133.4,-51.52,-92.92
-0.04248047,0.706543,0.7299805,2.557252,5.938931,-0.2442748,-133.4,-52.44,-92.92
-0.04248047,0.7009277,0.7419434,2.053435,4.801527,0.648855,-133.4,-52.44,-92.92
-0.04589844,0.6972656,0.737793,1.748092,5.091603,-0.8931297,-133.4,-52.44,-92.92
-0.04785156,0.7089844,0.736084,2.083969,4.007634,0.4732824,-134.32,-51.52,-92.92
-0.04101563,0.7080078,0.7409668,1.717557,5.21374,0.4732824,-134.32,-51.52,-92.92
-0.04101563,0.7019043,0.7412109,0.8091603,6.038168,-0.5725191,-133.4,-51.52,-92.92
-0.04418945,0.6972656,0.7424316,1.496183,4.068702,0.2366412,-133.4,-51.52,-92.92
-0.04101563,0.6987305,0.7390137,3.236641,4.526718,0.8396947,-133.4,-51.52,-92.92
-0.0378418,0.7077637,0.7382813,1.572519,4.519084,0.5114504,-133.4,-51.52,-92.92
-0.0456543,0.6972656,0.7407227,2.29771,6.038168,-1.145038,-133.4,-51.52,-92.92
-0.05200195,0.6950684,0.7397461,1.442748,4.40458,-0.1679389,-133.4,-51.52,-92.92
-0.03027344,0.7006836,0.7329102,3.099237,4.78626,0.7480916,-134.32,-51.52,-92.92
-0.04248047,0.7055664,0.7338867,1.152672,4.0,0.3129771,-134.32,-51.52,-92.92
-0.05102539,0.7045898,0.7441406,1.030534,4.099236,-0.4503817,-134.32,-51.52,-92.92
-0.04125977,0.7016602,0.7319336,1.648855,4.496183,1.885496,-134.32,-51.52,-92.92
-0.04052734,0.7009277,0.729248,2.076336,6.160306,-0.7328244,-134.32,-51.52,-92.92
-0.04589844,0.6965332,0.7324219,2.038168,5.007634,-0.870229,-133.4,-51.52,-92.92
-0.03417969,0.7016602,0.7375488,1.137405,5.038168,0.4961832,-134.32,-51.52,-92.92
-0.04443359,0.7067871,0.7404785,1.442748,4.755725,-0.9770992,-134.32,-51.52,-92.92
-0.04980469,0.6982422,0.739502,0.8167939,5.007634,-2.19084,-134.32,-51.52,-92.92
-0.04711914,0.6989746,0.7321777,1.832061,4.572519,0.1679389,-133.4,-51.52,-92.92
-0.03710938,0.7021484,0.7373047,2.564885,4.709924,1.305344,-133.4,-51.52,-92.92
-0.04296875,0.7033691,0.7441406,0.7633588,4.778626,-1.045802,-134.32,-51.52,-92.0
-0.04589844,0.6977539,0.7390137,0.6793893,3.450382,-1.221374,-134.32,-51.52,-92.0
-0.04467773,0.6948242,0.7412109,2.931298,5.801527,-0.2213741,-134.32,-51.52,-92.0
-0.03344727,0.7036133,0.7380371,2.396947,5.671756,0.1221374,-134.32,-51.52,-92.92
-0.04174805,0.6999512,0.7421875,1.427481,4.274809,0.832061,-134.32,-51.52,-92.92
-0.05151367,0.7021484,0.7409668,1.320611,3.908397,0.5267176,-134.32,-51.52,-92.92
-0.04077148,0.6960449,0.7468262,0.6717557,3.816794,-1.587786,-134.32,-51.52,-92.92
-0.04833984,0.7004395,0.7392578,1.198473,3.763359,-0.4580153,-134.32,-51.52,-92.92
-0.04614258,0.6999512,0.7370605,1.832061,4.885496,0.6641222,-133.4,-51.52,-92.92
-0.04492188,0.701416,0.7341309,3.267176,5.053435,0.2748091,-133.4,-51.52,-92.92
-0.04003906,0.7019043,0.7421875,2.549618,5.534351,-1.244275,-133.4,-51.52,-92.92
-0.04785156,0.7004395,0.7392578,0.9312977,3.694656,-0.1908397,-133.4,-51.52,-92.0
-0.04223633,0.6975098,0.7351074,2.763359,4.51145,0.610687,-133.4,-51.52,-92.0
-0.04345703,0.7016602,0.7434082,0.9465649,3.900763,-0.3129771,-133.4,-51.52,-92.0
-0.04003906,0.6999512,0.7431641,0.6335878,4.198473,-1.412214,-134.32,-51.52,-92.0
-0.04663086,0.6975098,0.7387695,1.435114,4.427481,-0.2900764,-134.32,-51.52,-92.0
-0.03955078,0.6970215,0.7324219,1.450382,4.969466,-0.8473283,-134.32,-51.52,-92.0
-0.04174805,0.6987305,0.7456055,-0.04580153,3.312977,-0.1145038,-134.32,-51.52,-92.0
-0.04736328,0.6975098,0.7485352,-0.2977099,4.389313,-0.2977099,-134.32,-51.52,-92.0
-0.04345703,0.6948242,0.7468262,2.824427,4.931298,0.05343511,-134.32,-51.52,-92.0
-0.04907227,0.7016602,0.7329102,0.2442748,3.030534,0.2519084,-134.32,-51.52,-92.0
-0.046875,0.7006836,0.7373047,1.938931,5.603054,-1.610687,-134.32,-51.52,-92.0
-0.046875,0.6962891,0.7434082,1.465649,4.122138,0.2290076,-133.4,-51.52,-92.0
-0.04418945,0.6967773,0.7380371,1.465649,4.625954,-0.1068702,-133.4,-51.52,-92.0
-0.04394531,0.6972656,0.7387695,1.435114,4.038168,-0.2519084,-133.4,-51.52,-92.0
-0.04443359,0.6989746,0.7363281,1.648855,3.458015,0.610687,-134.32,-51.52,-92.0
-0.04248047,0.6992188,0.7478027,1.51145,4.656488,0.4427481,-134.32,-51.52,-92.0
-0.04931641,0.7009277,0.7487793,0.5725191,4.519084,-1.312977,-134.32,-51.52,-92.92
-0.04931641,0.6958008,0.7375488,1.778626,5.045802,-1.832061,-134.32,-51.52,-92.92
-0.04394531,0.6918945,0.7397461,1.816794,4.778626,-0.389313,-134.32,-51.52,-92.92
-0.04931641,0.6958008,0.7441406,-0.03816794,3.70229,-0.3282443,-134.32,-51.52,-92.0
-0.04589844,0.6914063,0.7480469,1.557252,5.389313,-1.59542,-134.32,-51.52,-92.0
-0.04492188,0.6921387,0.7436523,2.145038,5.21374,-0.4045802,-134.32,-51.52,-92.0
-0.04516602,0.7001953,0.7431641,2.244275,3.549618,0.480916,-134.32,-51.52,-92.0
-0.03735352,0.7009277,0.7419434,1.572519,4.473282,0.3740458,-134.32,-51.52,-92.0
-0.04077148,0.6962891,0.7319336,0.6641222,4.839694,-0.8473283,-134.32,-51.52,-92.0
-0.04882813,0.7011719,0.7407227,1.687023,4.526718,-0.3664122,-134.32,-51.52,-92.0
-0.04882813,0.6987305,0.7421875,1.175573,3.389313,-0.02290076,-134.32,-51.52,-92.0
-0.03613281,0.6958008,0.7443848,3.015267,4.854962,-0.9770992,-134.32,-51.52,-92.0
-0.04101563,0.6918945,0.7438965,1.763359,4.984733,0.4274809,-134.32,-51.52,-92.0
-0.05615234,0.6906738,0.7434082,2.366412,5.389313,-0.04580153,-134.32,-51.52,-92.0
-0.046875,0.6936035,0.7390137,3.175573,4.839694,0.8091603,-134.32,-52.44,-92.0
-0.0402832,0.6958008,0.7419434,2.603053,4.946565,0.4045802,-134.32,-52.44,-92.0
-0.03637695,0.6972656,0.753418,1.244275,3.755725,-0.7022901,-134.32,-51.52,-92.0
-0.04760742,0.6955566,0.7475586,0.9770992,4.450382,0.03816794,-134.32,-51.52,-92.0
-0.03930664,0.7050781,0.7380371,2.374046,6.870229,-0.1908397,-134.32,-51.52,-92.0
-0.046875,0.6975098,0.7409668,0.5801527,4.610687,0.1603053,-134.32,-51.52,-92.0
-0.04736328,0.692627,0.7414551,1.610687,3.946565,-0.1526718,-134.32,-51.52,-92.0
-0.03076172,0.6975098,0.7434082,2.480916,3.89313,0.1832061,-134.32,-51.52,-92.0
-0.04418945,0.7004395,0.7351074,1.954198,6.541985,-0.6641222,-134.32,-51.52,-92.0
-0.046875,0.6940918,0.7421875,1.770992,4.183206,-1.78626,-134.32,-51.52,-92.0
-0.04272461,0.6987305,0.7390137,2.824427,5.099236,2.503817,-134.32,-51.52,-92.0
-0.03540039,0.703125,0.7438965,2.48855,4.992366,-0.9389313,-134.32,-51.52,-92.0
-0.04980469,0.6938477,0.7365723,1.755725,4.603054,0.1984733,-134.32,-51.52,-92.0
-0.05200195,0.7026367,0.7382813,2.870229,4.625954,0.480916,-134.32,-51.52,-92.0
-0.03710938,0.706543,0.7348633,3.625954,4.801527,0.5419847,-134.32,-51.52,-92.92
-0.04272461,0.6999512,0.7399902,2.21374,6.198473,-1.175573,-134.32,-51.52,-92.92
-0.04589844,0.6975098,0.7416992,1.755725,4.244275,0.06870229,-134.32,-51.52,-92.92
-0.04394531,0.6911621,0.7355957,2.656489,3.954198,0.5496183,-133.4,-51.52,-92.0
-0.03686523,0.7060547,0.7392578,2.480916,5.167939,-0.832061,-133.4,-51.52,-92.0
-0.0390625,0.6967773,0.7365723,0.7862596,4.160306,-0.7938931,-133.4,-51.52,-92.0
-0.04418945,0.6989746,0.7409668,2.152672,4.801527,0.6183206,-133.4,-51.52,-92.0
-0.04052734,0.7023926,0.736084,1.290076,4.450382,-0.5648855,-133.4,-51.52,-92.0
-0.04394531,0.6984863,0.739502,2.251908,4.51145,-1.053435,-134.32,-52.44,-92.92
-0.04345703,0.6972656,0.7424316,2.022901,4.251908,0.4351145,-134.32,-52.44,-92.92
-0.04492188,0.7001953,0.7404785,2.389313,5.938931,-0.4351145,-134.32,-52.44,-92.92
-0.04858398,0.7023926,0.744873,1.870229,2.587786,0.7862596,-133.4,-51.52,-92.92
-0.03540039,0.7038574,0.7324219,1.89313,4.633588,0.3664122,-133.4,-51.52,-92.92
-0.04248047,0.6982422,0.7390137,2.236641,4.496183,0.4961832,-134.32,-51.52,-92.92
-0.05004883,0.6999512,0.7399902,1.251908,3.40458,0.4580153,-134.32,-51.52,-92.92
-0.04882813,0.7050781,0.7348633,3.068702,5.526718,-0.1908397,-134.32,-51.52,-92.92
-0.04345703,0.7019043,0.736084,2.21374,3.572519,-1.557252,-133.4,-51.52,-92.92
-0.03393555,0.6945801,0.7341309,1.564886,4.992366,-0.129771,-133.4,-51.52,-92.92
-0.04345703,0.6970215,0.737793,1.648855,3.992366,0.129771,-133.4,-51.52,-92.92
-0.03930664,0.7016602,0.7512207,2.335878,3.770992,-0.6870229,-134.32,-51.52,-92.92
-0.04467773,0.6962891,0.736084,2.061069,4.938931,-0.5496183,-134.32,-51.52,-92.92
-0.04589844,0.7028809,0.7416992,2.435115,5.038168,1.580153,-134.32,-51.52,-92.92
-0.03857422,0.7075195,0.739502,1.969466,5.328244,-0.1679389,-134.32,-51.52,-92.92
-0.03735352,0.7006836,0.7385254,0.7557252,4.709924,-1.435114,-134.32,-51.52,-92.92
-0.04589844,0.6882324,0.7336426,1.244275,3.251908,0.2213741,-133.4,-51.52,-92.92
-0.0456543,0.6987305,0.7231445,2.091603,3.969466,-0.05343511,-133.4,-51.52,-92.92
-0.05126953,0.7036133,0.7424316,2.335878,3.343511,0.07633588,-133.4,-51.52,-92.92
-0.04980469,0.7038574,0.7275391,1.206107,2.244275,-0.3969466,-133.4,-51.52,-92.0
-0.03369141,0.7089844,0.722168,2.175573,2.305344,-2.450382,-133.4,-51.52,-92.0
-0.02880859,0.7111816,0.7287598,1.648855,3.091603,-1.725191,-133.4,-51.52,-92.0
-0.03442383,0.6989746,0.7470703,1.603053,1.206107,-1.412214,-133.4,-51.52,-92.92
-0.03881836,0.6921387,0.7436523,1.282443,3.412214,-0.1984733,-133.4,-51.52,-92.92
-0.03540039,0.6882324,0.7404785,3.572519,6.70229,0.6870229,-133.4,-52.44,-92.92
-0.03857422,0.6945801,0.7546387,2.717557,4.503817,2.0,-133.4,-52.44,-92.92
-0.0480957,0.7019043,0.7402344,0.5954198,5.19084,0.351145,-133.4,-52.44,-92.92
-0.04248047,0.7050781,0.7390137,0.9007633,5.671756,-0.9923664,-133.4,-52.44,-92.92
-0.04296875,0.7055664,0.7304688,0.9541985,4.763359,0.04580153,-133.4,-52.44,-92.92
-0.03955078,0.699707,0.7280273,0.3435115,5.374046,-1.145038,-133.4,-52.44,-92.92
-0.04956055,0.7075195,0.7324219,-0.7022901,3.374046,-1.854962,-133.4,-51.52,-92.92
-0.03686523,0.7053223,0.7407227,0.1450382,4.51145,-0.06870229,-133.4,-51.52,-92.92
-0.04394531,0.697998,0.7368164,0.6259542,4.312977,-0.8015267,-133.4,-51.52,-92.92
-0.05175781,0.6984863,0.7363281,2.007634,3.656489,0.3358779,-133.4,-51.52,-92.92
-0.03833008,0.6987305,0.7373047,3.244275,5.129771,0.1068702,-134.32,-52.44,-92.0
-0.02807617,0.7026367,0.7468262,2.763359,5.030534,1.977099,-134.32,-52.44,-92.0
-0.03735352,0.6982422,0.7441406,0.3664122,5.38168,-1.793893,-134.32,-52.44,-92.92
-0.05273438,0.6887207,0.7429199,1.824428,6.022901,0.3435115,-134.32,-52.44,-92.92
-0.0534668,0.6970215,0.7414551,2.916031,4.534351,1.458015,-134.32,-52.44,-92.92
-0.0378418,0.7109375,0.7263184,4.633588,4.80916,0.9312977,-133.4,-50.6,-92.92
-0.04077148,0.7114258,0.7265625,2.564885,4.610687,-1.465649,-133.4,-50.6,-92.92
-0.03979492,0.6965332,0.7336426,1.549618,4.503817,-1.389313,-133.4,-50.6,-92.92
-0.04223633,0.6987305,0.7307129,3.022901,3.89313,-0.1526718,-134.32,-52.44,-92.92
-0.03857422,0.7006836,0.7373047,3.969466,4.320611,-0.2671756,-134.32,-52.44,-92.92
-0.04223633,0.704834,0.7416992,3.648855,5.427481,1.748092,-133.4,-52.44,-92.92
-0.0378418,0.7019043,0.7429199,1.587786,4.717557,0.09160305,-133.4,-52.44,-92.92
-0.03662109,0.6923828,0.7387695,2.656489,5.59542,-0.5267176,-133.4,-52.44,-92.92
-0.05322266,0.6918945,0.7431641,3.068702,5.725191,0.4503817,-133.4,-51.52,-92.92
-0.05029297,0.7043457,0.7333984,3.282443,5.519084,1.496183,-133.4,-51.52,-92.92
