timestamp,ax,ay,az,gx,gy,gz,mx,my,mz,label
0.0,0.23071984177472576,0.016914135374952788,11.37266004624297,-1.920329967957668,0.6036490097669984,1.2268378626746181,669.8644887806303,373.17045354237615,649.8306292873568,jog
0.05008347245409015,1.33336961997698,1.0110538794893373,11.888210299428858,0.016740639680893028,-0.7777820901542217,-1.1551856833107494,616.9959574359365,425.2196785458424,734.718071716179,jog
0.1001669449081803,2.3719601841129396,0.46335965162664744,12.039811176043763,-0.12629485147131622,-0.10037540866423465,-1.432465582945105,597.820579568993,358.8873790541072,660.2146952548087,jog
0.15025041736227046,1.6690897771272413,0.6000361814703334,10.230604314175682,-0.7960206159938074,-0.09362153338879477,0.06734421466080526,712.5853566032133,280.6279242564604,623.2362011600475,jog
0.2003338898163606,0.11874726647507983,-0.46834625850232625,9.016313564485696,0.4377268046009626,1.4546355864502605,-0.6658104188008459,672.6301563925473,362.4070996388591,625.4147364455686,jog
0.25041736227045075,-1.1242376381839592,-0.9243273447161624,7.863252821285453,-0.7100681555307321,0.5013809033354855,-0.0826919637366462,643.1775515526311,362.83416207798473,547.5935913108526,jog
0.3005008347245409,-1.9169665108060974,-1.1456968988060021,8.270184339390775,-0.1400110355011827,0.6148458640207921,-0.0655165862402071,659.3829406616851,363.6026062423458,710.2806148625863,jog
0.35058430717863104,-1.502723862544777,-0.3115198510311303,9.569558878502537,0.4063407613803821,0.26203576170432247,1.438258922230818,689.4559406529144,401.98689929483265,648.1041794748335,jog
0.4006677796327212,-0.11573943488030149,0.2802291970644471,11.256465880005425,0.8758445987398465,-0.5741095752958095,-0.9326275147351989,691.8881209760351,403.2866757960564,603.3128535806536,jog
0.4507512520868114,1.5733066535063687,0.924061300691225,12.186713978736583,0.6055604726059636,-0.9333757162742267,-1.104276392838032,670.4836361126868,394.1283279686019,606.601204880623,jog
0.5008347245409015,2.166074560358634,1.42394147299845,11.814513175697394,0.6941033469339595,-0.5645139655880851,-0.13594586831775857,664.1232262123534,378.76378650835954,600.9302297281761,jog
0.5509181969949917,1.2223308113025588,0.3986704613840816,10.503789185633627,0.5219926473031654,0.7972109165594503,1.332672606766673,740.7361166196711,401.1892203273835,635.6198654789208,jog
0.6010016694490818,0.07304844318480008,-0.24389486845729502,8.60528712985858,0.11878597492900105,0.9460247624810016,-0.32539005126718745,630.6489922280831,345.18328793565405,684.8842827645484,jog
0.651085141903172,-1.0146592044192753,-1.1454364453767285,7.503544527346496,-0.025393443574077135,-0.8903793485709964,0.2562547019912119,652.9520860722041,405.0758676770282,628.933539875645,jog
0.7011686143572621,-1.6261858281854904,-1.3881717672861142,7.781692055943866,0.5302560995038185,-0.9387586000944537,-0.5435264918057876,758.8455487638003,346.45719935774366,660.8729218318401,jog
0.7512520868113522,-1.1486289231499167,-0.7492858970466212,9.227086749403506,0.3110272760410928,-0.32461667724172266,0.4859728300094509,709.563559848583,339.0059728144938,645.9699528682256,jog
0.8013355592654424,-0.056084447749944796,0.3210471790494238,10.759041346940839,-0.15374946452653818,-0.19197387547984393,-0.7713911549591657,760.8253763996668,349.58092667812105,621.8699334730676,jog
0.8514190317195326,1.6934028298646768,1.212342809771705,11.859334954560532,-1.5749525284236592,-1.5585815001814678,-0.34655623715320744,683.3275011182009,379.74487895386795,690.6194883169051,jog
0.9015025041736228,1.9850797678479295,0.8535344357829051,11.331850802199163,0.7237407328354409,0.45245119898366604,0.31705550996230264,589.2484127895605,411.46278044491726,644.3211608724016,jog
0.9515859766277128,1.6743424316946476,0.2358780788308566,10.506319478859142,-1.2969214692467894,-1.7570655665941104,-0.5337042644189156,686.9320190529698,350.50041509331714,621.1790664184102,jog
1.001669449081803,-0.08542904968474203,-0.4797292198997308,8.919527032778474,0.19114428576697337,-0.9380340966445426,0.2624857841925666,749.7643153365412,294.0955453593859,633.3340768414312,jog
1.0517529215358932,-1.6158404172431164,-0.6829136036601529,7.5807938682123375,-0.2872269454848101,0.006777726476451189,-1.1484429011327872,681.2892492670518,300.9427988527104,634.1139012857876,jog
1.1018363939899833,-2.1336125084915043,-1.2373750066589726,8.163786998667081,-0.31284604991278664,0.41730893462806395,-0.8625550492287639,672.6202748989747,396.16570821572503,614.533016299447,jog
1.1519198664440735,-1.0257749698037313,-0.4428723346424646,9.705029274889863,1.2203587640686535,0.246856856134713,-0.7931242029345383,700.3839969616484,370.85073396961945,680.7735388883799,jog
1.2020033388981637,0.364357642594981,0.7640946895878764,11.010324028067194,-0.2733542592784063,-0.3692021381461156,-0.7502133777995812,680.7843280512977,414.4646072054477,628.97495875558,jog
1.2520868113522539,1.057419203027981,0.9247094161192362,11.855175162093024,1.2768151379225532,-0.965301497448847,1.6803528755726858,702.7439475874658,377.1446738203853,552.1916492408009,jog
1.302170283806344,1.729783197120798,0.8364920015425004,11.927067750963225,0.5363556634131038,-0.7317284600845618,0.8010206092222159,627.2418546559434,359.3150647408365,664.1520764372301,jog
1.352253756260434,1.7016512810659,0.5388249212473459,9.830468295853244,-0.6707344465135011,-0.45496139167918925,0.027500689627938033,701.6169493649647,373.9279273756546,670.3061422546584,jog
1.4023372287145242,0.17549596936457984,-0.6065655928063356,8.916745059777503,-0.8845808218258139,-0.9608319128562379,-0.19999855305728573,817.1325350226917,378.7826518165169,600.5774268847442,jog
1.4524207011686143,-1.0269949904487268,-0.9507329076820172,7.51404100474713,0.22730563872918885,-0.555845609778554,-1.2067714998121952,705.3529868729646,437.82992082547196,729.1573278977668,jog
1.5025041736227045,-1.7369015742598022,-1.6293805296668373,8.428801066457874,0.2173934084130708,-1.4187827922342384,0.0030234327140426093,673.5484131452496,388.56871609088967,640.0630189779148,jog
1.5525876460767947,-0.8814588493816217,-0.48147444277358853,9.764416708061765,-0.273950905099504,-0.40035864472627614,-0.4585064930089085,694.5682070187584,363.27194730290864,568.5044006095053,jog
1.6026711185308848,0.4417988275240707,0.3254490968348656,11.30922483027483,0.8271531474171093,0.3073807007416713,0.21645826367627535,762.280393330818,381.3708990649808,577.6012641319553,jog
1.652754590984975,1.7958328649041202,0.936808475000789,12.290079579110103,-0.5259266595163581,-0.11723767662875889,-0.10831261030553552,665.0899558214934,398.4133613971611,571.9143309950546,jog
1.7028380634390652,2.018693385009553,1.3637920352858761,11.659846198128147,0.8767545262953503,0.5463956860348954,-0.37198209276973926,713.8439836486757,352.99716468241735,555.2040026487257,jog
1.7529215358931554,1.12192801544925,-0.25802346387262803,10.392780517992524,-0.6562197137414365,0.896145153372461,0.27991039663798306,724.8584464296911,380.13981551809957,632.6696172183133,jog
1.8030050083472455,0.709901712391955,-0.6807720319743593,8.874282524294156,-0.5935037463519401,0.880593529127314,0.270651830083012,721.7326059215018,364.2048400612807,702.8349173286713,jog
1.8530884808013357,-0.9490400847761201,-1.2719040196092366,7.505062702826836,0.05642361866853899,0.07497737797593054,1.4344670509797157,658.0819515937375,406.3179514666304,687.7333951119848,jog
1.9031719532554257,-1.5352384265803958,-1.2232010317438569,8.21013410502541,-0.44568716206076225,-0.45474021230174533,0.37013239244828194,649.3688858261247,368.5995079090754,542.6582390237272,jog
1.9532554257095158,-0.7174514495314669,-0.5956359439329038,9.934407957191803,0.8222747081484711,-1.3412067104881258,-0.3178608231996855,622.1141747463313,328.2123431775261,702.0690458895698,jog
2.003338898163606,0.2579117450780487,0.3916043153536156,11.168530584948352,0.008772117416126586,-0.5033880772183985,0.057475891840824106,577.8423806423405,398.18301502773494,616.8995439725788,jog
2.0534223706176964,1.1247535504659125,1.5031383032173178,12.268788465651475,0.8586561505446412,-0.03908105768549809,0.0065643497785845524,641.272174696403,405.04583013858274,573.7177762778776,jog
2.1035058430717863,2.3609964628293296,0.9346312920633939,11.516092664092703,-0.5436729948885161,0.3855359476689916,0.007548902484934523,728.3828120423644,349.9348920623925,655.8546997532774,jog
2.1535893155258763,1.3314980308680988,1.0927252002950043,10.284757145016854,0.1604131192658582,0.06298853015314775,0.31367182339287636,692.6562736277515,353.6573435092858,606.7195723709398,jog
2.2036727879799667,0.0003033753081690821,-0.7671618741824737,8.778604081836848,0.6113946011789262,0.12360086816130972,0.01841587351272758,647.747033346211,426.13642850738853,581.5310067438235,jog
2.2537562604340566,-1.3577092144864622,-1.3294197343248266,8.032135730815977,-0.5323408940960832,0.020692329726111493,0.7669432164903376,746.6287915840522,393.5765779846491,612.5108059291383,jog
2.303839732888147,-2.3974557864332904,-1.0487213571069092,8.322541451468988,-0.5172385307828689,0.42648905683238436,-0.340454507722538,683.2900945513314,402.02527422790627,644.744933841267,jog
2.353923205342237,-0.9646579832784249,-0.3636982402144136,9.916689789107968,0.13207558459756524,-0.7668923312943141,-0.8429159915247042,679.4621730730958,407.8461110188696,626.7252436242402,jog
2.4040066777963274,0.17816120215575232,1.229219920771976,11.060566233088919,1.1931670243051133,-0.21071030890442308,-0.0383430388763871,644.1011282084163,376.5709392575196,587.7653931690679,jog
2.4540901502504173,1.5096212220552083,1.69429193884613,12.134791036274674,-0.32505099300464263,-0.6273873405025961,0.09030858551523777,658.747770906613,362.5372349409757,631.7476175693293,jog
2.5041736227045077,2.1846516203618225,0.8745556594597266,11.167548662367922,-0.38258819726567894,0.414014725260316,0.30352496169964016,678.0294376337994,375.49856668643383,652.0248474924974,jog
2.5542570951585977,1.74610623344428,0.38711121811221133,10.41220512154418,-1.187721619403334,0.45921618968749106,-0.9706841968225284,664.8415419035863,387.027380019705,631.9396161743791,jog
2.604340567612688,0.026130603478447256,-0.7467807216373012,8.246476698278935,-0.8317362229323582,0.1968115724625079,0.9758759482457122,757.1653830008934,396.6197970860464,615.291837233734,jog
2.654424040066778,-1.3468495623728447,-0.9843398343489165,7.328878031807375,-0.06721650156857707,-0.8368621592672272,0.8554704077796365,649.6697385455014,455.07991627192916,548.7458553618071,jog
2.704507512520868,-1.6734574161331386,-0.6203905501947475,8.55303625958866,-0.40610169345607167,-0.5359342300090405,-1.1285933458339041,776.7828749345155,334.1703493590843,584.64936811558,jog
2.7545909849749584,-0.9857049190261714,-0.4887722481426998,9.818618814320317,1.1061912722716971,-0.031130555751458146,0.11164213146251413,667.9624861762773,429.14071229297167,543.8411298053286,jog
2.8046744574290483,0.3198303024625687,0.7647670884853532,11.504160167039359,-0.4650282877185485,0.41306878420994986,-0.8760853681518416,662.3715574735656,417.5806154218442,597.7880682411205,jog
2.8547579298831387,1.9168531205062629,1.2354068582319944,12.095379047121725,0.813714573243783,0.297963623525328,-0.31640783061782657,745.917709853382,391.82492703295566,569.1797797468212,jog
2.9048414023372287,1.9294400444090338,1.1907805368651958,11.236519134880764,0.2050531964063437,-0.6224643221066833,1.0080056568218514,683.0457086200213,423.1288050106461,605.045036586594,jog
2.954924874791319,1.1794680945762581,0.5949271194637702,9.738247805977265,0.14051102647331626,0.24475108474858404,-1.4936989204728959,596.3492909878275,394.39806244515046,660.2521515316947,jog
3.005008347245409,0.08038614792546915,-0.255867101135319,8.419278145695495,-0.05795930001379199,-0.8298556262098953,0.5884983990819108,687.3645381583859,418.3513935309549,625.8253548198346,jog
3.0550918196994994,-1.4068997703891195,-0.7832007807542576,7.345154668016151,-0.22955161485819758,0.41569610486136177,-0.41461474117838254,694.9757724159692,385.7003518700477,585.350972193941,jog
3.1051752921535893,-1.5073205821791855,-1.3004071215205026,8.652050820907704,-1.1460507505196074,0.6104708293647567,0.011917655100498385,722.5761245169975,387.9657516325344,656.6665070594391,jog
3.1552587646076797,-1.0206748696472072,-0.4554322132321583,9.777651941368399,0.3171852307042678,1.204906986911167,-0.10589323502285188,681.5979239654824,342.4866510267587,584.778953278611,jog
3.2053422370617697,0.27599805761002494,0.5873909628232308,11.166716386178255,1.507753918985644,0.757885771051796,-0.623882406218034,752.6538118167988,376.6065903710958,745.7759325265903,jog
3.2554257095158596,1.475306919102261,1.5900950310559823,12.477177900962534,0.5452402957340139,-0.8023697219821259,-0.012331045198293086,745.5773947699691,363.02644527979976,590.9605185760183,jog
3.30550918196995,2.272991256210863,1.293121734889629,11.818828233540941,-1.0561435709308828,0.472686271679644,-1.3467490262181674,737.2184493953113,457.2131736809056,604.69118662679,jog
3.35559265442404,1.3309172631597985,0.5342992219831424,10.378855482361855,-0.4665537473881218,-0.32793366643291055,0.8235127904712045,646.1197054620454,422.8968128741437,633.3916892090904,jog
3.4056761268781304,0.20487671636857607,-0.34564121312885904,9.084317599407795,0.6867940738340148,0.452906570432862,-0.29225781562827885,645.6604856676345,335.97323236484345,652.4457569542257,jog
3.4557595993322203,-1.0400401256888345,-0.6789989983414428,7.549371572001092,0.8491647341438509,0.5150602594357147,-1.0163829548089485,667.2121924226446,470.26304217764005,582.2449336696495,jog
3.5058430717863107,-1.6795365998702725,-1.0257608834575118,8.242014378461192,0.20554091033095753,-0.9209375004097854,0.22401275304622142,613.1140422041742,405.3992198364953,639.1582923177301,jog
3.5559265442404007,-1.032146873737993,-0.05301454958012547,9.841602902428443,0.8401834011584279,1.008895889831765,0.4728810812151538,670.1293668382625,380.76475254702603,660.5789807467971,jog
3.606010016694491,-0.26059704055545113,0.8183081967162094,11.153531193103113,0.3029442348636422,1.165189062221585,-1.0365007031834634,654.9837757441301,339.5898344527868,683.2746698353208,jog
3.656093489148581,1.4256700658601411,0.9102881024735792,12.035368856764473,0.6738727013086384,1.0026541602202645,-0.2570463075021222,735.0093839210123,413.94067825935247,691.4304578188941,jog
3.7061769616026714,1.8774767039712172,1.0517111407665873,11.652121421559592,0.6286085090705356,-0.6414471416390346,-0.6737038343067168,750.7972659468061,400.80096891829015,590.6081930139559,jog
3.7562604340567614,1.209992889320529,0.28916615408553165,9.879059069124144,2.2163881620188026,0.26538426239783813,-0.30147001581112426,684.3239766828945,421.29932157456744,603.8383439150255,jog
3.8063439065108513,0.09259249916864991,-0.5756305604392375,8.61255643466029,1.0434039295891342,0.992348754595644,-0.1392252123371647,719.5381018358349,393.54016615437087,644.8650624524996,jog
3.8564273789649417,-1.318361467930491,-1.3387630885501836,7.586978701996719,1.1525210177892016,-0.0749865198957875,0.05276965975811677,624.9620515959505,400.1837795690231,557.9850154977231,jog
3.9065108514190316,-1.8104456421922417,-1.4543808028661476,8.507480565262778,-0.04650434921083416,0.00669360376601444,0.08787513748783206,725.5692368187177,368.94594206974267,590.7579726403927,jog
3.956594323873122,-1.2223975904765063,-0.2536862987878129,10.019911916758913,0.16998196827038956,0.23775298790974203,0.7033813882027952,675.0011700054569,388.3206689574059,686.9485480839616,jog
4.006677796327212,0.5534265548995532,0.11548120126663614,11.027375309287631,-0.42440876193999855,1.0152981988158831,0.3576649329694328,699.7089675689743,322.4032267581672,597.8425311035273,jog
4.056761268781302,1.728369370922246,1.1357612443402716,12.262835239230604,-0.6194429092034932,-0.21382413035111933,-0.6870791183964049,653.5563310950258,383.4095705115026,659.3644513781534,jog
4.106844741235393,1.894359326398513,1.1226095792707396,11.439564203050475,0.6750894625585414,-0.8218960381858155,0.27346147746798294,718.0309103828513,414.94803729317715,717.8859365425611,jog
4.156928213689483,1.0365887923996453,-0.163938279210191,10.161645536030978,0.7735886047220148,0.22008727701751074,0.3526697419028739,752.0760640095355,387.25742746185693,715.1094744990565,jog
4.207011686143573,-0.37383270532902574,-0.5002406222528027,8.550535963610674,-1.120052570906311,0.5856664461833188,0.8981661575312441,736.2506651228169,302.49832176800703,585.5454920255868,jog
4.257095158597663,-1.388483302196841,-1.15264649537106,7.7859352448183765,0.7741029742461492,0.8842687427941717,0.41483373487067177,742.4916198618466,391.840874657514,591.8760823481518,jog
4.307178631051753,-1.9001060647098853,-1.0345372225554832,8.237528890948338,0.2968055725007959,0.5843008976138803,0.3525956163549875,595.2404591584059,338.9993318941228,603.6989987465926,jog
4.357262103505843,-1.4290598946356785,-0.1789036701502409,9.793734959061071,-0.7198983888038422,-0.032899479930498576,-0.49675033075427105,737.5693006310352,374.4707426598628,606.0349302221971,jog
4.407345575959933,0.7240236099203159,0.4870438028531933,11.3997574077751,-0.15835749305878952,-0.26853133312841104,-0.34266582291679176,692.5422439453346,355.99424214966274,595.6175088597993,jog
4.457429048414023,1.1058557029508012,0.6101203958415946,12.251949872067337,-0.4649399154084049,-0.6673095790608036,-0.5720009849693265,670.9262095501213,400.1230547177379,593.0189645154992,jog
4.507512520868113,1.3292022989778491,1.1159377531250485,11.511205598025287,-2.088852743608311,1.1495162329720963,-0.8539050988458379,712.2014488170972,430.29347358887685,562.8880077657492,jog
4.557595993322204,1.1549838967462738,0.30320627349820234,10.673035420996914,-0.3732674225276098,0.9233823657714062,0.8107453811728675,668.3068652214941,349.56744299163574,580.2699166876939,jog
4.607679465776294,0.25007526064533186,-0.5165479149089817,8.04692074302805,-0.2639508035882221,-0.1472258436314582,0.3944672296733121,633.0568288251907,389.9706104990951,586.8465595247449,jog
4.657762938230384,-1.6106890845287736,-1.1651953670382384,7.5055157977769,-1.239456363255194,1.2389899404577658,-0.26313929419343945,739.792008122442,434.18305127749363,693.6924917844478,jog
4.707846410684474,-1.1091024455160485,-1.4700218704708103,8.114324103859468,0.9669570921514393,0.9390523031234438,0.26348736387888705,699.7166250776401,375.26642065979377,595.1261570021604,jog
4.757929883138565,-1.247746596245401,-0.5847199980540885,9.892119502928614,-1.1917453411171912,0.27593312072987186,-1.2568342936969414,723.901468413925,391.6303702613722,528.8344043297943,jog
4.808013355592655,0.5102013278398793,0.37413621173331907,11.520721108164738,-0.5944770192069931,0.6350494754340972,0.5155663527996796,580.4683382043982,365.40280926950527,724.3622079541657,jog
4.858096828046745,0.9833773669234299,0.9740192228914744,12.220108758489562,0.3811288157433707,-0.9277914742905001,-0.1732795472109987,685.8847391973122,409.72066058114314,628.4075707765978,jog
4.908180300500835,2.233298271355498,0.8909398781790143,10.912811969442172,0.7510326361732215,0.5130821672507689,-0.42714965511071984,637.722971930331,441.51367903313724,607.7352563252306,jog
4.958263772954925,1.4257670808009388,0.5739411814605413,10.326735989705421,0.19302845242349603,1.2670254662831413,-0.1468591440005038,673.0212775091456,344.6635206581908,625.3577475137905,jog
5.008347245409015,-0.4466754946859193,-0.4462695204796019,7.8829443036928275,-1.2501915621781794,-0.268491679770113,0.1390574824861321,705.380973960334,382.2692986528166,704.3401692434642,jog
5.058430717863105,-1.3274977794308405,-1.6885577346481608,7.92778631567447,-1.4717318932764307,0.3500401658843461,0.43880477792824646,642.2678943542112,436.1920116425978,611.0215736473266,jog
5.108514190317195,-1.5606580512967752,-1.010419969335751,8.607260438111181,-0.9876992171393568,0.025463009690275117,1.506631395569178,706.3903016845205,394.9464091952468,630.5281628581228,jog
5.158597662771285,-0.6309923577415202,0.020621304434506826,9.996899775618937,-0.2727084612503308,-0.45714209055534966,-0.7635278472101742,713.0757047153168,391.74290146060855,635.2778123815049,jog
5.208681135225376,0.33242148196227334,0.10735061208051483,11.128165860824124,0.8610852995383795,0.45886549073516064,-0.15009960367542458,671.4517658561061,364.212267294817,608.8615780736391,jog
5.258764607679466,1.480171076773708,1.040896478076699,12.197746786770969,-0.38773127776566657,0.16959424690714278,0.6193277065556547,669.791202437024,359.9575670305003,690.3615421141523,jog
5.308848080133556,1.9316555985889632,1.1549063618042639,11.626537205446706,-0.15499909274411947,-0.022381252174957587,-0.5904814203933694,746.6614778068125,366.1655962930045,612.87614382182,jog
5.358931552587646,1.1067611405199875,0.1413488120857668,10.030683675629055,-0.3187170949117861,1.3922075120838913,-0.5487239101458896,676.1807716968809,432.4098864607587,604.5707370151121,jog
5.409015025041736,-0.09980735144056636,-0.4661126716309857,8.408013437987995,0.6976125084090484,0.47452717309361364,-0.8646027877593447,739.66486291839,416.8004167279411,573.4287414296265,jog
5.459098497495827,-1.7342174365251284,-1.4481902900533292,7.878932295597913,-0.33497212080596717,-0.09233137593751152,-0.22876761468131832,668.0823731145349,371.73543120550045,592.5696682041053,jog
5.509181969949917,-1.7630098373492382,-1.3529918193790096,8.237402739899354,-1.2529523318197822,0.9218347281532654,0.07309120906292627,735.9446668264975,369.4105817576036,606.9988192918977,jog
5.559265442404007,-0.7390564129668082,-0.5007321879338219,9.882315156408287,-0.44126368709874386,-1.024103198210795,-0.9974395253560184,732.807132082129,418.6493657568103,587.1831132859561,jog
5.609348914858097,0.49319608418023836,0.5286716446741224,11.783372447133052,-0.9328820732368565,-0.5472971953639366,-0.572526960885902,764.0222608716223,406.1619150175665,562.2401235522368,jog
5.6594323873121875,1.8534132867763207,0.8244282924780519,12.361888287424641,-0.49943856962962224,-0.12124538845161345,0.8862090034297702,634.3757391971797,333.4551968293822,580.6350692178817,jog
5.709515859766277,2.0999397764599324,1.1674856234837356,11.442822559268372,-1.0323521565903027,-0.320958092859417,-0.801955328378812,703.4756973046278,393.3810363549271,622.7179183982579,jog
5.759599332220367,1.6101359651379599,0.41893816193640165,10.1030923077187,-0.16976236060422614,-0.8792936555575597,-0.04142738777346934,682.0895354504811,340.9859871499074,629.2933261810743,jog
5.809682804674457,-0.2191179937225825,-0.5200927529096827,8.233026812315384,1.1347160930119655,-0.07892269308538909,-0.9120890634117128,633.6125715389298,418.98370100607576,653.1771308744802,jog
5.859766277128548,-1.3112190516343913,-0.8503756118549783,7.208862330849535,0.3048196229225596,-0.21352176604788758,0.5985666941720167,698.6882096035301,454.96947176317474,652.3549187664593,jog
5.909849749582638,-1.5811023907365076,-0.6365048969583003,7.706937049679424,0.6303600152671606,-0.49463792892380276,-0.9166329907322976,720.2389816513598,391.22526204385304,575.7139365021934,jog
5.959933222036728,-1.344000984101678,-0.36107878482537564,9.295691211569345,-0.4291296606420406,-0.10882004042802632,-1.1806576570319256,667.1130827047648,434.57338363011615,495.5807498902564,jog
6.010016694490818,0.5216948114666453,0.30138524415308593,11.323338754563801,-0.4110085084754883,-1.2555178045883455,0.12409209936548664,642.7873898023272,419.5931304432902,571.902918781552,jog
6.060100166944908,1.7757833254763693,1.541899222206334,11.711078505905725,-0.16151539174464835,-0.7758907236948692,0.3364160482653002,667.8988422370468,405.3381389211106,561.291493772326,jog
6.110183639398999,1.8842052117402,1.439700524105218,11.681199234487098,-0.05320844756782917,0.8097328500961608,0.2879594658758352,696.7513027568028,330.7346886972313,679.3852088594114,jog
6.160267111853089,1.076272290153468,0.18329831878123343,9.740383780416208,-0.40201257067272356,-0.07953691406821106,0.05362005864975723,551.0685343585895,400.6196798438686,554.5809317877845,jog
6.210350584307179,-0.9454314380328644,-0.6533007525139705,8.107762084767684,-0.6030245333769277,-0.8315763980202739,0.5785662623652451,637.2475106601299,397.6544240583619,618.5260878792014,jog
6.260434056761269,-1.7199249166369832,-1.184537778557874,7.839641162311992,-0.650663086961268,-0.4973263110709448,0.1671865736282117,639.411576002533,399.8153721961869,687.5806712939453,jog
6.3105175292153595,-1.5614398515057617,-1.3248880334264133,8.947777439626254,0.28857092864729045,0.10402123861831918,1.5569635268570141,681.8344523463818,449.5814286117351,522.8190153102744,jog
6.360601001669449,-1.333418619933472,-0.4990499357492146,10.051665982263382,0.2919635576565642,0.4362947546892964,-0.5424132054526966,615.4384601602367,387.33007456263215,668.911077017603,jog
6.410684474123539,0.7697695619030932,0.3175695311742775,11.525258702253042,-0.642430361088209,-1.1454812216787174,-1.3433984674743704,653.1120107276712,343.6769070060188,581.8046241467757,jog
6.460767946577629,1.8556645881568925,1.336278705955563,12.392730400729137,0.7898912307038216,0.1833100512537729,-0.48552891670677545,671.6774923848853,420.85025136403306,645.5746817676851,jog
6.510851419031719,2.380245139373654,1.3775734570382245,11.501851339806393,0.18772716531203099,-1.0604722497447683,0.356547140606198,671.4878389595115,442.50580272362436,565.1522130017574,jog
6.56093489148581,1.353600113053904,0.44020745468083894,9.886480514455148,0.10964547054108768,-0.12964583285729617,-1.765246828878965,638.0416262104488,345.8505047357609,662.4630535428158,jog
6.6110183639399,-0.40092819892880366,-0.5978715063252917,8.62429325812958,-0.17636036342111214,-0.36601044904865043,0.7183021648766797,599.1408307383633,350.12743410149704,602.0078152633452,jog
6.66110183639399,-1.231718223114715,-1.205106548734725,8.173041494796248,-0.21551645074507314,0.5400826530264605,-0.7132053793983022,724.5150476865565,408.78926912248903,693.8428899717891,jog
6.71118530884808,-1.900795547462722,-1.056750008733486,8.204856529929705,-0.37408956333868204,0.4674509281983654,-0.20295339082973177,650.3728315436318,419.64239734816704,671.6497516729959,jog
6.761268781302171,-1.3564489784431308,-0.5812401187807472,9.694608986108735,0.1317556932655039,0.8356242233338173,-0.8564958981017327,737.5205256021553,402.9644568071983,576.7863137815541,jog
6.811352253756261,0.598262941851302,0.589282510326981,11.668765228075882,0.4160272770254755,-0.3917386291311222,0.3612767592858257,728.7495121085341,374.9042947748716,584.3600116110777,jog
6.861435726210351,1.632237467683572,1.279943313465507,12.259866797472647,-0.2634466422786806,0.08494143687263124,-0.6718143555773656,652.7136457226159,422.4638234379669,703.1385967656095,jog
6.911519198664441,1.8333637499726778,0.7889490769281782,11.16624058860851,0.012112362235886987,-1.2849512781845183,0.889608023677568,758.5644107716408,375.39105885533604,608.0502871322151,jog
6.961602671118531,1.2413509383612167,0.6306692448924862,9.959082386369172,0.4248398116740563,0.048185056954748694,0.0184859569456354,708.0529539108245,368.01701917965846,663.9122688648102,jog
7.011686143572621,-0.25649228652838835,-0.9263214996294136,8.38205870929718,0.656382581653529,-0.9630689190875302,-0.2384355622815454,743.3276344613984,404.8015378460543,670.3312589529761,jog
7.061769616026711,-1.493410507936615,-1.4173881029363733,7.252236764613992,-0.4422080250936566,-1.7193770490546645,-1.102383447212827,622.7677957681065,424.7303611077439,708.6885033920934,jog
7.111853088480801,-1.2249621815384764,-0.8775089830782026,7.827615043654136,-0.15380252032890165,-0.23385117972084601,-0.07321799886633579,695.9993754558698,365.1683965369143,643.5360184537748,jog
7.161936560934891,-0.8769299595558986,-0.3685209279994515,9.855443236906458,0.791181605780598,0.8523551050083008,0.4245824850184801,658.2483034229823,381.8069432799497,532.2309351748659,jog
7.212020033388982,0.2792347036331869,0.11509409676406007,11.465952944556593,0.48318377477966495,0.669941246854801,1.3755624152396637,735.7300657845109,300.2356059347188,614.8094273720224,jog
7.262103505843072,1.3986102548367176,1.1702748058448913,12.229531583148997,0.19184803888580496,-0.2903567392362162,0.15751823936248088,665.7852762915588,366.8417971613166,616.3662571776791,jog
7.312186978297162,1.944782432528927,0.8920429846532238,11.420473581532905,0.6191171681166034,0.485136555504314,0.5171242546707845,623.1720571064799,348.73780598385406,553.402566437831,jog
7.362270450751252,1.218282604317073,0.00233238223203025,9.993813883546766,0.9990821484381099,1.6541700650058098,0.7433004912737858,715.5182246196566,429.41795480119805,691.8255629706678,jog
7.412353923205343,-0.7954479450136706,-0.5411709680647283,8.651167009152008,-0.1886337715383667,0.021475883899439347,-0.5874399070501188,712.1388857733094,360.24393740492144,595.084580405497,jog
7.462437395659433,-1.2996627364369573,-1.4662805836873507,7.710535745306946,-0.3055079992954128,0.5726423796342106,-0.843532014937574,619.0757434890838,383.677820912382,710.8055699782747,jog
7.512520868113523,-1.7660572328554576,-1.0604395349482683,8.27463628122486,0.5270826483023384,0.804769764692473,0.7474487188657333,689.2185437405548,356.4688375063723,628.0823412471979,jog
7.562604340567613,-1.0244417504430572,-0.20715215065856873,10.186000820723036,-0.6230473072556103,-0.6923515631480387,-0.3067919530586298,692.0675743395623,333.6806497430694,620.8793493373278,jog
7.612687813021703,0.5515346741019846,0.3444774933843247,11.614019698535689,-0.21121845712636347,-0.6382060558400793,-0.09190468345461732,666.4227765362729,436.80622057145786,659.0946825754364,jog
7.6627712854757934,1.5385774075861636,0.4185078110746436,11.752492562487294,-0.4677011347857248,0.7455522352052317,0.22913391593363672,665.1768812827078,412.71894038170876,573.4282116937434,jog
7.712854757929883,1.7160053161252025,0.5266483854745445,11.304401970249288,1.0617876401601232,0.8814707441877611,-0.27702955147825536,692.4059641848987,325.4227224445417,631.8398686942708,jog
7.762938230383973,1.0417092374774115,0.44958305505316115,9.74697425415566,0.271266797966069,0.2879944937043411,1.2570900944521017,723.3056599505779,399.84324194551425,575.9455935263295,jog
7.813021702838063,-0.45093955509368006,-0.6268023240287963,8.414917042089137,0.3409329360352534,0.8476885440070246,-0.3002517777682152,738.9286871875566,345.99045162820164,542.3767994913312,jog
7.863105175292154,-1.6129190506266489,-1.495535722136819,7.593096476028891,0.3796810746742525,-1.1801068209304124,0.4605479559829199,664.061818710487,393.1042992027061,693.5381286939645,jog
7.913188647746244,-1.6270970632371302,-1.2242153638685371,8.175626972631026,0.38058690607430545,1.081559755589274,0.9931003528274782,703.4980661281804,335.64309656996323,634.2542908587118,jog
7.963272120200334,-0.714829741648955,-0.4692558858469511,9.614556176297068,0.008497137078309692,1.121085186210764,0.1524350137904955,732.5048792121187,383.4512207412333,655.8875800780513,jog
8.013355592654424,0.40731514213698417,0.5133077707666855,11.68481255227113,-1.5429718785129385,0.3293464903337628,0.3430930175480874,670.854066111881,415.73859436024736,565.1632211425472,jog
8.063439065108515,1.7450402713020527,1.5635843689241447,12.243607112295736,-0.5617245433619352,-0.5284368777720575,-1.5096718975075298,701.4573530432017,376.80629662979425,684.0938837976265,jog
8.113522537562604,1.51630996640125,1.3163370470119813,11.47118533275384,-0.0012106877735992398,1.4160906132443813,0.7484010544595854,722.780431716684,414.81552051302776,594.4430422081394,jog
8.163606010016695,0.7008142191810177,0.33381629126422285,9.674272373515345,0.5747389626307723,-0.5757586683322837,-0.08879433355670034,644.45806913519,384.15398834686613,628.8867929740807,jog
8.213689482470786,-0.4911008035664071,-0.7646114803694732,8.090224176195589,-0.37232823384588,-0.6112944240757558,-0.9803648916995708,713.670034858008,441.3764376180552,600.7898673917456,jog
8.263772954924875,-1.6969511303679408,-1.2202927984435146,8.091550777647905,1.0908518131975438,0.6917438847899594,-0.3276823620498096,645.2597535548175,354.15944287935054,655.1534732441079,jog
8.313856427378965,-1.7181325942331238,-1.1491859536183846,8.70322871898944,-1.0056113677578717,0.6790409294108938,1.1528619731096317,607.0985678720785,334.8543143848724,663.86513780371,jog
8.363939899833055,-0.9962971106091457,-0.5251331426853867,9.940934624636965,-1.1849912882278393,-0.0769496653515931,1.2116374531579366,690.8194569670455,354.6697460233349,696.1363825083208,jog
8.414023372287145,0.6516415166221909,0.27287767107348826,11.557483778991916,-0.7687918645534371,-0.6167155782572921,-0.19122025937513518,638.28275768222,369.6049516031643,676.3161959954273,jog
8.464106844741236,1.6851332075671401,1.173947341484896,12.247582082238752,-1.0650694649934447,0.713174533959141,0.569859702680661,719.5914721700017,420.16648508059836,657.1025815153246,jog
8.514190317195325,1.7119753546369936,0.7335302132383945,11.573026782430626,-0.7132226220018625,-2.2992173401995615,-0.8076163439352951,738.9739535520753,396.7928806096513,657.0672327575943,jog
8.564273789649416,1.1911896671303068,0.15044930189642994,9.894951241977115,0.8915584435481115,-0.6651791279575311,-0.10836418987350578,587.0450193734673,361.34652387720877,603.4658915900013,jog
8.614357262103505,-0.07099857091115909,-0.9797041058694536,8.335607204926628,-0.4632611181791889,-0.2573509132623736,-0.7836445389513034,707.3499837960904,459.27632127174377,598.4940503907538,jog
8.664440734557596,-1.5802900570673106,-1.2017485609544643,7.848496386876809,-0.06732244164127964,-1.7209843009540131,-0.8740929861296596,710.0387894981227,343.8164120997555,663.040823429688,jog
8.714524207011687,-1.7428385705209886,-1.2422174836109527,8.219584072128384,0.24134150636255933,0.39319787226308345,-1.0231409473092026,649.8351700539705,446.91248331156373,586.1785940665043,jog
8.764607679465776,-0.9798876920409342,-0.732551811632574,9.907718393694488,-0.4651805421958601,0.1282311578168975,-0.6126869072022483,739.9582717572846,413.1549732340594,586.2841409667183,jog
8.814691151919867,0.44231794678493525,0.12525235020912784,11.603661801687677,-0.09181471528141479,0.8474621572198234,-1.1411603412777862,712.5054830129524,398.50162612059273,595.5621099378025,jog
8.864774624373958,1.1886380592320214,1.485550411759508,12.097833048373138,1.2760818624589878,-0.24741543394559365,0.08688589571026029,689.9652970602945,394.41933332263534,617.699638888379,jog
8.914858096828047,1.8023649117380982,1.5657165657851113,11.230920624042792,-0.012385313608249782,-0.048854908067756025,0.4278887262072206,688.1694835699428,422.0828481011469,564.1695666721467,jog
8.964941569282137,1.0478298379722115,0.29981398197734166,9.729294038099765,-0.11686286954349256,0.12614173651879346,-0.36993582592193797,698.6484836128541,365.29099687093657,599.6773190797402,jog
9.015025041736227,-0.3769483647207262,-0.7176552353393015,8.098787949318751,0.1116555516655675,-0.26374127358137517,1.3270665823554684,613.7246242569169,413.96358020477186,664.0430940647332,jog
9.065108514190317,-1.384146672574626,-0.5410866422131433,7.926767880482186,-1.077854530869488,0.5041764259388406,-0.9116457162091546,706.1708245400765,363.6569795877143,670.3853542161005,jog
9.115191986644408,-1.8466932766517048,-1.5093062917866293,8.077923694147957,-0.16394893500848476,0.1375833740205997,-0.16849584728789313,680.1561430083765,386.19986583673375,674.0257137536213,jog
9.165275459098497,-0.8683450431255552,-0.2779111538463649,10.154001786335119,-0.8033430917734965,-0.8147940246080693,-0.11174177514333287,629.9391554398343,367.647602353194,596.9953394438971,jog
9.215358931552588,0.2782113889186537,0.5160705848281959,11.939299552747485,-0.7224096391338334,-0.2218533526010518,0.9034042605395529,620.2205090128268,345.06486401998364,615.3762087935409,jog
9.265442404006677,1.7364421524940914,1.3509219949621827,11.70224989151086,0.36157202511554803,-0.5177195193984676,1.1454826037743175,686.2752292778514,445.79901728304515,623.6213783736583,jog
9.315525876460768,1.9355641107074415,0.8630118244920297,11.39011046940329,0.6151219080847278,-1.0750108926126134,-0.6296146973240481,644.9381746719724,376.4128400204259,556.6964299087966,jog
9.365609348914859,1.1118488672656683,-0.18929173270306793,9.842612421854136,-0.313181772427486,-0.44189539608446576,0.2153840154643744,684.8510327562227,363.3796330834415,643.8298606136049,jog
9.415692821368948,-0.21117086799810153,-0.4979415803707375,8.069603538321727,-0.5823491991064556,-0.7391482587163611,-0.7912305897549742,702.5867044909322,381.7332117671764,638.5798282591825,jog
9.465776293823039,-1.7688459569925084,-0.8269579352924608,7.890194113641976,0.0041119184787433045,0.09860841569375682,0.21863316507686115,686.3940957419927,375.8558343509466,573.005590096377,jog
9.51585976627713,-1.842937963044991,-1.1519143012717312,8.208134542046578,-0.39472494886618587,0.12310428239083615,0.19096696223401738,737.9195835558121,341.20394289968294,555.8890027730398,jog
9.565943238731219,-1.086611464111745,-0.16786623372509768,9.620674066820959,0.11974593345161563,0.11620177501691925,-0.8388731037426342,682.0884450751398,397.3076233561063,607.6998976123725,jog
9.61602671118531,0.4909595404641684,0.7434695843716619,11.388996158095678,-0.394480472509981,0.5200343708360119,-1.2579971730980615,686.8321013425325,479.4622647365105,622.2893604356024,jog
9.666110183639399,1.6123411239586467,1.1361893537890533,12.523964107623675,-1.2937521168698805,0.15840490633190044,0.29870184415877343,675.7882203675035,455.1531911324781,664.6254172821276,jog
9.71619365609349,1.827440305318974,0.7672708281226817,11.44509687065756,-0.05538496049615739,-0.6144317416963994,0.06838700055862111,720.9883806516712,379.51909477238127,592.6016602017874,jog
9.76627712854758,0.49224539676792034,0.29394222842471174,9.324238372247526,0.6999481877109054,1.3573772543622693,0.7767555242787976,763.8904460632344,367.8757951680598,553.2083671513767,jog
9.81636060100167,-0.3707889441470559,-0.7829998934096691,8.615912167285016,-0.69380162201859,0.4094398865967036,0.21022496578111524,730.4768149611297,376.6615734102203,690.0907858347056,jog
9.86644407345576,-1.6260650793622875,-1.2055257385350397,7.502186384677777,-0.7841232220030112,0.00587182316950893,-0.7099654871464871,684.5753908106382,388.1290608020295,648.2701951272433,jog
9.91652754590985,-2.0429982143180396,-0.9861935682641625,8.5864723501669,0.6377159816254786,-1.081611293820047,-0.024019351423273005,751.3921898695107,335.4491092856948,654.5969204313353,jog
9.96661101836394,-0.5285527810245023,-0.1946403260122693,10.114104576155444,1.2319249751347603,0.7091547207501803,-0.2169058776139694,614.15877375401,300.7528366492649,560.7634247441556,jog
10.01669449081803,0.5895933589835693,0.17888064683667165,11.574533244942657,-0.08624458502862258,-0.7797787451679705,-1.0126974741976513,662.5667814797222,374.1957584711903,562.3727532208243,jog
10.06677796327212,1.6648199732488738,1.1178512897421704,12.229157192957844,1.0648199700336562,0.22322506305730186,-0.35418468267509934,663.7447316831068,409.46143127762366,616.2339360893081,jog
10.11686143572621,1.72328304285466,0.5474060921656443,11.032096658249257,0.12256796210831188,0.34541227698213334,-0.6012393118814142,659.893954629355,359.1090871618718,650.1059083594287,jog
10.1669449081803,0.9036337009690364,0.24794775375895517,10.344920327935581,0.21847010874862308,0.13789443954533137,0.7257691959321885,645.1415674611592,389.41146618195455,528.3057138771599,jog
10.21702838063439,-0.5311102939714011,-0.7275763800207264,8.320014109601633,-1.5534563412627955,-0.03475801485921242,-0.8736639111325348,712.9973526709076,429.693104910081,643.6204115013649,jog
10.267111853088482,-1.2529771248636838,-1.1968581862711296,7.709906498384182,0.28051328195492237,0.10179121796935492,1.6376292927052818,634.6322789687939,390.68813285006047,660.5929218503408,jog
10.31719532554257,-1.1890352481107447,-1.511239489502749,8.44563761046978,-0.3616952585640459,0.10012168880785133,0.27814919711182146,707.7974137237488,383.2684992708391,586.1422980505006,jog
10.367278797996661,-0.906112537880354,0.09412170017618576,10.497597618608198,0.76966283474571,-0.7482882900908835,-1.5912781026790268,763.533151855661,376.55626889316454,656.6845118599035,jog
10.417362270450752,0.6786911296698078,0.20418415662150446,11.502343130224867,0.4386369510337997,-0.731927262942763,0.5114388878599229,625.4322861708137,380.26391154770255,661.9973631415746,jog
10.467445742904841,1.8662441836960606,1.058006443219039,12.05953346760853,0.8912314987097304,-0.1313103367227344,0.1136617093900666,621.3113733757687,382.3296627469676,669.8762117523515,jog
10.517529215358932,1.828201918821601,1.0496104108205258,11.42044968993925,0.05465170777461737,-0.5740155231203293,-0.7298539989278027,756.7311714960757,401.3055323436505,699.8546535362918,jog
10.567612687813021,0.9737781105115743,0.30708426946134615,9.95616349505486,-0.19558244738990696,-0.2962268780727413,0.07719917771177694,693.2639762365462,410.39490389848027,570.9913024753821,jog
10.617696160267112,-0.5035608038130241,-0.8025580270473696,8.512595769995768,-0.9877808597796576,-0.07253000060172793,1.0066607687271643,682.2581942145008,396.98344962840264,587.5941239383546,jog
10.667779632721203,-1.9760509728707918,-1.2110904658785184,7.819256967689713,1.2293579456616595,0.85235327809509,-0.3729546112924178,685.2890649276768,349.55451060221367,657.9024156598648,jog
10.717863105175292,-1.706439438416269,-0.9949858514642353,8.356914652259677,-0.8292523215573115,-0.3401033009559475,1.0512699944385993,689.204145512149,293.1978294658305,640.4809208464541,jog
10.767946577629383,-0.7856679045818933,-0.32732366333347424,9.913995144380335,-1.9372323274887042,-0.6571824587775549,0.843496243865197,683.7747880494142,466.7033952703033,652.4953406529809,jog
10.818030050083472,0.49403606816628803,0.9608680042455071,11.269460119602249,-0.5519031010521219,0.6896710604131534,-1.2033947887675018,719.4551250631021,370.48677247443965,585.1290445686866,jog
10.868113522537563,2.071496525002454,1.511217764775059,12.265879727658605,0.14786363226385668,-0.3582619380629578,-0.013710567148939519,618.8806972024674,454.24482074667515,623.1894756168914,jog
10.918196994991654,2.119357399338862,1.0461210121200335,11.591783753451727,0.187115599709633,-0.5888959726771831,0.08834200024588065,661.7677850976074,386.5698680803781,624.6323334456113,jog
10.968280467445743,0.9401704869162003,0.33614212889631023,9.44309985267466,-0.2442962162798791,-0.7708755649170304,-0.2372882256377707,649.2774083600871,390.61829003922867,595.6823406948251,jog
11.018363939899833,-0.06683069110529445,-0.6274074413956645,7.891536819334495,-0.3428745469782301,-0.3640334137088936,-0.26479459240326575,582.9133063346534,400.2911046349299,681.1350562243015,jog
11.068447412353924,-1.4464212869245152,-0.924528548168001,7.797887057528009,0.15233341112121068,0.6950196476892556,0.6448217559226944,683.5709182273235,346.3721981003651,604.6515424327208,jog
11.118530884808013,-1.622872376639002,-0.8764423619722077,8.635872302606618,-0.7638376965487063,2.002658089615098,0.6768782704454849,619.6380245391534,384.34548452642025,668.2225036060212,jog
11.168614357262104,-0.8657055782613453,-0.445966473357619,10.218931901294852,-0.7417202429388123,0.1540206694461211,-1.198210019211822,690.2471464576279,393.5956920285547,608.6930425512093,jog
11.218697829716193,0.8010239434679566,0.28883820652525266,11.743277968347167,-0.8173945183351652,-1.043003777874878,0.29095148173132407,653.9248522357067,371.26638440159155,613.7693352810446,jog
11.268781302170284,1.6245120439746816,1.0799168949228972,12.033907885964643,-0.7468759018131178,-0.005713753428860753,-0.3258140997158649,606.6898772343995,347.885020762854,675.9380958731508,jog
11.318864774624375,1.494682138598242,0.9843340172838257,11.4645645787097,0.3934729817715512,0.12979826553268384,-0.014546270788870113,592.0830733298255,460.9501355485405,601.0709668337031,jog
11.368948247078464,0.9713835056024268,0.0032185413714262145,9.885332585839862,0.18002968799097455,-0.12530755101970595,-0.31051262261463497,609.0878424658813,434.885129369324,672.9207695007033,jog
11.419031719532555,-0.10040385589044722,-0.8837485354816332,8.677761113273894,1.6290470145107405,0.29053874862477097,-0.776959473999594,674.8882829149974,408.0425270384882,722.3280398952329,jog
11.469115191986644,-1.7447460758890638,-1.2610595469994683,7.9202230913012235,0.8514335001428164,1.0382845315801494,-0.905743613118,729.0190121092179,376.6563215453698,577.2492398042752,jog
11.519198664440735,-1.477693651041628,-0.9332674515969825,8.499902658836023,0.044485257025591814,-0.07646677371915186,0.02497835941656838,636.6651909597757,446.56081877601287,627.2453310832685,jog
11.569282136894826,-0.6591856457901519,-0.46471492231219214,10.29102319238435,-1.0384465132760035,-0.30226559924037844,-0.4644502320471948,719.9871856370406,536.1923849642528,585.6993616743769,jog
11.619365609348915,0.42680838022578277,0.6926942344613891,12.032268826816384,1.0897425314956612,0.9654839149059192,-0.0050722278317759965,655.7619458225909,400.65743898198787,548.0028184014594,jog
11.669449081803005,1.9011382846662992,1.0940767928650958,11.742214460925805,-0.2767061635074706,-1.2944053826212876,-1.4235371501556466,694.7937882454697,332.9248409592508,593.3013063607898,jog
11.719532554257096,1.445334324022309,0.6310258113006959,10.905479697284344,-0.3025102889051958,0.33047273295009727,-0.26202757979703306,664.9043714061985,422.45666743997174,607.211548347225,jog
11.769616026711185,1.2108960200605907,-0.4918078785424052,9.758194466740349,-0.1396211693334076,-0.3582890211527667,0.7903775143487213,669.8320082740679,328.3675309610297,558.2530888590991,jog
11.819699499165276,-0.2844704792307555,-0.7561040239298689,8.256960762461741,-0.9931344468396414,0.31522915503575183,-0.3170892737240508,637.9762063670942,364.1858422343907,581.912831239312,jog
11.869782971619365,-1.3559864949065026,-1.2793555157460188,7.865099179412441,-0.7941345798750803,0.025729940826741363,-0.1837835258250033,694.9039860483713,369.00850252624633,613.3970802128691,jog
11.919866444073456,-1.3497649159543732,-0.9163763122586073,8.621311897979428,0.7465345921307829,-0.6377023675628699,-1.360082443792038,644.9294703451314,325.05207941160523,612.8685299015068,jog
11.969949916527547,-0.6675318377605611,-0.3174797970773456,10.02845200956948,-0.6774695270211745,0.23536547358120535,0.4647542250864198,621.9889403566635,365.32883986098113,557.7948151498132,jog
12.020033388981636,0.5041745749424896,0.793576255125592,11.721171341258033,0.8059284843161324,0.06325563138601012,0.4134578522001695,724.6792962608248,368.3680205822524,527.0131851055215,jog
12.070116861435727,1.9783537670834446,0.8515066145707859,12.515616212549968,0.4059159233326187,-0.11062988316111198,-0.49922261119616324,637.8880892926911,369.75584647784876,588.6820627270674,jog
12.120200333889816,2.1665342574087685,0.3942556304231802,11.028820079584426,-1.367422955374412,1.311335000111928,0.46397506756663925,689.0226048482393,423.31495364520816,636.8895392213466,jog
12.170283806343907,0.3466219670228728,0.45837476211342737,9.606753765954688,-0.06490393189278196,-0.08223679439904737,-0.25393222848465463,759.8592725032526,401.9618299749716,607.9188371764925,jog
12.220367278797998,-0.712568004100497,-0.5281768389962561,7.889408168009779,-0.36654475734746195,0.02932932086838661,-0.1569251597900237,772.7920137262042,355.7184601860952,638.5009360776468,jog
12.270450751252087,-1.3881417125159135,-1.6115875871971015,7.693643678726037,-0.3541448765878032,-0.6703687436255553,-0.7979364292944741,613.1687187983086,381.66256557729764,643.1156647858223,jog
12.320534223706177,-1.7024934031183698,-1.0998391705052792,8.527441913308474,0.3982477022806657,0.4351851486884823,-0.8656823537648954,688.586933946775,308.74247501318774,606.4609056574064,jog
12.370617696160267,-0.6443612127642536,-0.3486707231868942,10.335143227436383,-1.4190706920569458,0.31578185438878487,0.32233755246425616,655.8989293825085,409.8066419268537,648.4508379506401,jog
12.420701168614357,0.5395513067278406,0.47791165258399454,11.601273910696955,0.3523770939779338,-0.2627994617078692,-0.05671848748065033,626.7769680942234,378.0877204748745,625.0748067577786,jog
12.470784641068448,1.7222946953837115,0.5903959870131854,12.273017806919514,-0.823964274720385,-0.5388300446232345,-0.32572287608051254,591.1689612959801,444.4855356403699,628.7455579892054,jog
12.520868113522537,1.8327616051904108,0.7640095667553273,11.025082004353319,0.5344124483254945,-0.8512719331838822,0.24240566481331433,726.6806695969453,327.67718901438496,657.090852671765,jog
12.570951585976628,0.1850886276212495,0.45222465574516885,9.72755332546097,-0.539932841038265,-1.1914045278067755,-0.4586610836858225,629.443724740337,417.0691827309682,614.3585548806846,jog
12.621035058430719,-0.6757980181903792,-1.1808592666407423,8.263444971053742,-0.45084353345998235,-0.8914355894829236,-0.6029572815639346,675.0054980198446,430.52174917081373,651.7525653769889,jog
12.671118530884808,-1.281233162345481,-1.4295374753834171,7.790560216123577,0.19320068034267618,0.7133943671864486,0.7374109146157393,620.5296858709406,379.33561917961,603.383693054101,jog
12.721202003338899,-1.439553299787822,-0.7978374432925723,8.704127899148727,-1.1004471412828507,0.7422136620372211,-0.19993711031991648,696.064128549025,365.25292230339187,630.6683494863902,jog
12.771285475792988,-1.1161153137461721,-0.03409765543995183,10.383192574013565,0.5901546842180663,0.7036960969970311,-0.6460824887245751,710.431999711028,355.4933679829504,628.3075694458378,jog
12.821368948247079,0.8577278428225646,0.41656693713338216,11.594518503128553,-0.5108936914468211,0.4327615232998359,0.44965934651652084,706.3815668932233,385.29120452639546,649.3926925493099,jog
12.87145242070117,1.443735533816059,1.0980581684462563,12.470706979018056,-0.3485439183867285,-0.452484976623191,-0.4709391350023954,694.4444767969917,357.42126111303287,662.9530235805868,jog
12.921535893155259,2.1267961319335393,0.9057781963873313,10.989528160194073,0.9177256744278853,-0.6821892754529811,0.3893861015232175,659.1517761757867,331.1901129361322,701.2096402541009,jog
12.97161936560935,0.6795669462485586,0.29524322167538203,9.833821518005603,-0.9179594492935188,-0.3078376535098509,0.18651226007720814,638.5744587905397,388.7722074563794,681.1778850820208,jog
13.021702838063439,-1.035067647815966,-0.8023357818680843,8.120827465108988,0.20260608796359394,1.3514141745922443,0.1931427275771498,649.6438383210609,368.9724886909225,685.991282354249,jog
13.07178631051753,-1.326400980114193,-1.6833738854904863,8.084905557386273,-0.2364091608233331,-0.4010589361794452,-0.7573223459712297,713.7541827321787,426.6569931862803,656.3150939755544,jog
13.12186978297162,-1.6995533840358132,-1.488952035846206,8.39628557819898,1.1626543217033134,0.5415507938159808,-0.35130350409343253,641.6700091849641,364.9330724249979,652.3069453635558,jog
13.17195325542571,-1.075926966944086,-0.2280884428137977,10.3381124971663,-0.5229189586086368,-0.3339674030583737,-1.159363242796343,629.2872431234141,326.5537964593729,580.2856183754989,jog
13.2220367278798,0.528000088859582,0.1345671566169136,11.679367406611155,-0.39799603817315343,-0.4603086175912672,0.2301016683394166,682.443218288602,383.9754342838178,616.8753925846918,jog
13.272120200333891,1.5111733751394922,1.3154706546276085,12.262868038155494,-0.19852103719147243,-0.6117859209668921,0.012111120981828694,644.766117384698,356.0551806459765,589.8555506412742,jog
13.32220367278798,2.3273743711657886,0.829930794419097,10.966289528480452,-0.7262605149330005,-0.7743337982454361,1.060788125598412,663.5931031833925,387.2507592213337,645.4371608241067,jog
13.37228714524207,0.9736732287678798,0.06452197967556575,9.837296769032829,-0.09815618522732758,-1.2141865464430845,0.6314173394898408,681.1524092252982,467.0700391939007,612.5625198626219,jog
13.42237061769616,-0.6457718159628383,-0.47888753734884243,8.044309302668088,-0.1128972082058329,0.6391153200985779,-0.3187870804324192,580.7501024984264,450.8382265054347,607.2684464461373,jog
13.47245409015025,-1.8069625803583846,-1.1238365207536734,7.71375789019365,-0.3829305686051199,0.2123002108177118,-0.48395847768961797,676.4173318967613,398.64092283224824,570.3205228524589,jog
13.522537562604342,-1.3551288309346161,-0.786128794914571,8.17911960683646,0.667937766737039,0.9429692650149737,0.1751796473289548,552.3435747797146,400.8367017457505,681.3040706184922,jog
13.57262103505843,-0.5234793668201924,-0.5233310641802449,10.200791293010939,-0.3634794486990702,0.8948071613883152,-0.09025481800794628,710.7862605503035,400.85177337636327,607.4737584699736,jog
13.622704507512521,0.6016472780630265,0.5666003097259851,11.55903598778855,1.6540963790554237,0.012517847439048447,-0.4099122333938966,629.173725124761,387.0681815958666,580.6785572146781,jog
13.67278797996661,2.0388258499453324,0.9425383284770017,12.068980778889102,1.2008720713216674,0.18390426658029654,0.004700097221119561,717.3138583941321,319.7263469502389,670.694903618842,jog
13.722871452420701,2.0217190598030816,1.6619999026029166,11.336320077890534,-0.27642125195439826,-1.4963324447822017,-0.03565992157535935,652.8677697453008,355.0505118471337,638.7792145079088,jog
13.772954924874792,0.7430134476609317,-0.07817888672479556,9.835721181982334,0.08820393769179002,0.9539498379457472,0.5467591306096362,724.6487749370004,372.2895333343184,621.0981680835176,jog
13.823038397328881,-0.3864653027434254,-0.8314494846235407,7.872278429151825,-0.8628686652482565,-0.35962950888530204,-0.5518589249104198,663.7698846593706,354.5956848147653,643.3928616548529,jog
13.873121869782972,-1.7496973415686816,-1.7318266583155097,7.954331890226605,-0.6386754805589896,-0.6619003325970872,-0.00891163843541053,703.2370616821414,384.6341749834639,651.0984746818563,jog
13.923205342237061,-1.6696988383403728,-0.7807860553193549,8.465137507596587,-0.843932676363458,0.07154347038017209,0.30839842595958966,724.3587146599905,364.7299230211141,615.3907361684412,jog
13.973288814691152,-0.547656704221276,-0.11098285648815052,10.027810904618612,0.23821958805628865,-0.708500214462705,-0.9156117294001681,693.5638773403721,305.0344985716287,646.5845745900479,jog
14.023372287145243,0.7011036351959269,0.46781308374187897,11.367785994368617,0.18215777671316247,0.5343389085505248,-0.6718494083916042,631.4141735420144,402.70868980394476,644.3715162353349,jog
14.073455759599332,1.6042244559243017,1.3119279394575276,12.067806196543739,0.01755989311170386,1.6434941896283823,-0.07271084758584197,678.126038839082,448.25799577451903,499.37098012869177,jog
14.123539232053423,1.7834872315060588,0.3361605536407311,11.04584118491122,-0.029171637219355416,0.12929185712959804,-0.43156161688180494,657.5412314933541,391.0934980113792,660.0092864476084,jog
14.173622704507514,0.8314532064717924,0.24591007730634779,9.402834318143329,0.12157521487848441,1.0098835439682434,0.1521004582416327,632.2081362136012,420.26185759430814,595.1688773550318,jog
14.223706176961603,-0.8546098154034049,-0.773218333462347,7.575746935011824,1.0139948330065602,-0.14533403823317118,1.7409338079103134,704.5438809758267,342.52579985351593,576.0212734333571,jog
14.273789649415694,-1.361699331282351,-1.4466914205372936,7.800591760866134,0.27339982842379723,1.7245170876250366,1.6682157298604787,715.5722185897247,458.95413765151034,625.8246087914854,jog
14.323873121869783,-1.5234728165952944,-0.637077715723849,8.606745086199071,-0.4036173686257761,1.0665492608264486,-0.1124539792815403,758.4719417131664,398.886301980422,591.0391910682627,jog
14.373956594323873,-0.8511207771070929,0.15882733930254944,10.601739722511956,0.2871431572597017,1.2158234904898526,0.16710797892548057,677.2932655429843,383.92854864450686,627.8391632819923,jog
14.424040066777964,0.9495443808634417,0.5916030595450654,12.020561691259738,0.1737754830353281,-0.7001965698243703,1.14611840573789,635.5068960259365,361.23390621014784,649.3581184101425,jog
14.474123539232053,1.7502933866234174,1.070345409039657,12.261684270802167,-0.6809678217264057,0.1042798490204104,0.3568858038096361,670.0392766528361,462.05534832909484,638.1999753502707,jog
14.524207011686144,1.9824880655166819,0.1774690672205544,11.027850581227371,-0.8997343513281695,-0.547736967132715,-0.8734270191102135,675.1582463566292,384.855552626484,621.168086752734,jog
14.574290484140233,0.5599794852768581,0.015557420181492032,9.487644588395801,-0.25109453041488267,1.2447158868356776,0.8394170465272587,658.5465358172135,285.51738488157906,544.371838966124,jog
14.624373956594324,-0.5314193245603013,-0.43237716723537134,8.195664173339079,0.5932539386692433,0.6229224361416454,0.9383482740880089,721.4107715610743,338.5842274704609,624.5851509362852,jog
14.674457429048415,-1.665777922444645,-1.2007788616936932,7.610392539326919,0.30348653784835183,0.19306129418545556,0.21922141092367026,748.1875207797755,378.27882638937524,579.7522711465599,jog
14.724540901502504,-1.2347379095282478,-1.0459041781473506,9.032838747266164,0.6696622962720715,0.44442586443327936,0.013999264170397619,660.3426449179701,383.01030162515474,609.5413752035292,jog
14.774624373956595,-0.7959641324626571,-0.20019497796436833,10.983929378383548,0.548635877537274,-0.971256751173686,-0.7231349013726397,657.4460667000582,411.14531377081585,582.7709528277211,jog
14.824707846410686,0.4097617142793816,0.6296703791304252,11.818356547049998,-0.18933866728424206,-0.1068961411908612,0.8469438839536765,641.650208774011,377.6386308599214,653.0688705556096,jog
14.874791318864775,2.057912236434654,1.288147739012204,11.853469040403407,0.9389228499087775,0.4431903454473477,-0.10345605350277938,656.3342683149941,320.5462418129863,628.4280523090678,jog
14.924874791318866,1.815729506039583,0.8827648244341249,10.99023788855367,-0.4243233384802787,-0.3343366136271395,0.5133602683787017,659.529206230818,451.8954809756568,686.3045288948479,jog
14.974958263772955,0.730679709941925,-0.07237863486926611,9.383154921144149,-0.3134350694464792,0.5901629900853034,0.009240291912432416,653.6651322126684,343.2531645277032,611.4584525184624,jog
15.025041736227045,-0.9438664365871766,-0.5743852960146867,8.219924326255681,0.8824453678356424,-0.3631675179433679,1.1635913518081622,747.3256799955062,441.2297570990179,630.7608491974933,jog
15.075125208681136,-1.0951261975270712,-1.3178920249757407,7.852150092626466,0.3162243812490204,-0.9790554464087602,-0.5776647256698739,727.0593988561495,362.47424859461717,622.9065618753506,jog
15.125208681135225,-1.2521362953643445,-1.3973197480119592,8.380320955474241,0.3005628645514931,1.3735269793599583,-0.818063702905071,667.9878517396309,366.0398377361431,545.4593862515802,jog
15.175292153589316,-0.349500667289595,0.014170666144542557,10.278255631311854,-0.10016275949094074,0.5822529256254905,0.28481938834344567,659.6667393172206,391.11550826061233,552.1709759180972,jog
15.225375626043405,0.7487006230889595,0.4884719434589578,11.83886006570376,0.2372950508604575,-0.21128407165501467,1.2847927806672013,662.9699676098043,419.9856315338783,604.9574111409247,jog
15.275459098497496,1.8022701128680112,1.1961945810713377,12.339806923564694,0.7120834696304514,-1.306125707371563,1.0757484564888198,732.4562008544955,416.5236051427347,607.6933957838627,jog
15.325542570951587,1.985444316722027,0.9884789220284758,10.851135707476592,-0.29030330711955044,-0.10708295901215191,-0.5960176377182539,701.8414915915564,295.6458862483088,568.7471420573354,jog
15.375626043405676,0.5684788732099463,0.47940830977348153,9.280266199001728,1.547097112631299,-0.8573061644980642,-0.3234609811570399,828.7731037327737,408.32939515732687,628.7951138149286,jog
15.425709515859767,-0.5855151238848313,-0.5621106665023441,8.087140549227207,1.5428616081436572,0.4426813483989061,-0.40893774499975716,695.6227921121134,417.18900662716356,683.6093657591089,jog
15.475792988313858,-1.779894614173877,-1.1391891528451548,7.724684037956446,-0.1969890089178339,1.059275392265526,0.35404992304445737,726.9574989606788,370.1951441751422,602.2256817927627,jog
15.525876460767947,-1.458690903992649,-0.7597047727542645,9.052456100035203,0.5639385399464356,1.589756181967031,0.03219547782475332,641.6448485948786,336.629070073546,629.2863673899589,jog
15.575959933222038,-0.609287546549236,-0.487124869003001,10.334663390998568,-0.8925150515787567,-1.1140524958378986,-0.20480516368435742,638.5846893262633,362.32457517491287,635.7305762579992,jog
15.626043405676127,0.5391079257502065,0.7837459045432935,11.667287320259724,-0.4039349494533091,0.3707128468578954,0.5491566569047993,771.3931909822702,420.52256242067887,645.7429760428826,jog
15.676126878130217,1.8620670980758733,1.0361624481737999,11.933367217902594,-0.07790903729033444,-1.159830531863068,0.5469516407235827,703.2386938946372,301.98115046811677,633.1640883207959,jog
15.726210350584308,1.5511031126144503,0.7858562293951119,11.306533161371469,1.1326107114174662,-0.14012456292750083,-0.9761029414492786,659.178502100072,363.5390456920438,582.7360299387622,jog
15.776293823038397,0.8511054385116767,-0.49810295773722174,9.441628215266924,-0.7663890708481729,0.26506324528191677,-0.17444516948212724,625.7031005376076,350.1730023967879,572.540845218452,jog
15.826377295492488,-0.545493650089039,-0.815055889535736,8.014169490597233,-0.07257719206318955,-1.215723464541492,-0.5232116168220121,678.9189179947334,348.6417962157281,634.6570280757393,jog
15.876460767946577,-1.7419463848789138,-1.2425237293366815,7.767382548151938,1.1386602100867822,0.9247306394467495,0.8140688822536928,683.9375608932227,366.9353669597664,562.8818295565555,jog
15.926544240400668,-1.7414806443415,-1.19687190134495,9.198728715039834,-0.15255630683973387,0.07269876442828527,1.5185354233242887,648.1516797679669,433.95347581900046,693.9570341218758,jog
15.976627712854759,-0.7406994548847183,-0.3584812104390754,10.154179656240471,-0.3668039138541515,-0.657811860563965,0.0553427180902607,661.4546517713394,382.2993929769019,622.5870685187807,jog
16.026711185308848,0.9950638546441636,0.599717859519542,11.817603966536954,1.0894314466178032,-1.4046465381473694,1.2536907423132595,685.1644365763584,348.7819949870671,643.9277097744987,jog
16.07679465776294,1.92463938233668,1.0720566615264344,11.620932905103205,1.1440782813895893,-1.1557489799507665,1.4370047102360806,708.4014818124107,425.6463729887852,668.6462166880866,jog
16.12687813021703,1.4840419825272924,0.7400194003544178,10.62091153282966,1.293723776297569,0.7803357151465456,0.6673366797700448,706.3963171733907,438.409196437216,577.1401682732263,jog
16.17696160267112,0.7528731400747655,-0.07994764681780515,9.596740044994455,-0.8642191018875147,1.3894858191765775,0.7492816533743561,688.4002471712525,340.950796183539,636.4501353709251,jog
16.227045075125208,-0.450707906319696,-0.48917616095595495,7.73341530090984,0.7020983363164629,-0.929964549593737,-0.7964288892643312,707.5549750401894,468.8531239421367,607.6254262336921,jog
16.2771285475793,-1.4079613966605224,-1.2548585080205394,7.712571511968963,-0.7606401987197264,0.17709207107671068,0.1740497027489846,656.9245054352099,431.6853369489654,662.0565411237453,jog
16.32721202003339,-1.5265327891838676,-1.240871492799031,8.345927553305161,-0.00306154279994017,0.8529713036014819,-0.4625931181193598,689.032196181952,359.0122062446827,538.7504391576647,jog
16.37729549248748,-0.9519623217395136,-0.04238759047218907,10.470664920625483,0.682233214129188,0.44903477095759387,0.2174870263961129,656.7501999291875,323.26457142890257,617.5195479865185,jog
16.42737896494157,1.0165513041322678,0.8595755677350911,11.80222467027915,-0.02464663734307021,-0.8209905578135042,0.855884097992504,656.9430092020809,327.55913832792027,566.8884702944756,jog
16.47746243739566,1.4874720520841729,1.0157477767377392,12.066810944999926,-0.20772715936744712,-0.5966993765674308,-0.17200382723026222,652.0274856743996,413.6558458949806,721.6793775710037,jog
16.52754590984975,1.837437361605392,0.7073295668272939,10.712016785311489,-0.8766143783214763,0.19807181743084792,-1.3368100985688196,639.252441824348,428.99470583096496,568.2066686510693,jog
16.57762938230384,0.6795557249014867,-0.23716074255176797,9.719175839488805,-0.7851366227066764,-0.08497910473450687,-0.8023158859596954,744.4136315335701,380.7673376566554,605.4637353299637,jog
16.62771285475793,-0.6292653046362727,-1.2009789191789408,7.8454355793496635,-0.9932160141285534,0.2201868005435058,-0.039760870699494834,660.7033770346048,352.7454347057242,679.5657814664484,jog
16.67779632721202,-1.2623844515771532,-1.0676749686657252,7.782693558639148,1.236336300578644,1.432840694416304,0.4820686712542607,683.3574518801013,395.0077689982501,664.8867613796821,jog
16.72787979966611,-1.5296747934068815,-0.7896618903663686,9.14982019585357,-0.6172755051504043,-0.52725882868446,0.4730493622957002,632.1168710743478,382.47512531044896,583.2702534880129,jog
16.7779632721202,-0.7751325853287063,-0.09925536052935845,10.28372859571294,0.9073767523723184,0.2806675033116335,0.049461476144282514,691.2966015589053,367.2530286825553,635.4595895206204,jog
16.82804674457429,0.8718584049289817,0.32273360665028744,12.156511587382282,-1.2817559097220221,-0.24043502444836878,-0.8149796510374575,655.406143639361,374.60716954761426,534.0547043989723,jog
16.87813021702838,1.8453379387021527,1.1767668649887533,11.992474947067803,1.5959763545130377,0.6253994847467249,0.1031529904573695,637.6650870655393,337.3415797094134,570.2765861472193,jog
16.928213689482472,1.7274930453559045,0.8330214787781349,11.10882066555137,0.6411906182352803,-0.6080734218248727,-0.8827981980458017,683.9741482769705,420.95176821883257,605.075536377303,jog
16.97829716193656,0.6811165778908695,0.23442235896618024,9.422854665389547,-0.538887278808866,-0.3223354031018341,0.33543613296748404,658.3106519593791,365.62827457022746,667.7555851855269,jog
17.02838063439065,-0.5134764250488432,-0.9416685818679322,8.038839854356945,0.519376747942604,0.9051196094561241,-0.04493382631948212,666.5772864101548,346.60113211753355,601.5367745198806,jog
17.07846410684474,-1.6842719786984037,-1.4476842374061993,7.68436272841352,0.3093943444907347,-0.7787966510040407,-0.1224186425440557,695.4210245083169,405.79533296298064,627.0572427509396,jog
17.128547579298832,-1.8463214774896604,-0.7372147174871209,8.745412965644276,-0.7014856769476369,0.0815494572690933,-0.29880981079584024,702.840367494127,471.92739322978036,674.4654573418578,jog
17.178631051752923,-0.39580833593481346,0.14249019673238467,10.471908153988108,0.3567138623064962,-0.4862460341194853,0.11518246743949226,734.1775827608457,390.9151382842769,608.7905719446869,jog
17.22871452420701,0.4153317711850569,0.7581360753803907,11.44358725200591,0.2688594388080353,-0.14243948201073242,0.622695491515155,773.048003186128,428.25899499559614,557.1799125428814,jog
17.2787979966611,1.7478666522802875,1.1413016490043957,11.475584119898516,-0.8428196006076409,0.2690879133334913,-0.5555723522470776,699.5744035218017,349.2842235892571,652.9911368086317,jog
17.328881469115192,1.9889900972715286,0.7276875536116738,11.08311512094093,1.6348501202807868,1.2115806514590277,1.1584942310715924,649.4572477191781,358.35973231446803,598.3374462961503,jog
17.378964941569283,0.027469063931169255,-0.6029192379880091,9.073079165535255,1.592543972356322,0.03446306247962223,0.49498314695917384,595.8029951586556,337.91566845296904,640.0240032539131,jog
17.429048414023374,-0.4797758389261913,-0.7743520812743325,8.059384445262724,0.35715445084079445,-0.8811419547623943,0.04668319038038535,723.5942014120525,344.85178780819837,625.2680996137592,jog
17.479131886477465,-1.3665669459234022,-1.5228504238754612,7.942261082612164,0.004609126726533716,0.650356611445779,0.06130106317378172,712.0203365899055,404.60424425874976,534.7793033094881,jog
17.529215358931552,-1.1890983400014052,-0.6661305685171464,8.827023871918689,-0.11816805080946548,0.4143239135364643,1.123574131310776,696.1475973366945,388.3774071656687,578.8698953650293,jog
17.579298831385643,-0.6806547163877458,0.13143096631244985,10.558468984686666,0.3976672272963127,-0.41459852004371206,-0.17311921100077493,676.053808597694,395.91122662239405,601.3232342879355,jog
17.629382303839733,0.428424868288728,0.8394488182842172,12.119962689629892,-0.33266547232660065,0.30306522727477575,0.4017381715104703,670.5348035776443,361.4553231535528,531.8725831916872,jog
17.679465776293824,1.9994960049716053,1.3310857027067922,11.905108548454438,-0.35407914266619844,-0.01384440939847757,-0.7395234187308732,657.088056670313,373.87394814411266,695.5678093240641,jog
17.729549248747915,1.9516344327659683,0.7125146993163896,10.80180660586533,-0.8229720754680673,-0.03877524209756089,-2.0040601322202236,621.9677291417265,361.264839075193,616.3116502132734,jog
17.779632721202002,0.7058557306317642,0.42999729941733134,9.119693387970457,-1.2182445723856428,0.32064990615520034,-0.21765752984933545,647.4758610015307,362.0024406410817,594.7155288689485,jog
17.829716193656093,-0.4695388205919457,-1.1092580227480167,7.42534156075126,-0.3409211387164962,-0.44122392584808884,0.5917340013811813,646.2525588219131,393.97324644702326,569.6834528031322,jog
17.879799666110184,-2.120068341349865,-1.0537682754945257,7.882030656497867,0.47013371682722616,-0.922474394615411,0.5975519505850851,592.1994941488952,437.565714774585,588.9147784545095,jog
17.929883138564275,-0.6437171785527542,-0.9556859343800632,8.520815747486843,0.14422946995582892,-0.5871036640244099,0.39479015105351056,634.0879640675881,409.24893349140285,592.7767944903408,jog
17.979966611018366,-0.6403108059559386,-0.2062269575465058,10.658726560234394,0.2741631979380557,1.928868066882007,0.16117549433617934,713.3867228573845,378.9249595215874,647.0556327625624,jog
18.030050083472453,0.8172343509755088,0.5417069629545466,11.717732246169957,0.23354960421256132,-1.4423329461648247,-0.7247732101809798,722.2707675106396,356.9519018867933,592.4182006079576,jog
18.080133555926544,2.1138470747067437,0.8122992895742651,12.045026238173225,-1.1447124568651965,-0.23965157308024615,-0.39223672357600453,760.5963107011224,388.50575825607825,672.6477644619714,jog
18.130217028380635,1.4675055986032874,0.9976838265651937,11.142925705858412,-1.1112238930588685,0.7360284983064438,1.9355115334298196,710.6421525617715,454.30532398582886,596.6724464824185,jog
18.180300500834726,0.7726621261950031,-0.11296099024681402,9.059480236542372,0.1329267883823445,0.9043217662051674,0.5896087994405744,689.6730096483415,427.6292270832157,624.4636885737166,jog
18.230383973288816,-0.8351343361587955,-0.7116275300703885,8.150518463276848,0.6119574656891067,0.6874392428425707,-0.22310647668884973,721.9153724411041,366.66787124959967,585.3252190259404,jog
18.280467445742904,-1.2951310773667366,-1.2530287069425714,7.814698121309466,0.11349701950172189,0.22261797494730334,-0.08451039610614586,697.5726871243232,299.9345612057126,646.0279985281591,jog
18.330550918196995,-1.4377476989694924,-1.2386092655508063,9.016299407671953,-1.157184301064021,-0.6592064040258618,-1.9081756240852294,664.9292363090187,403.521154869696,555.2338986299703,jog
18.380634390651085,-0.8969339273318183,0.14808381870472023,10.750426057134305,0.12126860379341649,-0.23770741508164095,-0.23660741549165357,721.9252139547175,422.13318881196415,615.7391119513092,jog
18.430717863105176,0.5895362918567871,0.9334689810443937,11.772116393732857,0.8552140858911801,1.5025790071222511,1.0826842666667522,689.0159584314881,333.9446791627747,697.0776753282174,jog
18.480801335559267,1.6977657844013274,0.6679660837175441,11.99599256983743,-0.29302559493687963,1.1199445583354315,0.3644277497567797,593.9459439878476,423.2207675552094,716.335606178155,jog
18.530884808013354,1.8062042530284375,0.5631966638514652,11.119646939091522,0.16052079344818782,-1.1508983317920858,0.4134053520747933,715.0476514129908,365.037820167664,661.2702456326037,jog
18.580968280467445,0.27717336523838576,-0.2053226029122551,9.156709722043704,-0.4718472131074296,-0.13444731912759256,-0.638007028875926,646.4839995936392,386.53358162897985,613.3502890247175,jog
18.631051752921536,-1.270520315845874,-0.45506032009062936,7.864752346019873,1.0264957931859144,-0.3959220508460781,-0.33515037280477344,630.6022693437774,356.87276642870677,587.3820590075806,jog
18.681135225375627,-1.3821486086150272,-1.356487987170689,7.503166637408051,1.2648751425829328,-0.02414571813792254,-0.588744272771474,708.3093679043551,389.36637203398584,623.1191999295547,jog
18.731218697829718,-1.4408990948771212,-1.2238917873393031,8.569619791738834,-0.0736999510958978,-1.3308692733766387,0.9744048279007045,688.062916505385,347.11360982640207,622.0170452882543,jog
18.781302170283805,-0.3334464750463255,-0.08312963414260557,10.79236555874461,-0.9417699728415292,-0.4941030160719903,0.05964868082956342,628.196263684808,384.49610188359577,576.9830246385216,jog
18.831385642737896,1.0813786633865103,0.757884818177992,11.702456614789748,0.33923639107896425,-1.0189048699041867,1.1577156899025765,682.8775888071619,455.947266724731,636.8058885829877,jog
18.881469115191987,2.500484735588141,1.286249233141263,11.948680891984418,0.4285554300683444,0.3333346272417915,1.2588731226960432,671.5020014128997,384.35868864764564,569.3345487821387,jog
18.931552587646078,1.1069861790844429,0.7570857001386071,10.829930098036693,-0.48589437788219253,0.1901097202372553,-0.677579165886402,602.8905925777703,360.50775525969965,615.9200106579286,jog
18.98163606010017,0.362579695672495,-0.5822088614495573,9.473295539147603,0.4340339751923076,0.3112741066847578,0.18349645367956782,679.0867040586678,325.497358462298,609.8658441444045,jog
19.03171953255426,-0.6154545603958663,-0.7571146768371169,7.889781536148443,1.2041298260871551,0.11192761382710234,-0.703773834315984,691.6370539736689,385.6815739132811,660.7992632799039,jog
19.081803005008346,-1.4192671601134115,-1.453499396524399,7.756966909425523,0.10990984518197847,-0.7331914551160209,0.9566945079381175,606.2992789705349,314.21414318428333,657.0709740773498,jog
19.131886477462437,-1.1172460621378355,-0.9169655952166518,9.052876168153132,0.17814564799957117,0.007237867085813515,-0.5547457710801068,684.8195403087785,448.50681699198174,697.9274434274855,jog
19.181969949916528,-0.9262863981596295,0.17392355861676465,10.748566104694707,-1.1354658585403072,0.40482192789745997,-1.3049733786283395,697.9556531708397,405.27863254934067,613.4234182679096,jog
19.23205342237062,0.7639948526980734,0.7652655801587558,11.909212896480527,0.710491608426282,0.6945231870251846,0.3740806427932546,643.6907444825786,374.0827237519811,662.6099841840079,jog
19.28213689482471,1.7658549084187718,1.257915793274133,11.910332528429416,0.5030088785461899,0.0939884832564735,0.30206811732305333,657.3918924635154,381.87983109240656,644.9852288492021,jog
19.332220367278797,1.7497679370846384,0.5030403746101977,10.666986055347309,0.06756578683695227,-0.06540161300421067,-0.04497601032241015,703.4328157182647,336.07382078350605,610.5318249076356,jog
19.382303839732888,0.4938880457151832,-0.3583778804962486,9.133164633815971,1.3490649767600504,-1.274130761392326,0.8456815811169307,753.9163989458772,369.0059485707272,614.5073008246835,jog
19.43238731218698,-1.0920028277617262,-1.2075505292716164,7.812991189451573,0.3926427932757448,-1.3174930482117813,0.06264127046565068,728.3503791477634,319.11420747190607,581.4534528868255,jog
19.48247078464107,-1.87750274578608,-1.2852094163465282,7.429211525399704,2.031230327740041,0.7753474456677979,-0.04061241850892693,604.6229127620215,369.4387688027754,662.0941216579716,jog
19.53255425709516,-1.1258654236268564,-1.036333677048365,8.70852909729241,-0.26132945319985046,0.7389054422758985,0.5948668990621543,718.8014518155939,408.98419369983577,588.6389329532037,jog
19.582637729549248,-0.037794204032275305,-0.0791160108416694,10.453254685216278,0.9346986026866683,-1.3934580686139217,1.2252810514734693,685.0914628251137,368.3233767377632,603.4132005472628,jog
19.63272120200334,1.0480594378037846,0.5307113589593297,12.200342654388347,-0.8000543841102766,0.19496282604478796,-0.8439238569451059,789.7651038359425,315.10694826602605,553.2886764735865,jog
19.68280467445743,1.8996404843879409,0.7864840116716194,11.876281317711248,-0.16891554361321148,0.2756927762260303,0.06298461254800983,642.996285171082,421.94434309149915,601.9434291174028,jog
19.73288814691152,1.4576982374324792,0.4425093043704718,10.878115073638686,1.3596869170650439,-0.2186298009094126,-0.03496758318182461,585.1647873780312,382.34701003765275,667.9220147103406,jog
19.78297161936561,0.4330376637111212,0.12941472941343996,9.163853691168308,0.2759206901487418,0.8087424995734519,0.45231970404199245,764.6980790395542,411.50662069445286,591.4865399319817,jog
19.8330550918197,-0.638898363248777,-1.0277563578704534,7.94923875494549,0.21483635066296358,1.0565282001267782,0.15655562212560664,641.5390616043823,403.79236923685477,534.7527767122672,jog
19.88313856427379,-1.3469963049904192,-1.6800248729751375,7.906467081926457,0.5218429278637055,-0.17102297475681025,-0.2933119985924527,620.6068129812293,378.2747236363516,545.6610401469989,jog
19.93322203672788,-1.0012839813242462,-0.8449154313556078,8.771772775233973,-0.05569999096103163,0.6376910124895158,-0.2194682532347031,636.506694450031,447.4308540740809,638.5368922270567,jog
19.98330550918197,0.132922406414055,-0.5304526780091579,10.507328957476298,0.9296750922825476,0.7041643192042847,-0.9012237447316188,797.4727215977173,380.9329766504793,677.7503409291664,jog
20.03338898163606,0.5774641460019831,0.6333629677188188,11.691730820173863,0.4592424648181805,0.5538550372973543,0.5825717528154832,724.7840594095364,378.92240214508485,626.647779220769,jog
20.08347245409015,2.446803537528824,1.2697937526490168,12.494067801168338,0.5928502329417275,-1.146456534481739,-0.42338162467736384,692.2468337368789,444.95852802367733,563.7372326971201,jog
20.13355592654424,1.28440178850125,0.9745299148507631,10.368930596296082,-0.9408007519453273,0.13968722921838897,-0.04761141187824426,637.7221756723935,407.39053653160784,604.5469915472173,jog
20.18363939899833,0.7805140659200827,0.18603821911363977,9.07866659032253,-0.05824081413241532,1.2858496836745998,0.37304686304888857,666.5930270590162,438.0368226531872,639.7867376210004,jog
20.23372287145242,-1.0517505666289813,-1.1925585278569795,7.764968321339466,0.5506590359276416,0.8335805985200629,-0.2960220618645239,655.0931594978615,359.9008414521366,622.9153481478317,jog
20.283806343906512,-1.4085693148248288,-1.0915962129337269,7.553894408317469,0.6449164194007168,0.45310942336270527,0.09045150058140719,721.0156754895244,372.2881190223745,707.3919355827711,jog
20.3338898163606,-1.0484604087780485,-0.7102574234277059,8.996961748003855,1.4339764097630858,-0.04620841269852768,0.5998094657229157,678.11743548889,380.6474579343753,558.5384006752196,jog
20.38397328881469,0.036238269403696,0.3145044517928896,10.591599915246562,0.20247891517447364,0.2839627854262251,0.23078995472626002,700.0094661543416,350.436666695175,601.5918433978968,jog
20.43405676126878,1.2778196462470182,0.8865827412622462,12.092422253901276,0.8431315117866914,-0.44753946480472806,-1.6149947085747576,608.8743675070322,398.57799895032474,676.0159088427883,jog
20.484140233722872,2.2736420929199417,0.7521683726079267,11.798542423228628,-0.46632417492101064,-0.17439255908260634,-0.9461314218031983,683.1209366731034,313.0486503892081,583.454176169988,jog
20.534223706176963,1.3580589356443216,0.5538372808850214,10.902635615868576,0.8916490351673273,0.0965173476563589,-0.6456018711437115,739.6013479527139,402.2243424633632,670.2355393106778,jog
20.584307178631054,0.5143660176877142,-0.15761533528907382,9.366948810002036,0.8872540646007585,0.3819771315430161,-1.3656028414916193,654.1476014471403,438.63078235750174,684.213067193942,jog
20.63439065108514,-0.9503905809699514,-1.3126477100066511,7.954999777382207,-0.1026641213479339,0.27445737555739874,0.6408222581652123,690.4436517057222,397.61141149695675,610.2206945474567,jog
20.684474123539232,-1.662352534881064,-1.3173028440181829,8.135995099002798,2.0662144978442734,0.3715624657882532,-0.10683436316353788,637.7563545240797,363.3658993014459,545.6295277572779,jog
20.734557595993323,-1.3164974136180743,-0.798999798348847,9.409318096130772,0.3838162303316982,1.0870295320402426,-0.3291027275169741,627.556406992226,371.02529227775244,647.5878854110159,jog
20.784641068447414,-0.8106503196375526,0.31024499485195517,10.724069883318103,-0.6808211813487394,-0.6315855461668636,-0.6014055392196846,693.1048376284784,391.807140437401,560.1935027174052,jog
20.834724540901504,0.857202525842746,1.2624194801471376,11.833206188653632,-1.5537907427386752,-0.06665456674126082,-0.23567239815158178,688.5244634877257,385.57171055722324,565.0594821008282,jog
20.884808013355592,2.0298546691034622,0.830253620200494,11.760439163533542,-0.18130473942959685,-0.3141125876247957,0.11443759638753155,694.5199145426236,392.49637019823547,619.0969506523222,jog
20.934891485809683,1.9068360848041666,0.5864520181996755,11.100096397170045,0.7477858021554245,1.243311169617286,-0.21422933091876376,689.8364727151555,424.33556192105965,581.1942854922555,jog
20.984974958263773,0.6975399518331624,-0.5966521641554705,9.125566369360794,0.11302805390238733,0.1329091624999728,1.2230397523338703,732.0875088674371,351.5453969904971,664.2391122904236,jog
21.035058430717864,-0.3791038351363692,-0.9392656547074179,8.16392380573509,-1.8882967026436073,-0.6356373420599667,0.11526548907492473,624.7212775624105,376.7998788753818,650.4479019930212,jog
21.085141903171955,-1.7974205393071938,-0.8861064145315782,8.244567428978234,0.01911591269408712,-0.12125917775827526,0.4095179845640719,684.2506163092519,321.81997842793584,604.1060678444193,jog
21.135225375626042,-1.539189215457481,-0.7408772368578849,9.192903347632779,-0.41896283702148396,-0.6733530922060109,-0.26346593524015793,677.7777495897783,377.66193562186606,609.6473775452572,jog
21.185308848080133,-0.6645668797122365,-0.04472391747446855,10.855023575311009,-0.07292226851455895,0.9766910660300777,-0.19766457437387142,774.3022393388632,372.63955453303055,561.1439011654659,jog
21.235392320534224,0.923053878828516,0.7647506133591393,11.679934738451037,0.17236709143480078,0.6160864022739595,-0.6310661536191993,695.3856448955564,338.2319953291434,604.6720265080974,jog
21.285475792988315,1.814489576041756,1.350006046833816,12.24190678714074,0.4287843950041798,0.22291303321877676,0.6720194604617798,713.5300810626776,403.6740552490075,627.6893712829893,jog
21.335559265442406,1.2822500067654283,0.3306894764975584,11.009879618873835,0.1534028419580755,0.4201852463827633,-0.8200204636217181,684.427098695213,394.1048543418619,596.1075128687412,jog
21.385642737896493,0.5942080157176066,0.011341021573629123,8.958780563530492,-0.518595553634767,0.2369523577495664,1.450513444175088,683.838214056544,358.7291965105973,632.8553585926562,jog
21.435726210350584,-0.6578022161517013,-1.0284816465668638,7.937339898236558,0.000296315213842188,-0.8796483797754266,1.7955169933186905,645.2584435269223,422.2991406678725,638.9919398438865,jog
21.485809682804675,-1.4008944190240857,-0.9799913702485079,7.684742946378876,-0.48698983828589426,0.48195344258186723,-1.0195406260395992,596.8093134346552,377.05011545155116,589.3446128193527,jog
21.535893155258766,-1.9258891505674516,-0.8380914124567087,9.538989412500426,1.0438729972567682,-1.0610223346859533,0.0730002930362588,668.069376515933,414.98479829774374,595.1771070816098,jog
21.585976627712856,-0.19468361379477772,-0.40234217151629853,10.736020689383398,0.5119898923513221,-0.206929008744577,0.229841744616751,722.2661414801406,419.1888992622292,640.62285804596,jog
21.636060100166944,0.9080286602130057,1.3371258750834079,11.916701688847024,0.23329725896276804,-1.556963314601806,0.09283193671283024,709.9688670624004,349.0595521328039,621.9692752702307,jog
21.686143572621035,1.649469031755233,1.4090868503122376,12.302322784496516,1.3774417716411744,0.009937593054560809,0.6034043303266751,693.6480740923369,428.26553373796014,582.5242441150085,jog
21.736227045075125,1.3040600914774203,0.38793231838725517,11.011762729384643,-0.05909907780956597,-0.34590027605312557,0.35993935760459406,808.5017455594733,339.42269034957815,703.9500075077382,jog
21.786310517529216,0.9765661992393465,-0.5747547448178776,8.680951596949784,0.16334393396231714,-0.5842928067702047,-0.01703207505259082,675.4348700560355,350.99220357110954,587.0916326582827,jog
21.836393989983307,-0.8762341306552667,-0.5090305972143438,8.306088148056489,0.8613541641030922,-1.599025521146494,0.22122472544170366,718.5987410326999,334.62056960492293,644.4611840449044,jog
21.886477462437398,-1.6947857844077263,-1.236299443115471,7.976475603883126,-0.797324177369997,-0.13960436555355027,0.21930734644804542,614.0271361926809,416.34249024362583,660.4897391980052,jog
21.936560934891485,-1.5918048649542853,-0.7887247604425298,9.006652505762634,-0.5135720038228775,-0.44113883385977176,0.5883178565706041,658.9940738300751,401.2375516966593,618.9862505552456,jog
21.986644407345576,-0.33110295695283787,0.24084763716248042,10.22669898462043,0.46766792998457835,0.14529226629084027,-0.4299492848078989,605.8928908203916,429.21198528695925,578.4214894731456,jog
22.036727879799667,1.1832273866699965,0.7607468296756874,12.038845161700376,0.741890180039203,0.47508015946309934,-0.7128158130125086,697.2122581091878,376.87631179895743,660.2438532347477,jog
22.086811352253758,2.2102436699349237,0.9846325079557217,11.987552141682022,0.9615182338006981,0.8463291577680969,0.0280281335290389,714.0525067427523,447.56701566143147,621.0163595284106,jog
22.13689482470785,1.080684910066259,0.8337375579640338,10.441941861743258,-0.08847723148618004,-0.6368414937769608,0.5417647521997146,759.6849633452417,430.54972511138374,663.671174604532,jog
22.186978297161936,0.0993029104438634,-0.2770754432274054,9.287952506530399,-0.14962505607633494,0.545303618247579,-0.7224181106518047,678.756736545037,442.5613367781061,670.6902163518428,jog
22.237061769616027,-1.091738427160589,-1.3853825596626823,7.788276660572187,1.1354099536141915,-0.17471877314869436,-0.2969682825657996,672.3696214872057,432.11051398972506,617.1570913561519,jog
22.287145242070117,-1.787147660342714,-1.1031917469240915,7.843976368823321,-0.4097779333997054,-1.2000273470246512,-0.42206988939195467,703.8233335571291,413.53075446681146,555.1997304209347,jog
22.33722871452421,-1.6014257979319155,-0.8461501229368136,9.091005290711644,0.7365716690954339,0.29185185567814176,1.3361147472355608,604.6047555047428,395.2188714236943,557.7370780471056,jog
22.3873121869783,-0.21598842828354364,-0.32335249418273865,10.620453182950731,0.4304400371505872,-0.9784005226858187,-0.019997543522550242,624.242575425096,390.4700258619688,600.2960309811012,jog
22.437395659432386,0.9870068601793335,0.5092084705542181,11.731319225300963,0.41546785693426264,-0.5280085273721475,-1.1253485754776316,674.3259154273113,374.3940905654597,584.6796466339697,jog
22.487479131886477,2.273081617027486,1.5763853814274071,11.992049893806978,0.45555300199634974,-0.44081982754089916,-0.5117940875209678,611.5333694654573,435.18618974138394,580.3040672965737,jog
22.537562604340568,1.8394227353330201,0.5779440537282707,10.99574905607782,-0.942000475400841,-0.8201390211080075,0.2287455809346995,687.0950145154987,378.76160400922197,631.6807670179754,jog
22.58764607679466,0.7933697074894224,-0.45361571825048086,9.234547083169447,-0.7226091438957735,0.5484918461124113,0.9870081044499037,687.9439437396393,371.325002990512,624.4621251596767,jog
22.63772954924875,-0.7835962246250361,-1.0664683992313337,8.219457515708914,0.7733919919924024,0.23421865851382132,-0.6490842060503648,746.7882540074787,351.9301435981317,607.301715692832,jog
22.687813021702837,-1.4756350055382812,-1.3713867814110834,7.695980130446804,-0.6514778263516035,0.6960757077859263,-0.5627134912538457,745.5683611229542,338.58914534358524,712.8683048669978,jog
22.737896494156928,-1.2249737707709565,-1.1241179694464922,9.140417013282933,1.746955259869677,-0.6425290836980476,-0.2678369857110896,728.750491708691,362.26562420781164,613.1900577617384,jog
22.78797996661102,-0.3965060536970267,0.13469060721786974,10.819103801485777,0.5127539599591541,0.15391332523081747,-0.24209774086750052,670.5317316057874,422.48898187901995,672.6093721008907,jog
22.83806343906511,1.0901985134586927,0.9803405912696417,11.96493930652143,0.7351646175814377,0.36945503090587406,0.9625309134031195,720.1825234437617,412.96027195099015,602.6054777984305,jog
22.8881469115192,1.9090645560996584,1.5973447885700471,12.377458445432998,0.6987740250968516,0.7395108695443545,-0.7819214339187865,699.6507445168494,401.42280658920794,562.2638722789616,jog
22.938230383973288,1.5502888238853723,0.4941928223900422,10.218871973770256,-0.00568093621986706,1.3212109286285807,-0.5365564094451718,633.2229403002294,408.04088754015015,640.5541863197066,jog
22.98831385642738,0.03625168133458266,-0.4793604185972548,8.932042279333173,-1.0987762930050577,-0.5546526619055404,0.3043336148859417,697.7346358558757,342.78260652434125,592.1180894135675,jog
23.03839732888147,-1.3058314970858673,-0.7529878777494612,7.626785252485075,-1.790212222374862,-0.4251526461320132,-0.40885588616052376,686.7808782974402,343.7902867553326,653.1239116441809,jog
23.08848080133556,-1.7112843244726235,-1.39337496896247,7.2226290454090885,-0.0778616510988866,-0.04157204557321107,0.8410079033938799,671.1281595040067,404.8033062919803,631.5034015199185,jog
23.13856427378965,-1.3407395788839471,-0.8200087098547422,9.131280920007573,-1.2973442646155204,0.4810717101538415,-0.32475992730221465,661.9825012009367,424.6973014030484,622.1768298045872,jog
23.18864774624374,-0.04524639520277508,0.25275189437810847,10.852541941318213,0.49724328368087634,-0.1748909800642024,0.18337245603725122,577.735459511167,351.4820984822325,686.3423548885335,jog
23.23873121869783,1.6037548235110495,0.8185115482665104,12.271278396202076,-0.5758396892100813,0.07615108931658646,0.387031150006952,671.0496822653815,427.61003460065115,612.3251585743441,jog
23.28881469115192,2.140277546661518,1.1348005229643945,11.533443675112359,0.1885916473078822,1.2490048778508474,0.60425003208282,660.2317508986703,332.15327947690156,661.4831819923676,jog
23.33889816360601,1.65132688162718,0.5779770687792953,10.499165792950128,-0.4629375637983081,-0.006761390086414522,0.12246066332446064,660.9007331388384,364.6788710424264,560.9263818187503,jog
23.3889816360601,0.34067708819721476,0.2837835143507077,9.210615409826197,0.4427216038322595,-0.3768036486146645,-0.8383766870445107,810.3362561132121,374.62277375770145,636.5241658666482,jog
23.439065108514193,-0.5819171747299069,-1.1098402119946225,7.457544106931736,-0.19380671964264018,0.2603365826426812,-1.97341684570644,586.9797293487177,319.61382479303535,663.7963297703396,jog
23.48914858096828,-1.879766084186537,-1.082696942320059,8.303791997273006,-0.33078449769955787,-0.1932508169686548,0.13473236587027765,751.4679544080238,402.2069795396985,587.7881445353921,jog
23.53923205342237,-1.6153299630973192,-1.0747003053828066,9.472992095350444,0.8915450356227992,-0.6690667670981184,-0.6664805683544445,690.6958534091515,445.4668787633756,631.8532117194577,jog
23.58931552587646,-0.36462470513195955,0.27456663065624426,10.960057964215206,-0.15837748208538308,0.7144100442329713,0.37868043358110676,728.9474981720645,317.59161487631474,555.526141941584,jog
23.639398998330552,1.122299527646622,0.5779229152720147,12.185439372720126,0.4325912603375719,0.269373044548002,0.713294515860509,631.5190231813143,415.89223771522416,585.1006126476975,jog
23.689482470784643,2.2395393442026137,0.6644317137916653,12.362103629907748,0.7241067786757791,0.0038424888086419505,-0.47218903106997334,636.8279660853342,364.4247538776335,633.3041691183547,jog
23.73956594323873,1.160205513306678,0.6679112965619824,10.770408887843715,1.0620866610357746,-1.1029797631231997,-0.1610654951179662,669.4669907814242,399.0211614677212,688.4166040688862,jog
23.78964941569282,0.2916163415408812,-0.5922304877869495,9.1932421889761,0.2789844130193893,-0.44701636279767704,-0.27809504559113923,735.0746011029258,407.49092207354425,616.0547538209227,jog
23.839732888146912,-0.6702432243325654,-0.7496690540556574,7.839601013604176,-0.8639821264642621,-0.3349271940649876,-0.43882029520104754,681.9931812274901,405.90702322629136,599.5729155420597,jog
23.889816360601003,-1.8715005756515952,-1.6481592138284262,7.76789974441824,-1.1290678872711064,1.1826969067884894,-0.545714381618172,753.2695124315794,405.44421721874414,646.2265910076395,jog
23.939899833055094,-1.1552555638520747,-0.5650574158825512,9.056313318095102,-0.8059360181571598,0.6909927879790043,-0.2697048905616524,725.9536132976599,314.3240233013426,608.0742353728149,jog
23.98998330550918,-0.14024909180700396,0.49985582824468017,10.625476317738862,-0.5894831655886621,-0.4467509622453675,0.11454761814569939,729.5615718954349,395.1114301129351,651.1943581021306,jog
24.040066777963272,1.0525515521126891,0.6544979118992726,11.902653761783037,0.16265365650047192,0.8797388857207578,0.12786232277141638,759.7385136678909,358.71784918341973,581.9672821263492,jog
24.090150250417363,1.8264947448873596,1.605229360134301,11.921487287549658,0.77905664265304,0.5294012977491813,-0.2507893505169248,741.6872185956977,281.79452067021174,607.986469170656,jog
24.140233722871454,1.0830717301982915,0.47770840649545826,10.280108131262448,0.23570500189342258,0.5259612085294544,0.015782948568895408,728.3330688552683,386.567688629134,568.126168198972,jog
24.190317195325544,0.4439717121381332,-0.44384240099414,8.713170989258721,-0.2428121207348868,-0.035597204017758066,-0.5043085766024091,694.1117821590863,401.9030613635301,566.5183540939594,jog
24.24040066777963,-1.218516634555691,-0.6340377911366366,7.727449623266306,0.9452482583248245,-0.6200257727156481,0.3652002236946559,765.329101885717,403.1637378245103,603.5137746361153,jog
24.290484140233723,-1.8528635622595993,-1.0514442961248027,7.684762600190575,-0.5865192840943149,-1.7606198923104501,-0.5766380514842712,608.149596001826,382.93921841680816,605.0238168057132,jog
24.340567612687813,-1.3407290968735814,-0.5743893346752924,9.361197520228844,0.5901740347999467,0.35712876536831234,-1.1936013647622374,646.8809380758206,398.7856578339403,614.2875066402423,jog
24.390651085141904,0.480507542760662,-0.1446663847532185,10.651221871823555,0.02218757894355045,-0.37536364827583146,0.18280315710331077,658.3894425198006,428.1807322146154,621.2838290062023,jog
24.440734557595995,1.3974728053498364,1.1746300292716199,11.886145466233028,-1.0435488981543435,-0.32077428290692955,-0.6435453853471612,654.729657090684,347.56098941967423,670.6966973212557,jog
24.490818030050082,1.9774429568484606,1.5431897698415862,12.013393901904783,1.0820995337083037,-1.250828184422059,-1.2863919884635036,625.9353031014375,400.7184557091669,611.3342199656587,jog
24.540901502504173,1.5699010297181932,0.5753048001342469,10.718585857211217,-0.6251154979317958,0.4602756104121166,0.9980595846883662,705.0688525966427,384.1945185305505,626.6835690009312,jog
24.590984974958264,0.23067571295805522,0.016579036513872908,9.380478446105117,-1.4725007723215726,0.2843631196829647,-0.257816731700807,610.8111752050058,444.85477645241315,548.650380326831,jog
24.641068447412355,-0.9353074277121559,-1.0243950913612008,7.708031158776341,0.631970578251839,-0.6060414407401387,1.7867285805493887,666.3467845857626,389.27324677210936,684.6408215089265,jog
24.691151919866446,-1.719754606339289,-1.4578715562265911,8.04351143180107,-1.3199792120990477,0.0893636188378434,-0.28753755151643967,617.0192395836968,359.33184151924695,569.9473559667425,jog
24.741235392320533,-1.7117794156446218,-0.33321576109056805,9.183241590000632,-0.3572589848489081,-0.373297608053504,0.1975582101568268,619.7063483058671,415.1123321150019,648.1944902550011,jog
24.791318864774624,-0.3007222620038423,0.05901626715187762,11.192283482675643,0.35135557930992184,-0.14115824104210306,1.2637525458790768,642.3002185839225,377.8412798126644,558.273485405296,jog
24.841402337228715,1.0198909284839808,1.0969533569367242,12.258440269322064,-0.36545181910309693,1.049655990189535,-0.27578599015803645,729.2761897009008,383.778761624266,566.8253797563503,jog
24.891485809682806,1.5567001948542398,0.9711883345370957,11.468111170375227,-0.3483944495945801,0.8807570776814138,0.5690753730971446,658.6611848346788,420.1462879462475,596.8768099850097,jog
24.941569282136896,1.1540757540602031,0.8494978395669364,10.258068481244772,-0.31077862484501734,-0.40890793098348427,0.12495569930589069,724.1656357576283,396.10729606992413,675.9238212322989,jog
24.991652754590987,-0.02253951901442665,-0.10554764196624525,8.788087002227904,-0.820319972678697,-0.1276425775368748,-0.3916571118056357,637.3021003377517,417.51345761683075,667.1605614310704,jog
25.041736227045075,-1.4054800756104155,-1.3655012461249545,7.544851117874343,-1.1613594189154413,-0.11922489687748987,0.33199988050231355,674.2131876582465,347.6168011293356,610.2547882243066,jog
25.091819699499165,-1.3263037771221473,-1.1242938602607944,8.513414896329596,-0.24490940747558582,0.13792497397341785,0.4098148185328092,681.440845832812,347.78981957812306,586.2724279258994,jog
25.141903171953256,-1.3202084262233755,-0.27603229346628655,9.21782542530809,0.35883149931371955,0.14230200727215053,-0.6349516767911146,672.5764626312672,322.5811498478626,666.8958688051542,jog
25.191986644407347,-0.13389366483563514,0.47752832263138695,10.678867058997175,0.18642075543881742,-0.4691904776089086,-0.4519750861196635,672.1854327323578,408.08481493938325,613.8564611596142,jog
25.242070116861438,1.5289757231360976,0.6450417504085528,12.06725244859635,-0.575710372984486,-0.45451729455492507,-0.5558961411555553,670.8414742901019,399.83695272405913,694.5340605968324,jog
25.292153589315525,1.9520490056684139,0.8194949462958525,11.210244705194992,-0.7368543686287994,1.309279268107662,-1.1791515715009502,585.5065940749967,452.83163545143395,666.5903270953496,jog
25.342237061769616,1.4942055736309026,0.7066012300566638,11.062791108501406,1.237959279714276,-0.5291923764860411,0.2911295464715078,693.227577145125,398.2748500696164,580.5057808376878,jog
25.392320534223707,0.4178622638035587,-0.3352601501505237,9.084414852595001,-0.25450812889840263,-0.7639785874651932,-0.34246105178265507,718.781666097639,386.32718502574374,569.9316282657171,jog
25.442404006677798,-1.2104617243034925,-1.0955116406422982,7.9679800799931675,1.3303477175965681,0.962855476757639,-0.1780681625787501,692.2004472471624,364.80896158702484,619.7183815507971,jog
25.49248747913189,-1.9541381786538148,-0.9745625584663513,7.690560092823196,-0.534326079278264,0.7633613873475389,0.635767710050278,701.3638308809036,360.91916453239304,635.8184343547671,jog
25.542570951585976,-1.4455662390677695,-0.9057798729411577,9.350996024764852,0.07541400829388091,-0.7799281863658365,0.9591197983573698,667.5241101151863,384.301747654435,588.3608989337781,jog
25.592654424040067,0.07476588749465173,0.29102812896971403,10.647462407580955,-1.0376415462096202,-0.4170505700584312,-0.22520672239504136,633.4212471227338,403.9754016892292,645.6825936686826,jog
25.642737896494157,1.2428364293922602,0.6634933430411509,11.691460016681265,-0.18447175005869526,-0.5643623508957972,0.09982126279318526,631.8505760012224,399.6858549622097,617.7469193549576,jog
25.69282136894825,2.0785244291904585,0.8376204967930767,12.015592652450847,0.14654765587906834,0.26059330950327814,0.43558873011861526,780.7691972396027,394.8819391499555,587.7912686795394,jog
25.74290484140234,1.635591494294833,0.4334676135758865,10.650036090913124,-0.962896669897074,1.2769569055543637,-0.579837011040458,730.8140684910112,372.18988638775784,669.7444259776319,jog
25.792988313856426,0.22637225904932645,-0.29321983446672184,9.119484468266249,0.590059957073653,-0.10594108665116667,-0.48157611406632017,755.5920325498726,380.31720660200733,594.0933940110899,jog
25.843071786310517,-1.1409694892051263,-1.42752810326568,7.994174883452965,-1.3548045904665438,-0.35887768603061976,0.38870060351169367,744.131280657212,411.89069510397786,635.2691215018413,jog
25.893155258764608,-2.01924845142933,-1.3962694910799442,7.717010742312473,-0.36698159705160766,-0.13654349659731752,-0.5917041242641279,772.1171583831508,419.5979194026079,601.3872683800057,jog
25.9432387312187,-1.5739223232946933,-0.7793706339897564,8.981373604657371,0.05055558254394932,0.9929257923341592,-0.6398275633956741,618.3844586425218,341.9509826413435,572.2557624352764,jog
25.99332220367279,0.033370225582761995,0.1840031647080115,10.977382748696092,0.5637577969218617,0.9904606071093729,0.6086204120205869,637.2445248353704,399.696557869926,634.6191013236856,jog
26.043405676126877,1.0770560692995688,1.32412620910115,11.968951035802817,-0.5301474665928719,0.32867735840425827,0.3524286298475015,687.2939667128686,395.7323635540189,620.4712321862772,jog
26.093489148580968,1.9598593206457056,0.9378668805588346,11.32323210549871,-0.31731786801232903,1.1329342273329683,0.3888227263143493,696.2667410305112,410.2804857161615,607.5715917324063,jog
26.14357262103506,1.7574975920269222,0.5175023276850346,10.35928883492548,-0.520294382444182,-0.16902694561648426,-0.017691830302137432,682.1993385431697,371.50020972506485,625.0161487807609,jog
26.19365609348915,-0.0808431101927778,0.2572297621874852,8.923256990748678,0.16311328449177798,0.38927771429348296,0.9966264679841503,659.5379390825883,387.5220598639063,707.6851706464271,jog
26.24373956594324,-1.1394054668138178,-1.4217186432141808,7.651180600673753,-0.10978587719165281,0.8608085870646182,-0.7012118507496586,760.9001980487661,378.82359599978525,596.1861531728063,jog
26.293823038397328,-1.7120801210548426,-0.8713615706364413,8.260219574287898,0.5058181892168546,-0.3919260121865055,0.6180846517372975,684.2659711863034,357.4263965910992,592.8520047157417,jog
26.34390651085142,-1.1201502184001317,-0.7343857077560976,9.51649219409922,-0.261770863513793,-0.9107657669714799,-1.057732259770723,744.9668167780627,383.19987564756093,632.308858049011,jog
26.39398998330551,-0.19371920386017777,-0.1357385852158795,10.595658127685661,0.1906623892323752,-0.6967984311243431,-0.9111985568654096,679.5943815018031,347.84921944024154,659.5060651052394,jog
26.4440734557596,1.195586933700058,1.1619334738250817,12.371599046968152,-0.5950700328103928,-0.6960596423693691,0.99201573974548,653.6056217811806,485.80599271915594,634.7270098583298,jog
26.49415692821369,1.65248327725519,1.020972606372501,11.722389138770032,0.6265335383482563,-0.09632878044576279,-0.0676814038346054,673.2660898701214,412.6378875092883,630.3563689872763,jog
26.544240400667782,1.4379698357444277,0.15939867302785016,9.957890060797178,-0.5249108155067742,0.7092751060241742,-0.8227806732351295,665.078777660058,386.1997063690846,661.3168141154345,jog
26.59432387312187,0.10562197030222255,-0.36875763629095765,8.583244567090563,-0.16532290766776833,0.5826550646188494,-0.24619058899568733,641.8682025330202,303.8995957150339,576.4950814708868,jog
26.64440734557596,-1.1149893152602695,-1.207257087995403,7.881128521714467,0.8465450432748031,-0.3767499430675165,-1.4788567772700365,530.4349334363362,341.9805431301133,677.8788402284024,jog
26.69449081803005,-1.7603425409361455,-1.1422212999325827,7.6426283393828625,-1.5688628005812164,1.0430456200866884,0.7545095498993131,645.7731531350071,367.97766299014074,577.5298726297058,jog
26.74457429048414,-1.218225909803103,-0.8773669173445708,9.45099483258751,1.0668131296279515,0.21334983590432857,-0.8191208591111606,713.6102609324457,391.63902809598204,600.0654138587197,jog
26.794657762938233,-0.4550738638085649,0.032286030837486185,11.669691989198014,-0.2189319547983421,-0.36505725440786785,-0.5727333732704577,670.4065036148013,356.3269818292567,576.7428924183388,jog
26.84474123539232,1.7983011471207808,1.3921142493009617,12.56744738986404,-0.9768729799698341,0.4663406978959693,0.551092789813094,664.7914419245996,422.63629065005796,604.4446849305255,jog
26.89482470784641,2.014311068362791,0.6130206240355331,12.151397558658285,-0.04973829809949518,-1.014249942764771,-0.5467380487901399,679.4439283620906,392.23203906658046,572.7856248674749,jog
26.9449081803005,1.2536862552354697,0.6054229632781376,10.427849789014685,1.105291293219171,0.0009244816072677159,0.6990907701513215,664.7750224848161,374.5264399070348,684.2651477160929,jog
26.994991652754592,0.1909616416903785,-0.051686616311440114,8.71861525076242,-0.05332654037906293,-0.15742007895941132,0.7251216405638734,703.76019736576,354.65061418885693,662.3785428869073,jog
27.045075125208683,-0.8113337756845281,-1.55096456715725,8.094273665511595,-0.1674886247408406,-0.7617323250332687,-0.8856909648457124,701.6397688851857,420.3101535739121,586.4503602722205,jog
27.09515859766277,-2.0528803637605906,-1.2112996170176045,7.880364523698402,0.85738927727568,-1.1419124419021671,0.04284116752978291,667.9663571952088,371.0852986656521,689.2465588027841,jog
27.14524207011686,-1.2032173981945982,-1.1555381046487545,9.580946586867595,0.6123569392649408,-0.7194508720845476,-0.316761506238713,733.4630319526884,386.89009075642554,650.3010351863053,jog
27.195325542570952,0.3657005531881971,0.17365015688716978,11.299765806155563,0.9192712387832599,0.5608401751274525,-0.3179479026378095,565.09900154724,408.3663798946296,656.1533496149132,jog
27.245409015025043,1.4021528652528314,0.7444450369432998,11.942990364541693,1.6703872715106018,0.4727616637712987,0.5131392558538262,691.8018431349295,404.9804513104031,608.4369160493129,jog
27.295492487479134,2.1220687394461293,1.3307218813574355,11.796638681974667,-0.2353803861129446,-0.5693241751495484,0.5211468120222448,688.3604066883668,360.24490777842215,623.602863905204,jog
27.34557595993322,1.9460621912398852,0.7836791510150907,10.028619073221618,0.2581918559446824,0.32433169274102364,-0.043072881459603925,768.506459917922,375.35966220678614,572.4497273211651,jog
27.395659432387312,0.24032718174110473,-0.38183871165052774,8.74310530560278,-0.2260587237667772,0.3044201546948998,0.9395246844795218,661.865347943417,428.7068197363672,592.6789975873628,jog
27.445742904841403,-1.1364410119401351,-1.2315010907210147,8.064502993952466,-1.1523490919339283,0.2897248152581782,-0.6845497689380723,692.0768757555579,392.67493815752977,676.5430070029877,jog
27.495826377295494,-1.4476308672883733,-1.394393111490742,8.10838917109795,0.5012832966256103,1.0692542265681004,0.9189970058052578,601.4545491844015,400.2510290211954,606.8046288180348,jog
27.545909849749584,-1.2644985939267865,-0.605067363617332,9.18923438390661,-0.42875087833819403,0.39387150771289187,-0.32148071228635827,692.790296297003,376.04352564350256,678.4834927743963,jog
27.59599332220367,-0.03031940244558537,0.3692652756066941,10.862542246979894,-1.25920354005921,0.05890829203829302,-0.7039732976524126,725.6921018739242,404.2862981363834,678.2927649138685,jog
27.646076794657763,1.574989673350213,0.9069524231504935,11.919441371336774,0.9217956408019914,0.521863027323564,-0.7885235297601657,682.4886253984339,401.58576467426235,647.3439599658212,jog
27.696160267111853,1.919369547180341,1.212643380383611,12.127879425542874,-0.13635556378526245,-1.198644894143989,-0.8042951420516999,607.2998812607455,364.66448737113666,659.1170843294578,jog
27.746243739565944,1.301056166397655,0.280314327031583,10.279699155592619,-0.9954107855797139,-0.41625189182416805,0.38276961763198203,632.5390535268623,375.9673026791748,581.0075863919772,jog
27.796327212020035,0.36907942796474213,-0.45255980564494974,8.934144300000867,-0.563139379943662,-0.01779372691165913,-0.5309704065923275,646.8415890206215,401.05125132600887,570.8008545961084,jog
27.846410684474122,-0.7112745304930524,-1.2445922571933208,7.995863296610518,0.1085155365124049,0.7948360750135403,-0.8025056553166761,702.1767190308504,414.9157612672452,574.586561026202,jog
27.896494156928213,-1.3671284102174202,-1.0953039151568527,8.128707767102421,0.553847011192806,-0.03944838577569454,0.18754599996300622,718.952528297496,434.29307346289033,553.3745272658095,jog
27.946577629382304,-0.8759119847022864,-0.38118694219196425,9.393425463712656,0.9977793445182961,-0.5773196735689485,-0.17867900415172466,659.8995568021393,425.6334630587872,566.3304288113279,jog
27.996661101836395,0.48180202869544375,-0.3979867052304223,10.815898940190316,-1.0295754407348436,-0.46307294983757213,1.2449674947617444,711.9967027558548,395.93200387976543,599.2440907545047,jog
28.046744574290486,1.41931598357637,0.9644088769967707,11.868766968759589,0.24707323541781567,0.6822654419939167,-1.8525084337302777,610.7131229167555,359.726337511194,656.3942443853175,jog
28.096828046744577,2.2441210442969846,0.6466700732503508,12.070339770290223,0.3111212479052305,-0.5900044559213502,-0.8036052413965327,727.8376882097642,357.5444062258938,635.9346604070246,jog
28.146911519198664,1.6030821190113844,0.3773219146593653,10.625542548870804,0.4012926199331321,-0.1344664690280684,-0.24092856599890694,684.0342039735297,386.7651466868606,657.4166094982721,jog
28.196994991652755,0.2401287841357293,-0.5837444997324959,8.254768508391393,0.4046183417207921,-0.022378939248788438,0.5821702073719536,659.6219555060105,403.4573269349707,618.9259970394662,jog
28.247078464106846,-1.0410294972223983,-1.058311384863496,7.562100112950447,-0.3713869100919087,0.21623059045887133,-0.19517992803247325,702.1664055455813,385.61949982308084,676.3223594078341,jog
28.297161936560936,-1.741368840470341,-1.042812383487032,7.9441781746678375,0.2189512240296302,0.06353997140144259,-0.04830887687227724,608.390178599749,422.79152260875304,617.4775587958003,jog
28.347245409015027,-1.3573197317264631,-0.8192816273257038,9.597361624842682,-0.932034269005906,-0.23467388635091752,0.14900377196582779,733.4246964063431,334.61985871407035,739.8847610454096,jog
28.397328881469114,0.14373639076672887,-0.014942803200327648,10.79789106764543,-0.7191874156245217,-0.8781483100945809,-0.1737904606123104,744.7142972305771,332.2238983718154,680.4374227970775,jog
28.447412353923205,1.2638107154481872,1.1658700714418522,12.019494576927519,-0.2602987981366932,-0.7786067346545426,-1.1360574242708112,682.1782596123833,367.3410492656954,671.9256879663891,jog
28.497495826377296,1.9401990703415757,0.9355961148999823,11.525022248702784,0.3463663733792449,-0.1805491108263,0.05324508981352168,656.94562769465,358.9728930718069,632.2787148201506,jog
28.547579298831387,1.805177659219377,0.767109910979676,10.44103314908528,0.5488191188900322,-0.3787650044188357,-0.07894752506763422,698.8428632002361,407.19360643213616,626.2684149154884,jog
28.597662771285478,-0.04404943943941264,-0.2753991149074031,8.939422679798799,-1.0477312045094156,-0.5026644836958196,-0.12423583358726004,606.0882846172383,349.860547405189,597.1603807251246,jog
28.647746243739565,-1.6603403968737365,-1.7739593247827443,7.681286447919358,-0.71346663925767,0.07073511124210313,0.9341419998979558,655.1344483221102,431.20805858193506,618.7178798529574,jog
28.697829716193656,-1.715947515035469,-0.8989195877893261,8.116920250301932,0.616879427810256,-0.14754662535644575,0.8746350129037294,703.3189065676029,333.71765649744543,576.685224559418,jog
28.747913188647747,-1.290789575352525,-0.44841120516539706,9.522459245795297,0.0010320490052312357,0.3589213118043538,-0.7485980196484261,715.880151283932,375.13768741364385,586.691229514601,jog
28.797996661101838,0.25740310926232546,0.4988550030092877,11.03432390410268,-1.5073364772855125,0.7227284564693423,0.8896922707589369,631.9554676783974,367.73593039385685,625.6881488311498,jog
28.84808013355593,1.5788994855994218,0.9198556125415056,12.076222628606345,-0.22273061053355514,0.5657431030843706,1.2945544622919138,657.391691174708,360.0914768746612,620.140094625403,jog
28.898163606010016,1.6043295672241664,1.1171844932901671,12.0921165731188,0.7386191458102266,-0.26587352412709697,0.03081239063026659,672.3638800108743,348.00414612376335,693.0217436726682,jog
28.948247078464107,1.3965863218187633,0.6114937584216507,10.027028599445082,-0.4239282352716396,1.11798650255036,0.553627920231046,716.3148465662493,326.5892093030314,598.7758680378433,jog
28.998330550918197,-0.01074100968818019,-0.890025755591836,8.824400471007774,-0.49326046245391975,8.947499737639585e-05,0.8897318193416257,708.5072787689443,385.29644651111045,568.1036723774171,jog
29.04841402337229,-1.3487751485504536,-1.7183828281159739,7.59854769361659,0.3540054348661863,0.06620556923273166,0.7170612908383152,657.3209816245625,347.2261692591831,605.3791776074959,jog
29.09849749582638,-1.4438024123096564,-1.5901191841460773,8.193967865343794,-0.380955789223858,-0.7667570383353711,-0.35159575044782704,744.187961690708,408.5142948196697,651.58266896175,jog
29.148580968280466,-1.801566534847448,-0.7620453966111873,9.70760456696865,-0.494460542330015,-0.09916327949558552,0.8573680917336325,663.3879312487101,420.64171655005407,643.0663467333774,jog
29.198664440734557,0.1750894012804604,0.1846860583365273,11.193639845770276,0.5574424279470559,0.5324505633123114,0.3953301930740179,691.4554456147913,441.46212870892407,684.6739875291302,jog
29.248747913188648,1.2664801472105274,0.6628332402493671,12.8939688104002,1.0518305813899134,0.07191898978090058,0.5878741154426304,725.7457628078166,446.88520597601996,621.2886276612757,jog
29.29883138564274,1.716639365819958,0.9630749119643294,11.8242715243783,-0.6515699744000252,0.4313063372323384,-1.0203943962756146,722.4348678244468,404.1952511405707,530.6245004645643,jog
29.34891485809683,1.277524916607494,0.5962111956749578,10.411354358848172,0.6938450800383696,0.15910547271995495,-0.27396093247924963,690.165504652815,321.72637592161976,663.5421676174689,jog
29.398998330550917,0.08770095807223849,-0.3625872563892884,8.881605425240299,0.35543752333168205,-0.11772680705100436,0.23403622979472147,644.6509605457846,347.0925990905159,624.6719293101545,jog
29.449081803005008,-0.9036696488081845,-0.9912301929301848,7.7331986047982095,-0.6933450631973276,0.13675006763292638,0.35252808046074413,593.7852529706021,392.40280693753823,596.18118856058,jog
29.4991652754591,-1.671152236769831,-1.3265467316020192,8.367031933765022,0.5492784790764597,0.6574472910242696,-0.26508754421247815,668.1199022973516,389.787539336907,642.0661470715133,jog
29.54924874791319,-1.323582581754953,-0.7590316152675813,9.749354784343295,-0.7103047831987804,-0.07915772660651643,0.31270837072706337,655.5613503679749,368.2312091319862,662.2181043304915,jog
29.59933222036728,0.2786326713994289,0.14356730973862653,10.840625433636234,-0.19584162821883377,0.1239157067220799,0.13841880972542914,680.9895176721941,360.1682490278272,584.2878545715507,jog
29.64941569282137,1.3299043235537813,0.6449871602344759,12.338983379955335,-0.13488490895595778,-0.6588020487657085,1.0476964242405669,723.248397436904,412.3470964549123,558.8571200195274,jog
29.69949916527546,2.112703539667871,1.0055344827471338,11.757597320970705,0.36083186883417856,0.6303753339506896,-1.0092491870554152,688.9200262830321,403.62172847739566,555.9486615442516,jog
29.74958263772955,1.0487292873962102,0.45005772691397355,10.075519029263326,0.47878024773953853,0.2867928105360152,-0.49365948302835916,692.5891311961692,369.8232965677738,624.4563371508202,jog
29.79966611018364,-0.09295153260621893,-0.1354202580332149,8.609140253556735,0.10211931967208941,-0.779136999197675,-0.8416032231309539,654.6573081604595,364.3929334564905,611.6343403700014,jog
29.84974958263773,-1.3050283276980401,-1.0839729628228907,8.113934668463829,-1.2220700091317742,-0.5290245092852345,0.7945922776327067,620.8764544463911,397.5424171938308,586.1203565476585,jog
29.899833055091822,-1.8986293371002183,-1.499131747428435,8.198204953390693,1.0074239893612227,0.25057045378259507,-0.12710759452076548,629.5039660214502,447.23594461490814,620.3885218035464,jog
29.94991652754591,-1.2824906308334618,-0.7593234280960637,9.289066147946393,0.9533362147140615,-0.5024877178798806,-0.2351472711014488,607.1035707625831,430.54191258840854,654.5343216660001,jog
30.0,0.215465289497755,0.1036109501704171,11.239105939017197,0.4475476193502646,-0.044760780820118716,-0.200082372349128,687.6441121000064,386.6684006869782,648.4792415511095,jog
