timestamp,ax,ay,az,gx,gy,gz,mx,my,mz,label
0.0,0.07015165841276647,0.0835983397066366,11.133116805664477,0.45535174602936707,0.8996482923747496,0.46155953288866103,678.4633521869775,411.35185476850984,591.9844773333768,upstairs
0.05008347245409015,0.277492886389222,0.21948588846395273,11.664247485522255,-0.5762347339325662,-0.6435865268417239,-0.17838976421274494,682.0364074040489,336.6979387676131,702.5666527929585,upstairs
0.1001669449081803,0.6221718382009014,0.6913139854630777,11.468241112542298,-0.537717600426464,-0.529343444930308,-0.48934460517987083,721.7375109443752,442.35034893114005,638.6432228579341,upstairs
0.15025041736227046,1.183601823431604,0.26659331231893646,11.094525612117044,0.07952432239883586,-0.7739533603026231,-0.5758068292144443,642.4702171945198,336.26335915465035,640.2872913466485,upstairs
0.2003338898163606,0.9392605050553485,0.06429462401176445,10.19205288720381,-0.3599446854695836,-0.021529160342631925,0.2528413702272277,688.1445215180277,388.55000950677857,609.4982330566963,upstairs
0.25041736227045075,1.1001971267356137,0.5408974541052622,9.735937783303516,0.629907005027051,0.8486874495094675,0.5910402739717994,716.846356713071,368.4945333743925,581.2720757727927,upstairs
0.3005008347245409,0.09433198659718503,-0.4114930202778831,8.866457513473282,-0.7308564609584475,0.2742527269354335,-0.04562604050526823,651.0556023979161,434.0547127160496,574.5602825754358,upstairs
0.35058430717863104,-0.2112927384549234,-0.4823475021171513,8.137387938650809,0.01476731226173463,-0.1931153637728737,-0.7878239646202656,797.2175120218845,466.4536302695511,679.8811463676282,upstairs
0.4006677796327212,-0.8135650809502196,-0.8306183564935443,8.430787111221461,-0.06703552710199907,-0.35071281925961323,-1.6646964602018175,681.6508996393733,380.96229589361496,755.8645328613155,upstairs
0.4507512520868114,-1.1718534125785935,-0.7821518188888184,8.69826159937297,1.06402215449585,-0.7467442818244229,0.4231903552026583,696.9296827985097,371.27845329944296,600.5735585960185,upstairs
0.5008347245409015,-1.067125096157998,-0.34471575602571264,9.486685906647713,0.6755818299445185,-0.2561755631584389,0.43132850632615444,724.7969850831533,328.73141754014324,612.9818057799307,upstairs
0.5509181969949917,-0.708747664802887,-0.08100304460311086,9.982426893471096,-0.9869478138844436,-0.1561460708923649,-1.0345371059139152,652.0126389211443,305.1896546819061,562.0642949049609,upstairs
0.6010016694490818,-0.48308964463289167,0.1639766110316075,11.239063765254802,-0.7400982558231142,-0.5193414363838404,0.74270367468351,691.7026203740257,316.75232246705633,580.6526070658399,upstairs
0.651085141903172,0.4822559632679479,0.31888040492180775,11.368877681492554,-0.43772189078581736,-0.64880534558109,-0.378051682942283,678.1122293206948,354.2963747310438,581.1427873785715,upstairs
0.7011686143572621,0.6468871720704724,0.338644451368061,11.18949093829565,0.26584265962339637,-0.2035990873328922,0.4972613960010848,643.6405466397509,418.8798158532581,631.7210725933048,upstairs
0.7512520868113522,1.0897626298963725,0.4240389797662662,11.141131500831694,1.581729052416474,0.8541857167550685,1.2345096420669033,655.1312601630596,400.42967495108905,617.749796362973,upstairs
0.8013355592654424,1.3405182528233728,0.44524078387408367,10.736206967824135,0.08354411277106341,0.4612821405768943,-0.43432369156402306,708.863297224565,416.9192668015223,665.9094507370307,upstairs
0.8514190317195326,0.7357706532516178,0.39038426358022194,10.023468976673133,-0.4865665092257453,0.3105230205933763,-0.9772359977752945,694.1249223996144,381.1046515604934,589.3228970154037,upstairs
0.9015025041736228,0.4764137394630484,-0.011102776883147161,9.211599542208702,-0.713294611442684,-0.09595887281265703,0.6176773065829924,705.1447664525897,341.80017032295694,730.5570551540262,upstairs
0.9515859766277128,-0.216329191354995,-0.21415880690386918,8.22588611229535,0.3871845875268045,1.4171308767289361,-0.4228114519140131,651.6203376061396,345.14799820860225,671.7965052389094,upstairs
1.001669449081803,-0.5710347847129912,-1.3957888040123527,8.201608197108559,0.7515140028883491,-0.0684368327455249,-1.2011104630950646,706.4890498359404,414.7062008511595,544.8578442454047,upstairs
1.0517529215358932,-0.6324882173492807,-0.7689770144770525,8.389701792205873,-0.7985233334460999,0.40572837100638887,-0.38028853267811397,701.5162452806057,360.08544244322263,507.400360611759,upstairs
1.1018363939899833,-0.8980469537244065,-0.67115857314779,9.253634477784521,-0.7967108273940149,-0.19043087012267326,1.5486918676111252,715.5203191375545,367.72976660576734,560.3009005792014,upstairs
1.1519198664440735,-0.8657617263854238,-0.25834387958527205,10.085413218637294,1.6804843159258573,0.3498916102794789,0.3267201323109173,649.9854691176189,379.9700133167977,640.2700899047534,upstairs
1.2020033388981637,-0.4093426080142991,-0.08327079902593662,10.465674399330307,-1.2568117606483997,-0.1289776574118082,0.866081062116897,633.1302202778131,420.5164169131226,622.8047403425396,upstairs
1.2520868113522539,-0.011624067436287064,0.20486379490786316,10.912654360732978,0.7516780911118927,0.428426664868604,-0.30336122659319725,578.0872159860364,406.43210382862,527.266936773952,upstairs
1.302170283806344,0.5386970454619627,0.5139622173383482,11.255396656037654,-0.06853043502728977,-0.8828043461739239,-0.2178655800847285,690.8624757202482,378.5319971312384,658.5841547254348,upstairs
1.352253756260434,0.9732158428597307,0.3494039468968978,11.532272933387599,0.49125265688554454,-0.5278502291902738,0.1348876736675572,688.5185009384415,357.56429385503213,606.7430558829625,upstairs
1.4023372287145242,1.2332983299181715,0.6239785212277236,10.618329055525795,-1.0796251809123953,0.39129649865967925,0.5307597055492951,656.5564039369484,404.91654306583484,618.3744326147493,upstairs
1.4524207011686143,0.8864658198435805,0.3058788320711171,10.0530522097838,-0.19065755386770294,-0.433114549889923,-1.4187935415402053,671.5826182697007,418.45777610739816,655.7244350347036,upstairs
1.5025041736227045,0.7696952415065753,-0.26297241103574426,9.651790387977028,-0.8282020707311223,0.34786044077137884,-0.8929043712407653,702.2673003012587,414.12100908719725,645.3744807063566,upstairs
1.5525876460767947,0.05447359241662891,-0.43820223137689324,8.89871788983859,-0.0567945011159211,0.04728322501007404,-0.33155890978552105,665.1538576514744,403.16968025434454,630.5340067035007,upstairs
1.6026711185308848,-0.4960745426792394,-0.5968693590657204,8.410365204526101,0.5668941268916103,-0.5634640902689424,-0.28318726730091776,665.9390633852242,359.11277162593956,569.3822374142317,upstairs
1.652754590984975,-0.718570518483393,-0.49336068877983486,8.233172172433344,0.8892482884188414,-0.8085647630052087,-1.073060356563411,657.3252789050166,336.1493584979767,572.8531543681609,upstairs
1.7028380634390652,-0.9562728210595609,-0.7152320804121237,8.727530723602232,-0.3634716024473203,-0.042019647187456384,1.9903802192139202,674.5492307377114,399.3251790681259,537.2848294758713,upstairs
1.7529215358931554,-1.081866868454524,-0.6915631468160328,9.344959941590378,0.9090631599822534,0.8375413115146849,-0.08662436979688048,640.6317124467859,383.0768317706788,646.1143208780579,upstairs
1.8030050083472455,-0.5215898833571954,-0.48530763855099657,10.134142238161752,0.3629188645632095,-0.23454000826488006,0.1884240752954572,679.2196967009984,340.3234345220816,603.1862732871543,upstairs
1.8530884808013357,-0.12205321209136068,-0.00022077407310558406,10.627823280203765,0.08781007450995294,-0.6838038654506613,-0.3370441045795899,669.7951457716268,345.5685102625084,681.2275229075831,upstairs
1.9031719532554257,0.1822702241526128,0.18311235317080915,11.304339374564286,-0.2808775408810378,-0.03510531108266354,-0.02081259212823627,635.9447796226892,401.2412933160065,568.1037025927171,upstairs
1.9532554257095158,0.8649529307700551,0.46436853689811036,11.458578900506401,-0.4665284604662487,0.15558839221411094,-0.3351463466058351,727.3140696409715,352.0805165769945,592.4783078517976,upstairs
2.003338898163606,1.3229201766307208,0.7713998205300832,11.029815260465647,0.5285759813289657,0.5625103330590939,0.5897170468254309,761.9404632547456,392.08741685067304,611.1558842325368,upstairs
2.0534223706176964,0.8144299634182027,0.030185921989170028,10.79574515817158,-0.1331236215905596,-0.5682563237431689,-0.07662336979238152,637.0325276991668,440.1296983651562,593.4722091664437,upstairs
2.1035058430717863,0.8828622270551024,0.24028810475174622,9.524206088248084,0.5890908223686494,0.5451868154961327,-1.3591307608281806,636.1190919838722,391.5636569793079,624.7736956450909,upstairs
2.1535893155258763,0.41881690428616264,-0.24409277441897692,9.258594174948778,-0.16239557890505066,-0.3877498227071286,0.3197477791037488,699.9425294230084,441.30444334175957,599.7051264540113,upstairs
2.2036727879799667,-0.05834766908951429,-0.8997002492254504,8.568202552951263,-0.2927360992270263,0.1380577006517238,0.7719729345761422,717.0522311310259,395.81331728545894,615.0324067369716,upstairs
2.2537562604340566,-0.41939436502524713,-1.1107259823504203,8.34593185988342,-0.6262473563950658,-0.12862039976270073,0.14839090181006329,665.3836805597999,389.7362822668297,716.322102784833,upstairs
2.303839732888147,-0.9856271893431613,-0.6048954643122113,8.305207805589163,0.5767057798725596,-0.6834551033013235,0.2523300267626078,725.6287979754418,340.9483248070918,615.9277044477922,upstairs
2.353923205342237,-1.2268339663127434,-0.4010080684370874,9.093482600639023,0.17609162091129027,-0.8260179929047993,0.5887511699992009,627.1374924138404,419.36033244223154,567.4819152987402,upstairs
2.4040066777963274,-0.4243050155621481,-0.4398954467941182,9.986336279664627,-0.24137945953124007,0.573260930542005,0.36052651365014493,625.9473744402617,397.44594321939286,545.7507650678315,upstairs
2.4540901502504173,-0.2536471553004241,0.21592384711851254,10.488315865473192,-0.05174307936556657,0.06798364700276667,-0.39114123291235653,758.170586629574,364.9144528458119,644.3383823114989,upstairs
2.5041736227045077,0.036222157589735286,0.1461576616464475,11.457007696688894,0.39571734948913495,0.6752165009405804,0.17105808974037803,702.2531037553523,388.44344827541124,625.4313907851306,upstairs
2.5542570951585977,0.5909241615089428,0.36948970616834464,12.153954053233084,0.40133199032234756,0.805806474875116,0.06857769006845099,709.5311076027137,398.64637458360687,584.8214332438406,upstairs
2.604340567612688,0.5299657129546563,0.6565761896895728,11.479773755524022,0.8418228024363107,-0.9814407218010477,-0.9895255602719216,657.0712234703758,338.3107138220592,651.7030267260149,upstairs
2.654424040066778,1.1232260899757558,0.7093555510979588,11.124545419603495,0.6998299429411977,0.5076629496610552,-0.743636643057621,713.9495350629552,448.1921109357712,674.8395892354351,upstairs
2.704507512520868,0.9219272465315747,0.5054527387376564,10.421431101432042,1.0205476931553892,0.05545049447552721,-0.6584005581526284,744.4056735901643,387.15400720393353,587.4695029549094,upstairs
2.7545909849749584,0.579780955331681,-0.19284088623253148,9.610105460174582,-1.360898701863972,1.1214718911528294,0.45871101413145043,673.9149250713535,362.0162712334017,570.8201853670616,upstairs
2.8046744574290483,0.35441030435575,-0.17922966356963255,8.52365368846614,0.10796194641118362,0.17482880353715177,0.3591939326389516,673.2276617931064,371.7928341847058,661.5444223460798,upstairs
2.8547579298831387,-0.5978594305299998,-0.8631702508856003,8.25246483937423,-0.9616490070885052,-0.4850516527137888,0.02130124153112774,725.4858254303472,451.5641653293019,610.1786833462786,upstairs
2.9048414023372287,-0.8862184854284206,-0.7490079454116592,8.132202148523207,0.892826927951173,-0.45457288030530263,0.4008885439655378,732.0821266427473,395.4331668893311,618.0739964830423,upstairs
2.954924874791319,-0.9570607254493527,-0.7841421240076689,8.788724027446012,0.7224027748407937,-0.5913956708626661,0.050801783574487,642.4890407100885,331.3887846513535,689.2357061593387,upstairs
3.005008347245409,-0.8880891641436698,-0.606502178845908,9.550875231917184,0.6532183400254428,0.027845087386719855,-0.3606397626738207,651.9961935730778,368.2834063708972,663.8771056046397,upstairs
3.0550918196994994,-0.364253661077308,-0.2837303391552179,9.902385221561364,0.03078839834597351,-1.467059451930563,-0.6156116248790875,678.7008226047426,427.7050347364241,533.5990641038189,upstairs
3.1051752921535893,-0.09338357638033364,0.23682200622151028,11.104919125270554,-1.0149606409076446,-0.060599529274885586,0.4304506251565155,591.4711907830272,467.4908214939892,599.9028726324141,upstairs
3.1552587646076797,-0.032696413287228124,0.6788384078502103,11.375783053670993,-1.1972071146328978,-0.6532032847479025,-0.32140012815774305,695.2518966933771,389.0525536155003,572.7710966879976,upstairs
3.2053422370617697,0.7226962890340981,0.3150616291201802,11.571292795543402,0.2803907629356838,-0.7304264752131819,-0.026566198267022077,679.4001518189361,411.8007997285091,632.6470327736929,upstairs
3.2554257095158596,0.8558255910110423,0.24637062743233668,10.951309058632607,0.6508348740851271,0.5697995701408701,-0.7883748129226705,740.2721357639307,415.8127624103565,653.1761435296484,upstairs
3.30550918196995,0.8099602504532024,0.5180731682309934,10.336127228184617,-0.1792572632327423,-0.5263226202395419,0.8184790925837581,768.8299290403487,426.73664532457735,588.7168170822194,upstairs
3.35559265442404,0.7109590404892187,0.30175410202942743,9.686142844192469,-1.4128904139755996,0.29972421876130273,-0.29572847867738067,658.9214524724862,408.6423242328256,610.3283226074363,upstairs
3.4056761268781304,0.26109837850108936,0.10040344418153321,9.030476483401118,-0.24397176306477292,0.10812594102933643,0.42481374912147807,678.3455343013052,382.7978226916403,687.3160695414034,upstairs
3.4557595993322203,-0.3209045259724002,-0.5848978387715871,8.581788420003877,0.9320687881338875,-0.4406301809001602,1.7102814939792441,668.9033968664588,393.12789719997727,554.7857587132046,upstairs
3.5058430717863107,-0.8012332377385412,-0.8902982114892821,7.979649694432129,-0.2311927974304926,0.5934344959414577,0.33238483993125156,649.9801069456366,367.0607632482167,702.2713627136056,upstairs
3.5559265442404007,-0.7135881802501067,-0.46637552054747,8.304067543960295,-0.5689683426662324,-0.6083365305910122,0.5692833391969628,658.2636098521882,416.87157162939786,641.1304792695848,upstairs
3.606010016694491,-0.955144888325106,-0.3683958145611256,8.788658374272918,-0.24904503647026624,0.5274323899290246,-0.16837165665437703,671.9733147031515,426.98152091007523,682.9954077513031,upstairs
3.656093489148581,-0.8362645374415381,-0.32923177506219836,9.779105807867609,0.1082370455733233,0.18952009661130384,-0.00013509829595392426,630.2968712657671,401.23704721568214,708.066888155196,upstairs
3.7061769616026714,-0.21510525969280864,-0.22707090835591107,10.419126772106386,-1.0390997739522783,0.43971503487306157,-0.9306356199963786,657.1606937078924,317.6261029614994,688.7798531100975,upstairs
3.7562604340567614,0.24695432706115922,0.22838771732853835,11.213603793091991,0.5122537807163091,0.43439798417933423,0.06666630043923044,726.6317361995794,327.7329935112316,608.885524699843,upstairs
3.8063439065108513,0.3007665601935703,0.6317594114537886,11.557176195365042,-0.15923779265716617,-0.3009357434841637,-0.9417219222107542,685.1406918956185,463.48652655819853,593.0581556082383,upstairs
3.8564273789649417,0.8505968598553408,0.6723014623104704,11.603437713435754,-1.0410479119852252,-0.5073412683162779,-0.20751940781575334,722.585599339761,344.9292349160576,631.5030901209835,upstairs
3.9065108514190316,1.3473106363168457,0.43868670073213767,11.154928105220824,-1.5733467818009972,-0.05129140106811764,-1.3750295639236243,693.3891783463854,361.9462457061779,633.8158218453272,upstairs
3.956594323873122,1.0102671877349534,0.24565944976303705,9.983164845292757,-1.1101204808877105,-0.8969252073118116,1.9844148455610338,707.5231849700052,371.90120551691894,619.1549876792188,upstairs
4.006677796327212,0.15220361272217242,0.14702855056802708,9.455765137660508,-0.36475645815674373,0.6124513158924552,-1.6744197052455867,703.9678194041196,354.4136483067011,664.2601148134496,upstairs
4.056761268781302,0.1552805196620226,-0.1616996700976984,8.911103731051876,-0.24875345253283365,-1.0987378046981329,0.7609099976407852,739.7108983653721,403.34172737893726,618.6378134647421,upstairs
4.106844741235393,-0.18283950493453766,-1.0287680323095887,8.266878041644292,0.9380487561279282,0.4698714893722877,0.21044578743997594,699.340295631163,397.5452780437712,572.1632295339487,upstairs
4.156928213689483,-0.6767704695114785,-0.7061867953523457,8.264564649250394,0.4997202220178987,-0.1696974018502531,-0.2403278439656138,678.274472641394,366.1251353956613,659.355203033077,upstairs
4.207011686143573,-0.9936431979890453,-0.5892960344609379,8.817290255164012,0.7782144000080673,-0.9893818575423232,-0.6557568343864294,644.3480754081451,439.17967986542556,565.2264558407936,upstairs
4.257095158597663,-0.6561701432415136,-0.526338455657668,9.750082039279159,-0.7514796002254238,1.1923959174593348,0.28061796775439,689.8703639961203,380.7364574218441,609.6736200169012,upstairs
4.307178631051753,-0.448579268224046,-0.17268041247599897,10.131773265534019,-0.7826581636830429,-0.014468244277654266,0.6674992754978678,726.1713895555794,379.19510008661933,567.0274505173429,upstairs
4.357262103505843,-0.18918859123415926,0.3406900110401219,10.925409641982917,-1.1668674316327985,-0.13406583412079043,-0.6963365722616531,650.6702994084092,422.64484606162694,590.2447657004849,upstairs
4.407345575959933,0.4121240660272934,0.3801225341116278,11.70029979771066,0.29645671437530097,0.468825475265926,-1.6009700533666056,805.2694101561043,405.72586941893263,500.42591494216776,upstairs
4.457429048414023,1.0240527357807914,0.3068759824128005,11.720399113220054,1.1700159732169066,1.0141887450817155,0.9754759279123573,692.3591714808077,354.22986922437013,618.1116121208192,upstairs
4.507512520868113,1.09209270373117,0.6890321537488415,11.15821404717415,0.22379806532147173,-0.09376500454591198,-0.3695025770149898,714.3364083628942,391.8692191332297,635.0692728490077,upstairs
4.557595993322204,0.6778187960508878,0.566195044250992,10.262606096705467,0.10725548885481809,0.06742716066918882,0.5307954142337206,721.9062723860249,342.5030397464198,646.0703964221983,upstairs
4.607679465776294,1.0466532250680731,0.2782896224009201,9.605424362209531,-0.08991481069436023,-0.2928918778225128,-0.4153195737612826,689.5115855957187,367.2337151356478,554.2329493531313,upstairs
4.657762938230384,0.393541326882369,-0.3324189197826995,9.05316664770485,0.3215248005296732,0.05556714839113995,-0.18741440865947206,697.0666402917273,444.73596336331013,611.2834628320359,upstairs
4.707846410684474,0.1355976934830292,-0.5073781016310015,8.616937392280077,0.22381624718582044,0.8118555486454692,-0.4123672996563836,723.4680712289442,387.6787310744734,659.6100242531465,upstairs
4.757929883138565,-0.6892850207049859,-0.57689529422505,8.845542352621575,-1.2815196563156737,0.358120754744915,-0.6767930383099796,729.3048229048254,347.39734097700585,690.0592018755806,upstairs
4.808013355592655,-0.9044865807289507,-1.129660892079916,8.29702719066529,-0.0619851289348845,0.5842601250544099,0.42582655239803063,619.494155467939,380.81526996811084,589.5684298480426,upstairs
4.858096828046745,-0.9765056477476762,-0.8372623958055221,8.820189807378501,0.9667424957941767,0.055903475233154455,0.21503215805840684,687.0427910524817,422.60635495379495,650.7924944587683,upstairs
4.908180300500835,-0.5508592435681879,-0.2895552139474617,10.183981956838162,-0.20175670201019438,-0.28343007756858446,1.2633324430047042,736.2856165349792,339.3741881676607,565.7046497731981,upstairs
4.958263772954925,-0.1737510199863072,0.48690999492748427,10.633347597819931,-0.8582127981451219,-0.5744225609719925,0.2193606819546085,668.4475139476373,384.3936705170391,594.769838807624,upstairs
5.008347245409015,0.4327353448181646,0.04912876737666322,11.172132922911077,-0.2671016483234004,-0.8374848221877945,1.8198837426066377,688.1408613718097,436.36073510289793,617.1423250671743,upstairs
5.058430717863105,0.6244125299503784,0.2562148194801734,11.589635252081113,-0.33302522732330275,-0.4455620629888858,0.5195246239987099,710.0839286756916,443.7583866957269,627.2770122858614,upstairs
5.108514190317195,1.092634163128775,0.1908524396050621,11.6051174299304,-0.3327104081356902,1.4685497432848362,0.3690524708661971,754.7205719951049,343.47198704076624,575.9789056903337,upstairs
5.158597662771285,1.1230989078061868,0.13169693016374623,10.870713454664621,0.21493242370889226,-0.05479570485058038,-0.6817267732836927,739.9814832132199,283.489415566553,641.0389061404373,upstairs
5.208681135225376,0.7785568393667167,0.41987920677135765,10.067317499878012,0.24339732049599022,1.5853068877549177,-0.22652240095830592,660.5221109149996,390.71690460097005,624.036046483276,upstairs
5.258764607679466,0.506507537161061,0.023190490341644998,9.58522138152295,-0.025616379561988856,0.048424508926093464,-0.36175179960925324,717.7230737771309,405.4061799160951,684.7864742187603,upstairs
5.308848080133556,0.2806223134675633,-0.23340255732041926,8.703891407458785,0.35523609643589993,0.06692339386998132,0.8671521991011403,786.4820526128734,443.3724358391007,616.9774049397024,upstairs
5.358931552587646,-0.687806986717796,-0.7639048232752883,8.620514179271874,0.08902759714457265,0.8802596663567946,0.09378897203854082,701.9327550583828,444.1865514691368,551.3520810468871,upstairs
5.409015025041736,-0.36851052815318147,-0.39241036591739725,8.610876340878518,-0.08463101004301268,-1.003762338808722,0.010559690216323215,633.6019431699006,328.5299513716605,594.9931989262402,upstairs
5.459098497495827,-0.8528061932426348,-0.5510074435416601,8.586689317623085,0.7838578359803099,-0.830081768554557,0.15933591349040413,654.6710170582127,434.9387799856439,632.821300901332,upstairs
5.509181969949917,-0.6748673369318217,-0.2631808822681794,9.71999938309645,-0.4630787952915511,-0.15783042744001483,0.23851632180851381,700.3815770065561,371.8143856684027,554.2259906704808,upstairs
5.559265442404007,-0.828230848194555,-0.49520533895907315,10.336219611049078,-0.6520820515094281,-0.356513422638689,-0.03766134750380185,623.939989025758,376.85353212366124,693.7979737446624,upstairs
5.609348914858097,0.07109636923267197,0.2702146259446672,11.099006009693037,-0.4812222938244124,-1.272976012801412,0.38701629949899363,741.6796892933404,328.121148884086,558.2755822353386,upstairs
5.6594323873121875,0.6798301617270243,0.07016023471503396,11.222573829039927,-0.136345138191728,-0.37301184160514006,0.12356379091948119,644.8743074146682,348.8542286228847,619.4265621517042,upstairs
5.709515859766277,0.7900906522539839,0.5543872725985148,11.700797066151269,-0.4179340166277662,0.7071982756652534,-0.9274957237402827,578.9967281943777,342.23181898513576,601.4249062057263,upstairs
5.759599332220367,1.1490905159688811,0.5423855558901898,11.375065789288573,-0.4088796167956965,-0.4911888080453474,-0.19417276078317497,732.8329167013803,321.9358511815689,567.9744273852796,upstairs
5.809682804674457,1.0191697489077165,0.5129196802161076,10.400375530907667,0.3370298834201184,0.7222082984856072,1.3351703052308022,678.5254454379268,353.6494759298152,599.545847071421,upstairs
5.859766277128548,0.5085321275664696,0.31299539037806884,10.004127218309753,0.7933653631521562,0.8984683731253509,-0.11693427401597736,526.3358852442241,371.7581702494308,543.9272610192277,upstairs
5.909849749582638,0.26311192708880493,-0.4777454498346079,9.035592715227422,0.9143249133263208,-0.33559769589541844,-1.0790225044790007,698.6165556478635,450.9809100339447,617.2562023437691,upstairs
5.959933222036728,-0.0002705909806010459,-0.2954645816653855,8.529784658625534,-0.04959823166123212,-0.45177001332905836,-0.2877704150464471,633.6004127555208,304.5207348690204,588.525687589778,upstairs
6.010016694490818,-0.6393215636442452,-1.1112095321698545,8.541473691488626,1.3426053656248786,-0.00135594900758355,-0.5009698011945776,659.5262516208918,368.2840736040745,624.0575274332307,upstairs
6.060100166944908,-0.5310062363899076,-0.8597405323492082,8.727425773706663,-0.5505804062293946,0.63347403267479,-0.6420616573251534,627.5525182076319,340.77946503248614,593.9741558056047,upstairs
6.110183639398999,-1.0529882588944077,-0.8107648484790086,9.083903856408991,-0.5938232940368132,-0.30239375493933035,0.7890871232916552,702.1068482409897,402.2880969008751,625.7630107797603,upstairs
6.160267111853089,-0.8293953419294305,-0.15986341483566346,10.034527420616174,-0.8124949224159292,0.1689982691137917,-1.9188108431864905,667.5069508317249,435.3403484098428,621.3809704862382,upstairs
6.210350584307179,-0.40399487055435157,-0.010172451247117291,10.62697045218928,0.19470645720693044,-1.193125894385037,-1.0739236446619973,648.5919466526589,398.8745557834348,544.6797060452166,upstairs
6.260434056761269,0.06331050859131675,0.4707764442074334,10.50106637028073,0.008520553440701868,0.18700377366568396,-0.27694688279899954,578.6033740325795,431.8346721709073,611.4275985511971,upstairs
6.3105175292153595,0.3913889930893991,0.8852745763139331,11.368764681669997,-0.6139439266224646,0.3533367438812842,-0.04710065470840952,694.1830034801361,398.030746685676,652.6078146630127,upstairs
6.360601001669449,0.9116149449607439,0.5774535251190991,11.110945958019027,0.621531965620429,1.1522568298132354,0.6368135590798804,676.5634676027142,356.65654881157576,543.1262241286156,upstairs
6.410684474123539,0.9961582385113834,0.41610574578356724,10.31300120463506,0.13379422301131141,-0.339047097515714,0.6996163371058025,748.0492042836482,329.75090058259,656.0229225993404,upstairs
6.460767946577629,0.6684616748920928,0.28082489417987977,9.793726569507035,1.0701986620700912,-0.5954747404921275,0.7037754750244828,661.2977496436772,346.77767385074134,622.7882645116872,upstairs
6.510851419031719,1.0797780316024324,-0.11700501814772801,9.434323535555402,0.10483375932204608,-0.3177460479316766,-1.0546346520454728,659.1326526770381,457.18067688781866,639.8730214465742,upstairs
6.56093489148581,0.22123448974711452,-0.5812101905269207,8.342596694134917,-0.7394632242935639,-0.6065241858167468,0.41669566951395043,709.3788729881051,374.3709075873556,645.972688414988,upstairs
6.6110183639399,-0.616217220631033,-0.2207799306699329,8.379781001738753,-0.4955054214297906,-0.5903543218976925,0.1487996643561558,705.2995616446444,353.61138373539205,574.0424542869398,upstairs
6.66110183639399,-0.687955982082806,-1.039920231792975,8.539771215620698,-0.3425538892813511,0.5195745148188311,-0.38023377037971756,626.1817687754155,436.804913160827,597.7680924787003,upstairs
6.71118530884808,-0.7962425977361635,-0.9143560113792988,8.783204433967889,-0.5816187707890315,0.11431826426714695,0.45873923738603484,656.5160876940273,384.10181756017175,630.3181572815564,upstairs
6.761268781302171,-0.9416951821060019,-0.7370039070007828,9.431860425315344,0.5176767233205916,-1.2053491830190328,-0.9612487394500293,642.1972085813688,382.1618788254551,561.2777176082125,upstairs
6.811352253756261,-0.49197887207691343,-0.5359058886910935,10.711616333740412,0.3040829510027231,0.5323221571365696,0.6464634977685372,627.7756975092389,380.60167147248427,622.2293252234558,upstairs
6.861435726210351,-0.2627523324833239,0.24428828875860897,11.081982020345702,-0.8446556165891675,-1.492190857431968,0.2584497798365964,590.4591720731944,393.61451094542474,689.1806259920575,upstairs
6.911519198664441,0.46513283406389905,0.3870833575344281,11.478176956011739,0.19290541116418583,0.22923955943598995,0.5142034455731347,645.4218257231918,363.16731809698666,570.1789259358026,upstairs
6.961602671118531,0.8679454307487868,0.6934242275019695,11.607830178091778,-1.2127835947156904,-0.040451664036841535,-1.0288655248067589,664.4221304843104,394.46234938829997,661.6913726395317,upstairs
7.011686143572621,1.0161514366716884,0.51958322696816,11.183961514348443,-0.3585224933904629,0.4402173622032723,-0.6056483717980153,619.2853200587701,434.75186123483707,596.6480432575415,upstairs
7.061769616026711,1.0538583753930224,0.44265173655775897,10.218996825125142,-0.2933944307598376,0.7848048445026887,-0.4365280384047992,685.4586422634951,412.447970327942,640.0011334106196,upstairs
7.111853088480801,0.91209245464446,0.3032066799534257,10.055717577594507,0.3496046632790168,0.5168410860246206,0.5147556953326692,705.0147023033603,423.43132930712756,681.3567819290885,upstairs
7.161936560934891,0.20490269162496233,-0.2549169145471962,8.919773085193961,-0.07139217967288988,-0.24390373160511142,1.3600548399881263,686.1897882572399,409.2555856286117,609.8303344558751,upstairs
7.212020033388982,-0.1912715716674021,-0.42607714503864974,8.53898708458173,0.08816844988932092,0.14466389026391158,0.16213311090498353,698.0069573155151,428.49222970356317,532.7353884476925,upstairs
7.262103505843072,-0.5867271574280419,-0.8769324400388465,8.159964821734002,-0.8067637524824818,0.09176598762205816,1.8377647427170287,707.4632283440585,341.50050653588744,622.4808315964174,upstairs
7.312186978297162,-0.9108380875254929,-0.6659280812022814,8.927004016900389,-0.4560197401911495,1.1861446546743126,-0.2282895572880747,615.0361646337069,353.96636183698115,649.2929078522424,upstairs
7.362270450751252,-0.9037890271405031,-0.5813071336894475,9.093039446598969,-0.9923726991597346,-0.4290992912970839,-0.798505505565245,632.1933224075372,298.76426219254324,588.2749184851103,upstairs
7.412353923205343,-0.730222744555296,-0.2819792618574027,9.890407331106992,1.3522567936209189,0.022632956666870856,-1.6428118879539273,752.0349975055465,389.76585119967814,629.6613914483871,upstairs
7.462437395659433,-0.4968718833702424,-0.10610194718359983,11.100020670524266,0.11309206515634132,0.5549259676633725,0.771304008988401,704.7322653719365,357.1002878451881,498.8822564574676,upstairs
7.512520868113523,0.27319345470556994,0.58671955928211,11.317429600933345,-0.5900847654608549,1.3274164091426401,-0.07648077813654972,776.2926912105531,419.9670984976339,594.3126583265017,upstairs
7.562604340567613,0.5554161050003219,0.8597055227121251,11.55545367815329,0.10729807857152514,-0.5935104755679564,-0.07842511285290099,654.7141466575654,394.01247055836023,577.4060728066714,upstairs
7.612687813021703,0.8395991925783506,0.8443991833575633,11.08667458481236,0.5180020516397936,-0.7029662171617699,-0.30809496380095425,662.2295290706243,422.14141214218165,590.0306050917095,upstairs
7.6627712854757934,1.5454596301237522,0.657822726844713,10.357911571382928,0.6276319928181704,-0.558043551463239,0.2786525272297516,655.5045596377257,422.2581029609598,553.519022166181,upstairs
7.712854757929883,1.1237542958811488,0.11489165156041722,9.827463030386465,0.18975932898517725,1.163717762001691,-0.2304641120003982,710.1912287228721,419.81263000277113,563.6687873130759,upstairs
7.762938230383973,0.09526188466832318,0.17485232576077972,9.330804167141416,-0.028218864007830025,0.4217137682661701,-0.48868480153397825,673.5865761361981,349.85899436803663,588.6484409813361,upstairs
7.813021702838063,0.35018549442024577,-0.4192855248135094,8.57854113009908,-0.6442555723055463,1.5824033644900994,0.01831103882126618,663.1302473071826,385.9340826943096,607.3970043356364,upstairs
7.863105175292154,-0.38813803567065186,-0.53655114499162,8.153341489266857,-0.7430988037898179,0.45155987283239835,0.6993798440350828,714.6436733845832,394.6918842565039,621.362040250778,upstairs
7.913188647746244,-1.077611719151987,-0.6753522510571008,8.368044913156977,0.4666206361404864,0.42144650561984187,-1.4847306212199107,682.1625208954969,325.85182943830074,634.4231103722976,upstairs
7.963272120200334,-0.9287713228744051,-0.8086564779838623,8.708497019743461,0.2096186919798577,-0.6232397714945173,-0.22864316831806897,653.4287215527677,417.38082509197494,652.4649343159016,upstairs
8.013355592654424,-0.772806817652678,-0.3476656850789899,9.585429348878499,0.5481769997617205,0.8674432742837496,-0.4558355309377481,665.7169391244087,311.61077151549404,589.249716349354,upstairs
8.063439065108515,-0.22512558952517192,-0.2768515886837672,10.093187355239984,-0.38439386286661764,0.4694614624711932,0.27731083122381983,616.2054169152102,339.36860410783913,574.3418287516337,upstairs
8.113522537562604,0.10682505591501232,0.29358037074664983,11.20182128460085,-0.7963695756871674,1.04751535286997,-1.0269945839155517,649.8421373302946,366.67214828986965,577.5062565260912,upstairs
8.163606010016695,0.22641440006800873,0.36886459195199267,11.222557479309076,-0.496136483039989,-0.24575337253235485,-0.9080121173858677,683.5851779915004,441.70870524592453,617.3754331877285,upstairs
8.213689482470786,1.234222068573759,0.4964064353552982,11.622347316908215,-0.9327994384062387,0.10329037647287699,0.2266102070048353,657.8582995562226,369.0996844179364,567.7780344945919,upstairs
8.263772954924875,0.7722084769158442,0.26442233545904853,10.90305465431936,0.13053575644951998,0.12188334572850382,0.3281488936708238,575.3386920882747,357.71557383259426,608.1523231728645,upstairs
8.313856427378965,0.9915520705900188,0.5721844423016087,10.34518678175454,0.11285877619717069,-0.691991097681348,-0.06834696864286519,624.6107279099618,384.39510032847244,603.958728991166,upstairs
8.363939899833055,0.685348978033756,0.20138614887470946,9.662566220537704,0.4754666542379405,-0.9232683596382885,-2.0340897352856273,671.0555109843386,405.9745622325018,638.1372431447542,upstairs
8.414023372287145,0.42984078024108396,-0.35466922455129707,9.061367259229067,-0.4563720978045175,1.7668347113373442,0.8386036944613555,747.1345620265787,339.7299828448831,559.5394951187502,upstairs
8.464106844741236,-0.3309107786911864,-0.3374149486418992,8.686065132142353,-0.36694648665456664,0.6102004182154419,-0.45012345141851656,696.2145403353709,383.86933317128756,645.3243620085282,upstairs
8.514190317195325,-0.5587465327630734,-1.0851484774344644,8.33348299776592,2.0520478227497434,-0.45992832909518905,0.14103242417344092,667.568105931069,359.1283353539074,611.2462791313884,upstairs
8.564273789649416,-0.9272557112476248,-0.8005338389303627,8.655284724932695,0.6730453425437035,-0.48910830036393993,-0.9885812688480844,729.6569642480597,384.96647207826504,675.9626494617497,upstairs
8.614357262103505,-0.989114393895535,-0.7355941123249119,9.280808037564285,0.848915212256043,-0.4330812437179072,-0.620411212926785,677.70799063678,393.10958863771447,670.3018549961032,upstairs
8.664440734557596,-0.9932735450473845,-0.21617295804277126,9.855732459822228,0.32531286683061184,-0.8960369028105449,0.9691042064434655,596.8372084976531,315.68275713949794,651.3768353895118,upstairs
8.714524207011687,-0.7335933009290986,-0.24420559591243846,10.786554207030886,0.2787753678830242,0.3037100363320316,1.5284428441015336,679.6224217578432,414.19937000209336,679.8858468315685,upstairs
8.764607679465776,0.29186058589450303,0.31141366482390914,11.183614596783885,0.5607580926012796,0.4798744408264827,-0.5410399804745183,755.0192540060968,419.7032941557068,647.4330014145188,upstairs
8.814691151919867,0.7361289202715353,0.38111672531370683,11.558346605842328,0.6687697729431926,0.26580055088273535,0.09504539952063154,586.111645763056,341.0198481106873,631.7362300151073,upstairs
8.864774624373958,1.1125094384674719,0.6238672684686559,11.405878994568186,-1.1556315673932467,2.0986664199165777,0.1459810083212107,695.465855772116,370.0583921193081,620.6936071784436,upstairs
8.914858096828047,0.8373690546992778,0.5488299611631011,10.868124083981845,-0.4361814542559291,0.13015585696925167,-1.353724000182696,663.1179101918759,350.39989014540237,608.1143468508352,upstairs
8.964941569282137,0.7754153808718288,0.03043414702853789,10.028977978951596,0.13451915343236376,-0.9698585456566035,-0.890632936113997,699.7664793037296,342.3351746872175,631.1332277161731,upstairs
9.015025041736227,0.652505206518334,-0.23961248550991,9.224012555554111,-1.3619068346646337,0.398310829014203,-1.2925101874528582,702.3387689975518,414.6433888736089,630.2743227300758,upstairs
9.065108514190317,0.07564301959347748,-0.2427893292142143,9.134031756540905,0.3142569757370436,-0.6997000077685049,0.9080065310168908,684.5667532416431,463.4260932824601,689.7025535318629,upstairs
9.115191986644408,-0.053114794486557496,-0.5192430639123877,8.10806890834751,-0.2981389018107547,0.7879431438253353,-0.6872527939947491,747.3732266457973,402.54090002109336,704.030016434499,upstairs
9.165275459098497,-0.6686121183248172,-0.5915317355541205,8.374845281737171,-0.7482137388599663,-0.6939759476844823,-0.9424348241085446,766.2311747813432,365.55397915436413,579.8831803669491,upstairs
9.215358931552588,-1.0020890828826672,-0.8622626411862004,8.95253169219919,0.03005215371003616,-0.5250554648125096,-0.06376239964391187,652.0388768902015,391.761546370962,574.8068250787189,upstairs
9.265442404006677,-1.0388599644829124,-0.2644071512801376,9.470795653991154,0.529729369380455,0.5063976606363884,0.09929550860772571,688.2719578382942,358.7853585208203,595.7682987526559,upstairs
9.315525876460768,-0.3062209411193309,-0.1502708744142803,10.504185612416789,-0.7585376708591332,0.22930161353813608,1.038621607487562,664.9734257889364,404.3115440082197,561.2412333637651,upstairs
9.365609348914859,-0.10093100128517508,-0.023197886823661973,11.34720568466603,-1.4619385195354502,-0.526380023906135,-0.9929701008508265,666.4828394241258,451.685364509795,577.4717061273283,upstairs
9.415692821368948,0.18511915020879782,0.16776777362576406,11.14791164615242,-0.42807832403723745,0.39414472271307416,-1.2655335956971054,587.8371372326067,420.757170120018,641.3362085113642,upstairs
9.465776293823039,0.613878861970635,0.9488331563482029,11.446078574376576,0.05805556693936662,0.06538423759963802,-1.3438642607741775,705.7303227523527,421.7351563265362,581.1677735559656,upstairs
9.51585976627713,1.3854879435436986,0.6113759079881202,10.82940622083255,0.2336733323291719,-0.6976121065876836,-0.21655566915221622,591.9819319166182,356.8138173296778,614.5614162394093,upstairs
9.565943238731219,1.4668652157228381,0.4628370113441697,10.281307005839704,0.14451459869820396,-0.597618679478635,0.16836383741299865,723.7159695006122,371.4078978665894,639.2702354780156,upstairs
9.61602671118531,0.5036913961935451,-0.07521052849873738,9.685164001828747,-1.3312844157294572,0.03229104557540166,-0.14028512591147965,670.1926669121531,385.9312597225431,621.8325854557979,upstairs
9.666110183639399,0.207586915398828,-0.11155685176954586,9.371929473250594,1.5277374207125904,0.11879564749737061,-0.35699074311221335,719.3686730075259,408.9448815141712,605.2768058748314,upstairs
9.71619365609349,-0.29248243984718975,-0.6963733837777848,8.662442436895754,0.7224133334124208,-0.4489756122059257,0.5603274333956537,727.976858252485,394.74788974046766,622.3246053087944,upstairs
9.76627712854758,-0.8594700795524386,-0.4067116822029987,8.394129631463374,0.8576293779977908,-0.2569522581966804,-1.3648127606554572,713.2505228324015,369.26459383341495,590.759269028598,upstairs
9.81636060100167,-0.921199822258148,-0.6828823964328941,8.83419955879243,1.6536983478625087,-0.4882396472604578,1.3300541504485668,696.1889428579202,415.9316648953164,551.6353751596077,upstairs
9.86644407345576,-0.8891519029935964,-0.753818593444803,9.009042117733602,0.279011486655906,0.039393485108803625,0.9898582400095856,671.7841926544836,373.839910064572,669.49936479722,upstairs
9.91652754590985,-0.9574982551779149,-0.5807955064555086,9.672829193852163,-1.095482667342334,-0.5210231206203826,1.5506419533422275,678.4580327655005,328.6493967510778,559.0282491053985,upstairs
9.96661101836394,-0.188496158392446,0.24379574110856905,10.765622500675827,0.3527583358900124,0.014958765249680043,1.1001122902036786,679.0275200092784,422.99902540469236,631.0820496472971,upstairs
10.01669449081803,0.43649223128273434,0.5182101628775408,11.085552620738834,-0.9287815245459143,-0.0957319328916303,-1.3789567225646497,646.0596546674973,368.33232440603547,607.1498186093356,upstairs
10.06677796327212,0.3608013704517309,0.6857321872852304,11.48754680385119,-0.33232475704931297,-0.28775602674929085,-0.16927677736550684,717.9862073782573,389.39744475992995,602.9224112827667,upstairs
10.11686143572621,1.007141115074998,0.8146020589621825,11.4593339858113,-0.4104598490162328,-0.015936125714257506,1.0889731552260857,772.3834785054196,381.4607272170523,651.9886432399711,upstairs
10.1669449081803,1.1480605917517157,0.532002241887443,10.786665983676256,0.16858784677760452,-1.0038010838199196,-0.44881088666196634,599.3622562700256,373.0674182316044,630.3970562489227,upstairs
10.21702838063439,1.136908901014991,0.3976457157964833,9.696280445368464,1.3124652363758844,-1.2652526905359553,0.31951706939668334,697.9113438603855,397.95056908728526,675.6680966017478,upstairs
10.267111853088482,0.20508212825993738,0.21656081867074334,9.152503464448342,-0.20588624279133372,-0.013438758310755998,-0.10390627101464932,582.3159534547946,387.02182507256833,630.2537777006132,upstairs
10.31719532554257,-0.13025599245718805,-0.4474711708419587,8.68252997911573,0.7648850387089488,0.017777667055877938,-0.9082177759629659,659.9310605323194,462.46182579010724,514.8822457313142,upstairs
10.367278797996661,-0.12469831598510996,-0.4025941987219667,8.25968952476481,0.9670136323242141,-0.07042464822763468,-0.2792132850841557,659.1333706534562,370.49381585659563,633.4654970579481,upstairs
10.417362270450752,-0.6502449511025176,-0.8765288956327284,8.691258773307084,-0.3793748150915501,-0.40337732670570076,-0.5158442822859558,609.1094165543798,314.7381918374728,597.287393392499,upstairs
10.467445742904841,-0.980909799221955,-0.5173418883897023,9.053343234217891,-0.060157926498990245,-0.3897141730528729,0.42725613187502837,713.9527128121987,406.22256425838,659.6662076406951,upstairs
10.517529215358932,-0.7067673385608491,-0.456303470200595,9.709874392512088,0.6751775614538255,0.16555232182748375,0.4751396753151763,619.6379524132158,377.48156166671225,690.5174380337801,upstairs
10.567612687813021,-0.678734628543832,-0.2003205992382442,10.176118401825155,-0.14518117844024783,0.8852747064686161,0.6980513144893612,579.7908017300545,363.8925700353369,623.681435515086,upstairs
10.617696160267112,-0.2753734700313049,0.016044714785899472,11.099545580735848,-0.6191466815099612,-0.6865487581444476,0.4963049049519066,667.3668825002335,399.776593221337,609.7512592355926,upstairs
10.667779632721203,0.19961682924633212,0.9328191405750295,11.320546284414478,-0.6705469887975616,-1.1710998106312898,-0.14542591285132325,763.3329270378689,370.5798380656012,684.694211331122,upstairs
10.717863105175292,1.1215464655994205,0.8444649386556584,11.39267632622899,0.6548374362896476,0.5829230103005495,-0.9041410176430067,639.1040582869932,393.2304863773527,604.7418001200979,upstairs
10.767946577629383,0.6966572099766355,0.7843025901631948,11.170356441391222,-0.960435004481323,0.9719747482054094,-0.7124647868094037,710.8440294924372,419.565240459488,665.912616597851,upstairs
10.818030050083472,1.2141521765373775,0.35576987994283443,10.364348528035027,-0.03603941816436785,-0.995360213344577,0.07722258143987135,710.5462286271958,348.92505231729007,649.132317894414,upstairs
10.868113522537563,0.8107124177495263,-0.0288783742371497,9.874444436569174,-0.38732416928660807,-0.24709623896421445,0.5697621603096324,618.5067077530994,462.3044948094631,634.7321423378768,upstairs
10.918196994991654,0.3909045308449646,-0.3171461020038008,8.85393262105061,-1.2188696735329123,-0.4614590323767991,1.715509147527764,728.6676914213401,380.55579143545185,680.3878746546302,upstairs
10.968280467445743,-0.0566258091730414,-0.8015686850645605,8.707851374798036,1.2658477788702236,-0.04230406079072399,-0.0285711886550871,664.6124644316678,336.640013450507,605.5496810363635,upstairs
11.018363939899833,-0.7347105755805134,-0.7465045814089988,8.095348119286411,0.764863252792093,1.9289046626864044,-0.789407408616459,696.9172962111853,397.7681150959492,640.0875410477969,upstairs
11.068447412353924,-1.1347337646371063,-0.5417719800446799,8.613549619550037,-0.6566492594667066,0.3298453332917893,0.026837378221849322,688.7181751562566,317.4131013471129,555.0607062795088,upstairs
11.118530884808013,-0.9091828350941134,-0.5246994876829361,8.858166232207795,0.36709536394516873,0.16026095154857098,-0.2754134983969405,731.73388180964,402.5801436835939,636.3783829961799,upstairs
11.168614357262104,-0.7122402177301339,-0.5087252110431091,10.302587215569389,-1.0689878339721086,0.28508504342800334,-0.9993147743001636,697.6712646978526,376.9182414388081,641.156395435499,upstairs
11.218697829716193,-0.0741229485148127,0.09587532235930987,10.85000382935049,-2.063693549483042,0.5107920058905207,-0.6058455597200791,663.8825326801467,445.54167473574944,651.453467786648,upstairs
11.268781302170284,0.7651779516756848,0.4982313596533255,11.423943365299014,-0.6240075169417109,-0.03674572687143162,-0.164816446438975,650.8792333550034,374.51936408942606,616.7954903495231,upstairs
11.318864774624375,0.5521090054320767,0.5303848407789109,11.446767631887102,1.1463798077043432,-1.6778817167043047,-0.229986406377206,676.173553522201,363.80449864627707,622.6499747272077,upstairs
11.368948247078464,1.0683969276925787,0.7299396539818974,11.253503413179159,-0.7471539251365189,-0.23992900461139605,-0.18157017151798474,675.9849080109572,350.6997287897808,623.915601870002,upstairs
11.419031719532555,0.6704633444140793,0.3773780026133165,10.52725960771603,0.2730777600278007,-0.9926401158170036,0.5540676881763107,715.9610469754851,325.3349806986369,557.927435202728,upstairs
11.469115191986644,0.6849728302686959,0.6194158118706943,9.894556423830892,-1.0701208347107236,0.3811549764467004,-0.7815029770782161,719.1503999574961,479.8725541004608,586.2419761566542,upstairs
11.519198664440735,0.7050521101238171,-0.08218060159991628,9.385991651982042,-0.6625831339716293,0.17779491878412512,-0.49255053400334237,687.7447002872868,371.25070384117913,617.2499628589983,upstairs
11.569282136894826,0.16638785673482664,-0.576508297304946,8.711122065927567,0.0898192819580463,0.7092445398273088,-0.5527183466234843,699.9536494504437,345.0528307414034,620.2238099642013,upstairs
11.619365609348915,-0.5774397944676617,-0.7876456124205613,8.20080786927945,0.12815959638983562,0.19643350950537647,0.3107912878822134,664.7874577255784,363.32897512415235,630.7563261921732,upstairs
11.669449081803005,-0.5895786983164804,-0.7077800628557731,8.508559901778323,1.2555399379480083,-0.07361899564666555,-0.012476256417397583,672.5162171196081,431.2653041944282,652.3145548305417,upstairs
11.719532554257096,-0.8443680772405805,-0.6952864087752832,8.661900225598544,0.6513858081120638,-0.307812426495086,-0.8607433172678518,722.3520209357047,437.1546046923554,588.0026299145587,upstairs
11.769616026711185,-0.5899737955714456,-0.5386282436400447,9.634951333794874,-1.2989897393434096,0.6562056064846229,0.03762160409335101,593.434693140453,467.2879968870137,575.157808709491,upstairs
11.819699499165276,-0.3834010458737343,-0.3045577807571667,10.087762505731316,-0.4940512202695391,-0.6530802001412869,0.7102852790896261,674.2623124069655,384.2123145749391,595.6581183129372,upstairs
11.869782971619365,0.2997693509325433,0.27730303495546527,11.056300022387335,-0.7975683492252119,0.6797499727478961,-0.060383689287781823,696.6658889157566,359.6271025368571,645.4930523159301,upstairs
11.919866444073456,0.34334393596670515,0.7306055866850447,11.502805923145939,0.5131337486996275,-0.7463235244306553,-0.3842756625043901,662.6542671443381,365.6916356085536,668.2676302473399,upstairs
11.969949916527547,1.0687995276338558,0.7001285353056876,11.201000729021844,-0.4806010297435122,0.06498954729210717,-0.16879158356417343,628.9630237480087,388.97686884298054,647.2523300663713,upstairs
12.020033388981636,1.0109580079638185,0.5189756183276384,11.225778532220348,-0.8330383717200686,0.07451904588058045,1.265484121249818,732.7396896642268,330.0094499848428,653.0644614358675,upstairs
12.070116861435727,1.070340122484328,0.45654695968555353,10.283877175496391,-1.113175612982314,-0.1982033611696402,-0.4016627705086404,628.8970636647923,421.74210295480367,594.0717334545054,upstairs
12.120200333889816,0.5072961327273484,-0.14511541965642194,9.423553113527252,0.3681853618637129,-1.6120789970435,0.8704657934873723,681.9824102560517,386.51178745541546,603.1788671932093,upstairs
12.170283806343907,0.24437896038365325,-0.5658006691411277,8.741189551407015,0.2325211529220237,0.4683263958284588,0.009926289454143063,727.0530314690053,385.5725909432645,599.4109614779161,upstairs
12.220367278797998,0.0033297333881325414,-0.8064353721877713,8.502925691012312,-1.2002282129217374,0.007813311184642487,0.8464773259422932,708.0888040558602,418.3777600412,595.0285857511817,upstairs
12.270450751252087,-0.7921464398621462,-0.8587184625397986,8.227692542572258,-0.11087713264701139,0.35100263939459003,1.6367136037354608,590.3783347566758,468.56776973964395,611.4642988152573,upstairs
12.320534223706177,-1.2505653997225856,-0.7835458039109056,8.827926676206806,0.3242846287908927,-1.3158191862034023,1.3984801341505158,702.4399986090366,401.0112133356199,642.0895297503994,upstairs
12.370617696160267,-0.8818186914687135,-0.6200521330256972,9.231240399241932,-0.038313560744107814,1.1016649098397437,-0.9441366904875181,660.3283747380755,348.6609585474118,645.5908692902964,upstairs
12.420701168614357,-0.42613848444342134,-0.05485758311613892,10.059173754775474,0.10885021838459151,-0.07301806361433112,0.34695766791349003,631.0859925832284,382.7642851046241,561.583293376163,upstairs
12.470784641068448,-0.22446077427788597,-0.04134964745824818,10.517731448644149,0.4559650713423977,0.05390559260570326,0.2693371639235457,642.8020867054643,361.4085960459395,609.8259429300008,upstairs
12.520868113522537,0.2637511652035152,0.24841835143274565,11.421515103933114,0.038397731129037556,-0.2098741072199085,0.27133399314738926,736.7089566489728,370.82780323743367,581.3129321664765,upstairs
12.570951585976628,0.6836944963841032,0.6765086517007923,11.668194414769351,-0.05842492846170908,0.4846825167521985,-0.2938322062618152,717.102978656621,470.2259364781943,633.0118671078894,upstairs
12.621035058430719,0.870868497513602,0.34772914752035844,10.993637386365696,-0.2503661381363421,-2.301083420799043,-0.5795532015428616,707.2975550450159,320.7090160940974,608.3809764559053,upstairs
12.671118530884808,0.8903668643726929,0.6942569464825787,10.166243032271552,0.12484066634048187,0.7109879448635107,-0.40704861809821313,614.3595714568796,386.81392175093237,591.6617495320564,upstairs
12.721202003338899,1.0466504520732138,0.21604068098537688,10.054066282238223,0.8920663643058719,-0.452355434625854,0.546484255922182,613.2770028156019,421.97006852182244,544.2175592337934,upstairs
12.771285475792988,0.42439384289201487,-0.25149576386093275,9.329164513886672,-0.17434907993324397,0.7707894013283684,-0.08345947856761099,754.3199484807252,377.43508828282614,665.3866722848261,upstairs
12.821368948247079,0.07389323672200268,-0.561804762434684,8.622864205622783,-0.7918934521862274,0.14655205753649866,0.27613110851839134,627.2076787145107,410.15260672707853,640.5332745753677,upstairs
12.87145242070117,-0.24212344875878195,-0.6934597560273801,8.302214901858484,-0.14143899999617707,0.6085306751034311,0.30908661834567974,711.3079684665075,381.06251192975634,655.7192975023748,upstairs
12.921535893155259,-0.6336403761468016,-0.5760230578442294,8.530007363297583,-0.7337142703389218,0.7053100547572408,-0.10883184747513562,741.2509116125071,368.3893217103973,546.5832612984971,upstairs
12.97161936560935,-1.2737560684413274,-0.8833639660320871,8.990895734874378,0.44329093100928685,0.30777620388988974,0.26935824659007224,718.836905028999,446.17404016325406,684.9077418138072,upstairs
13.021702838063439,-0.5318594678326299,-0.5183221379146258,9.77845946126599,1.376812057518962,-1.2643850600475954,0.5428241795545201,664.324762109313,408.22936708108983,631.0273833701611,upstairs
13.07178631051753,-0.39738503518634677,-0.2720749731623954,10.48674208546221,-0.1298031784124286,0.08184302313072792,0.18274455405714787,621.7308873044806,400.0537316753971,615.6711254042567,upstairs
13.12186978297162,-0.1338797935018568,0.09816207279590039,10.811947988067462,-1.212249175104532,-0.47955890217848113,0.3196322452918572,754.2897859485917,401.4638523103889,606.42618987588,upstairs
13.17195325542571,0.47313055363436557,0.4519956474024461,11.473175712666144,-0.3956889853823192,-0.3089105462052083,-0.0034410260363556652,677.3805631511084,391.20053001335816,690.9780723308367,upstairs
13.2220367278798,0.7317544307037547,0.7717203752429413,11.612284538334071,1.013259407155509,1.596237916095044,-0.8527614407914826,679.2497998639732,348.9074918476877,645.592358592865,upstairs
13.272120200333891,1.0755931815221258,0.7505639190130535,11.04762781648105,0.08547305392277921,-0.9573076521441185,-1.0064835752856103,626.7486142170414,428.07344042558765,653.1136017031504,upstairs
13.32220367278798,0.8853289213856932,0.3165475006534425,10.13399749880979,0.6406906320144719,0.42775630065323844,-0.5069908934232409,667.5682257417398,348.14191846946215,671.1335631283955,upstairs
13.37228714524207,0.948904256431968,0.21579986985537264,9.55873576609253,1.180436680164776,1.4482440251672006,-0.3526540166486856,695.1969431264415,359.32206959521255,542.8418114498136,upstairs
13.42237061769616,0.1682040679615154,0.009314909098297075,9.03030838106286,0.547812927606207,0.8270761556646287,0.05985972344687753,675.1389941530797,336.0892540327173,642.5292077259675,upstairs
13.47245409015025,-0.3479425082342729,-0.24912895427677945,8.470023268966862,1.5394676652157502,0.7573044129149323,-0.031713260732138565,679.771878151807,344.18523758107676,607.3801494082154,upstairs
13.522537562604342,-1.0803829337342656,-0.7823772518617143,8.411731928184073,0.11759031762695574,-0.7532195132810315,0.11395541483725272,707.159462735025,407.54149391412824,611.791177455465,upstairs
13.57262103505843,-0.4948869533886278,-0.383328069236981,8.748594128109087,-0.8977683358189558,0.4127843900346742,0.5414605266848614,724.0728076236186,448.2887927557192,627.9073668077459,upstairs
13.622704507512521,-1.1620773547743317,-0.7003752551154652,9.680707921992468,0.4378469021392986,1.077480413724657,-0.16530570715074963,693.3269105654515,411.9861758129744,689.5957802598309,upstairs
13.67278797996661,-0.3245714089424315,-0.44135885103935907,10.262137745393751,0.3555171422144409,0.3779059189476898,0.026319271320757415,678.2007782043836,418.84188717874633,603.2259248704859,upstairs
13.722871452420701,-0.5091460314349435,0.443682160685326,10.988132116609263,0.3574585095133215,0.18647001744774122,0.2162876245388038,730.5541908632302,355.0236928429667,569.1495551317588,upstairs
13.772954924874792,0.1258594838698897,0.3328089894206712,11.48488204933304,-0.6030558203361468,-0.15678929248483497,0.05073603527818793,655.3116588635681,387.54120763026884,580.2057085219916,upstairs
13.823038397328881,0.7529014675361678,0.6336009351115861,11.99712323686063,0.07304201327508904,0.7801733410520858,0.6894858782186837,741.7759027702466,466.8301877174308,529.174889539477,upstairs
13.873121869782972,0.7406003036355174,0.6092258777791508,11.260097350635323,0.2645582187809196,1.179614552492184,-0.13149019627059444,708.2193061235097,431.92952721958244,642.8401104525633,upstairs
13.923205342237061,0.7667254615098988,0.4111317472338977,10.68064950737672,-1.1786446190049398,-0.42916301421372327,0.37737329773818934,646.8031622985615,390.3025690618207,567.2935342113324,upstairs
13.973288814691152,0.9222081761814144,0.786455432527585,10.161643645605734,0.529076124732673,1.1044632625221387,0.7351624533836966,665.7270045548195,340.9113226174849,632.8479144248475,upstairs
14.023372287145243,0.28976902871127547,0.1363504341476109,9.199452983511199,0.5053576344316304,0.8568567132589804,-0.5212008705517098,728.5588255633684,376.5418514276883,609.9879062404904,upstairs
14.073455759599332,0.3400655491163121,-0.32684874596578856,8.474464190699777,0.0986316452712818,-0.3296963028654089,-0.5620223297342491,626.5496041705965,375.4633097463822,671.3150759417917,upstairs
14.123539232053423,-0.2573611194202477,-0.4552167852557929,8.464361341790624,0.801705696192048,0.13544158399976192,1.2548248185646,753.8566326465134,432.5887184106939,651.6532967289763,upstairs
14.173622704507514,-0.4763146391474042,-0.8307804317281076,8.199424351361177,-0.5195229557188985,-0.45361948767068483,-0.874758847531482,685.0365162132819,346.02597902778984,695.1461577492366,upstairs
14.223706176961603,-1.2314413776577466,-0.6479284992068548,8.956507380054576,-0.9147996333454061,0.9066360560675331,0.5593701871303665,685.4133036589647,378.6881376720135,587.6120450165813,upstairs
14.273789649415694,-1.15989061182467,-0.20373624631008172,9.982732603715327,-0.5163490036892078,-0.04847133756071122,0.8267632075472753,722.645100923137,450.88366005205023,636.0844196428004,upstairs
14.323873121869783,-0.5651060200111091,-0.10820789046506354,10.94838792227194,0.928955078309405,-0.13841415449662095,0.4423838705486537,635.8957501140903,375.4575373818616,585.5253611097785,upstairs
14.373956594323873,-0.09469312582669294,0.2061608134597283,11.59854845956111,0.49172737800184807,0.05403430086800377,1.590681088217004,735.3475854569549,337.1670662497147,611.8550339415312,upstairs
14.424040066777964,0.27621052633647897,0.3298523394588139,11.818811941274038,0.9878241759506803,0.1698194395321713,0.10510307060575697,658.2566545244938,450.4168821514206,679.3353281806278,upstairs
14.474123539232053,0.6981140303948683,0.7454218621051754,11.284685874070826,0.6432813005748316,-0.11067313034835655,-0.5458852654911719,688.376798265495,319.5497163669183,693.0103641552456,upstairs
14.524207011686144,1.0991740973817925,0.6271626918997939,10.985686441437602,0.2424839689029436,0.42162827301095385,0.917194400295605,642.5303903394049,401.75587657822507,648.4961881824778,upstairs
14.574290484140233,0.8949120090238695,0.5207835252876343,10.046698823695682,-0.14819292725913077,-0.8221608550666906,-0.4740124191002704,638.4921707736471,420.056762791653,631.0370092470488,upstairs
14.624373956594324,0.4828235485711241,0.28221675127852813,9.280922373984588,1.5721950088057306,-0.5522455833946283,-1.4839915141366047,639.5641475100548,327.614141550265,529.1106786556845,upstairs
14.674457429048415,0.36650055802668197,-0.397187672291299,8.669534400621885,-0.5023723388413014,0.3290843647254098,-0.1034864557539431,740.5050473874379,395.5240225604971,602.963694875605,upstairs
14.724540901502504,-0.47040590413725264,-0.3432962424584569,8.227555688285115,-1.3595523848864755,0.10349489084085034,0.7670137615964341,652.8755546112322,424.2733396871816,656.5559347441093,upstairs
14.774624373956595,-0.734127873253621,-0.6817088586481688,8.45195971819223,0.8619207062483112,0.041108686329768454,0.7367594465774934,688.4272267293782,391.68657388767014,614.5850937082699,upstairs
14.824707846410686,-1.2692973473898854,-0.3751756912490532,8.708199027099884,-0.6196670002804006,-0.1051546202309834,-0.1372818115646493,601.5941701583642,338.83648269108136,586.7691215976456,upstairs
14.874791318864775,-0.6207956456022813,-0.6278055948341132,9.628436080576432,-0.024617128153565357,-0.4183451935898347,1.2155608124862312,682.3862266013979,378.52310618869774,621.7860113183021,upstairs
14.924874791318866,-0.3418574409047167,0.23083706820068312,10.492378828611212,0.3022237952023631,-0.6372645992589046,0.587861020215392,669.3645351096555,417.0176296129755,619.8856967663387,upstairs
14.974958263772955,-0.11673969860592083,0.26997364430826487,10.9335147513444,-0.34219821548753343,-1.5988942925037835,-0.7077716702186698,722.8794786070462,365.71128856095675,619.6492350827804,upstairs
15.025041736227045,0.04598554645873036,0.587532163802319,11.607375986062085,-1.9196540071412351,-0.7503276002231726,1.0456382042695989,697.0284475363183,401.4609253500359,638.613195868865,upstairs
15.075125208681136,0.8450911373146034,0.6914149253237434,11.319824738570617,-0.35617766320437644,1.277082172156614,-0.6748662514405733,638.5472112440816,363.8248690172501,629.0852231206187,upstairs
15.125208681135225,1.3016964409931995,0.6422854482074336,11.457864974326526,0.9463306053908476,1.0746615724174333,1.1642706092321475,668.6451715722873,319.8678858919673,691.415486399734,upstairs
15.175292153589316,1.4399892342694014,0.461956444659897,10.431272749369938,-0.4271666388387129,1.0701908270234484,-0.8073209763394988,680.3302054200996,358.31296160417764,628.9111501649588,upstairs
15.225375626043405,0.9149153237417201,0.2494494844240418,9.705687990348908,0.41487524618124466,-1.054217798950188,0.3499506415172081,674.7792501263207,363.40434121397954,579.4442734834258,upstairs
15.275459098497496,0.6705136563302306,-0.1770956224234473,9.284613372605083,0.25753558158867074,0.7208741602006723,-0.9338890742804616,680.2006416026663,355.09751264219125,597.9135801959358,upstairs
15.325542570951587,-0.10726639941389261,-0.6807012874490392,8.438791357240431,0.7780728078361723,-0.8110674538088383,-1.0137929874804235,727.8388638392836,379.9655458427227,625.1574700709817,upstairs
15.375626043405676,-0.41611671781345017,-0.8077497087526093,8.335466219102987,0.6311384746671455,-0.2576523812668075,-1.2428712302850538,674.8090107560645,457.18128868653923,579.2092405250742,upstairs
15.425709515859767,-0.9176401303690213,-0.7153943696750105,8.895189043520677,-0.12690391796582465,-0.47684531975338923,-0.4970890536608721,653.7819544467382,358.8393541167534,632.7494334215288,upstairs
15.475792988313858,-0.8971774610429367,-0.23871755886991414,9.037328651392885,-0.33954038312219037,0.07330943785877715,0.04165050177457182,738.9509315390063,339.2505312485505,623.1812289217506,upstairs
15.525876460767947,-0.616134555019177,-0.6293496501319182,9.870423982537606,-0.1592123852899377,-1.0752401968666603,0.04462549557733877,690.4026169296774,266.2404302274915,630.7246369896974,upstairs
15.575959933222038,-0.43160954395655887,0.08259376045811986,10.899930547316304,-0.019445310663367486,-0.5043897741186759,0.4115349667446005,729.4687505069166,416.4569310551051,629.593432421173,upstairs
15.626043405676127,-0.10927172410971205,0.5799784233491339,11.47324488970348,-0.8991750845127434,-0.6097776611001063,-0.5497797058294631,671.9608906932477,436.68415901622234,676.3322676177859,upstairs
15.676126878130217,0.3766331349437433,0.46812754212906443,11.123264912304482,-0.8055083512600519,-0.1879828537824682,-0.4272475797922647,607.8643143266668,364.0035915684844,638.0855719416868,upstairs
15.726210350584308,1.1525279858241457,0.46615607476125304,11.603888807133549,2.2739798812609893,0.7614929734679395,-0.28985017931300056,757.8545916351269,359.84423761101505,593.2998072482354,upstairs
15.776293823038397,1.1442641488660232,0.6752516709996577,11.18595626122159,-1.3954555359033716,-0.06442141935570121,-0.6556273986419658,690.4125645717934,407.3828701897697,607.9715864548826,upstairs
15.826377295492488,1.0900650265014824,0.3870341930663969,10.90940033025363,-0.73929122224749,2.065073835565207,0.5651629903169066,626.2387591106786,421.31765886173616,616.0706424310653,upstairs
15.876460767946577,0.6037105289696275,-0.40670427750909227,9.61132439804481,0.6929475112009615,0.13950402991248043,0.23812683842638868,696.0078746770089,383.02932185827797,643.5893029715337,upstairs
15.926544240400668,0.19697479043242067,-0.3208525559340274,8.652778501413728,0.21779037341012197,0.010501870430192134,-1.86272159641232,680.001953107115,358.82261111287585,482.41356399036107,upstairs
15.976627712854759,-0.3416662845142446,-0.4183781858785949,8.45642054711088,-0.7343350854048055,0.04246095743452527,0.6990709788005298,626.7441121951565,461.2273112003203,584.4268368098742,upstairs
16.026711185308848,-0.676620500862532,-0.4973063102776115,8.223662720543839,-0.043969798803977965,0.28103401796760297,-0.9061723574424971,676.8474046060627,430.0279382413749,575.1286280711165,upstairs
16.07679465776294,-0.6320475563255467,-0.9346729082716094,9.21827757963618,-0.2236943034067399,-0.051384234371258906,1.0092213997953754,571.4023231625636,415.4213004188767,580.8570046372013,upstairs
16.12687813021703,-0.6721337290134068,-0.6200794206437863,9.218884352486558,0.3117621816361501,0.3166511753491372,-0.5374723996066584,722.9308045285611,354.8099650575817,634.2126128279987,upstairs
16.17696160267112,-0.8284683256586435,-0.043153507758125625,10.3054180750383,-0.7375799279746366,0.13359888793310842,1.022662483238368,738.644233994117,380.84505914671894,626.4400755881609,upstairs
16.227045075125208,-0.06835152023474685,0.35543692325939574,11.188435553297971,-0.00042503220622538545,-2.0731823303659946,-0.9125551264369306,653.731829398988,351.94497808181956,681.1245712140283,upstairs
16.2771285475793,0.43049209988301124,0.7427908354285844,11.688890723510443,0.029822605161412503,-0.23364869025322244,-1.0789397233564428,672.0100145099573,301.6291518174123,587.7347923484349,upstairs
16.32721202003339,0.882913629815576,1.062448345576833,11.820872352473819,0.027519372916252918,-0.46729833666477466,0.10237438342311211,622.1401465593574,432.1477551591653,622.8372418222798,upstairs
16.37729549248748,1.033735022465264,0.47959587745809024,11.582217847942783,1.310754403622116,0.2619686834768803,-0.800824714816692,728.7320953825447,373.9578635142446,656.6996142673031,upstairs
16.42737896494157,1.0869926761295756,0.9319468102285404,10.864996687249915,0.07817978154569633,1.612737288563687,-0.03209915857071364,768.7540220367199,380.88950943237876,770.7739797514404,upstairs
16.47746243739566,0.6215139503593399,0.05062611005208892,9.924441280816056,-0.38779780347241827,1.0320945458927429,-0.30031238628946555,730.2236112681202,345.7563980556623,672.4082485861951,upstairs
16.52754590984975,0.37584372798329363,-0.14001492733970633,9.262395285829713,-0.4492661414406262,0.44228252290035963,-1.4155435953927513,714.6898776440387,420.57937524550954,615.0719693102594,upstairs
16.57762938230384,-0.2567601832067356,-0.5154796401072356,8.316175101362917,-0.23393035151522443,-1.897848646367515,-0.09711527352210898,669.4596842049269,358.3268150128605,634.0477688570351,upstairs
16.62771285475793,-0.6400960336204645,-0.8269994029477359,8.137883889331732,-0.4279023511731019,0.3728596521436198,-0.5228972786506818,744.9758050334736,407.2715706376869,613.9828545728302,upstairs
16.67779632721202,-0.7274548738459523,-0.7386688426052024,8.486963735998431,-0.41186792134295014,-0.29491801291754205,1.254986180568054,656.1574810149273,397.96652028212935,666.8085580685031,upstairs
16.72787979966611,-0.9318987336069308,-0.41808960126794936,8.981186977433953,-0.21265699717265601,0.9411696795449513,-0.7282748701102038,681.4828599129204,384.2692259952516,625.7138699761927,upstairs
16.7779632721202,-0.9761586687879907,-0.14601456960485729,9.625097458963493,1.1316266014358258,-0.6447844095585745,0.15465131198808357,714.752211575978,415.10097240864815,600.7967557431888,upstairs
16.82804674457429,-0.4079803599846194,-0.03875302984585751,10.36116915333043,0.8141667571011378,2.1840826193768996,1.119515820353243,624.8138692058617,350.4143871756603,666.9779281158393,upstairs
16.87813021702838,0.35131794681748835,0.4176894459432909,11.051481213726975,-0.11822896506607926,-0.41299537948387893,-0.3699107992711586,687.2114775863452,348.9827199418382,696.2245333871682,upstairs
16.928213689482472,0.5698332246508258,0.32577184923002683,11.46585143432704,-0.3101449949729705,-0.3392996080104977,-0.45259607498586624,666.9026501477147,369.67674665479177,563.9179821975493,upstairs
16.97829716193656,1.1752904280365022,0.5459768292112845,11.667007910241221,0.36453790649096274,-0.5451788448275768,-0.7648351066859899,704.887054556069,359.7814288552954,655.880470715372,upstairs
17.02838063439065,0.8580703056563904,0.37043634583428303,10.922005357412871,0.18244920176740473,0.18711379808971934,-0.018194068215780682,664.3384529495429,373.14598224887493,608.3505806562014,upstairs
17.07846410684474,1.290903592862676,0.2621364489435483,10.231417821429403,-0.7975863868724377,0.016567897719931026,-0.21006323354377043,684.7896635580379,417.4442233163748,756.445887842087,upstairs
17.128547579298832,0.27604378209943076,0.1432459266133776,9.309142471574342,0.6077357000954534,0.6339182197892634,0.6124565238576706,705.9386949135084,391.97621420418886,565.7371866140943,upstairs
17.178631051752923,0.31525622657642477,-0.3471615906424512,8.733894174759788,0.39148696138270417,-0.5944225471488124,-0.4091611078421464,611.8750674567953,397.16712588253466,677.0100420273683,upstairs
17.22871452420701,-0.30351668012226635,-0.8036442541262743,8.38908153477269,0.3424221870215823,-0.23834846317504746,-0.3190062619479757,682.6398081208883,358.2634631010763,608.927703076367,upstairs
17.2787979966611,-0.7319394474011196,-0.6496175943850493,8.26697605682176,0.9083321897236073,0.03654682710266908,-0.3335963218147212,667.8507091221961,408.94206817097194,722.1969862847027,upstairs
17.328881469115192,-0.9267519544703507,-0.9765934059372459,8.831183279936797,0.03596315293168119,0.3381252809210285,0.3472637505847728,665.0480977142797,341.9548654896356,642.4753394816229,upstairs
17.378964941569283,-0.775845388981947,-0.20948384187949443,9.411431458630505,-0.38558110582863037,0.01596750663110545,0.21652177134308442,629.4096614678691,375.82296567542477,704.710879012729,upstairs
17.429048414023374,-0.4351244665115516,-0.2562928860956722,10.59536498272007,-0.7471184195025987,-1.0421471226679349,1.1768882544793204,601.5066875735329,459.7505577799666,568.0424477044085,upstairs
17.479131886477465,-0.06344612748090607,0.4033499121744967,11.277607732536843,-0.5427376328733342,0.2356287099902072,-0.014715967038414204,708.0055759374297,385.07368745037013,623.7991487511974,upstairs
17.529215358931552,0.4379526093562287,0.3460267697783421,11.584679189725257,-0.7235771894525452,1.1568224750145462,-0.2610279386884187,772.1099295542049,363.05963993238777,628.7610962301775,upstairs
17.579298831385643,0.647462321304325,0.6185751744764123,11.703348390580777,-1.5206907313162985,0.6722608348520387,-0.04203866234344001,682.2513297602368,412.81912437218745,564.600043836715,upstairs
17.629382303839733,1.0932009712113318,0.40039751335026535,11.190121073758965,-1.0556747395737893,0.6068386304254908,0.10731772878928945,686.1660194929271,351.9665379867089,610.8685997524133,upstairs
17.679465776293824,1.075875715887977,0.5635199508818285,10.226024747074803,1.4572644024495747,-0.9245775575432154,-0.15206303152752648,648.9401377815741,389.7150789776763,595.5096303455294,upstairs
17.729549248747915,0.9205128372396527,-0.17757225290168493,9.508272560210363,-0.152810014221932,-0.04306227931712905,-0.755809100804323,642.7261085124516,370.20065346085147,583.9444284026052,upstairs
17.779632721202002,0.5579865569347677,-0.32583456553255974,9.023545274675946,0.0012769407123869208,0.39385621306882895,-1.9206117940571652,730.3883604954693,362.599736969127,614.7445096246038,upstairs
17.829716193656093,-0.21543794945829997,-0.612104546022793,8.178525958713488,-0.44490346779226503,1.3681708540513144,-0.8551606931996675,682.8462425656128,393.58315951984366,606.1846786595187,upstairs
17.879799666110184,-0.4720399731330798,-1.0310580470944566,8.45650353196013,-0.20794080718622424,0.8074533458055931,-0.06298908487190334,742.3013808531483,340.219906148914,638.1325971834623,upstairs
17.929883138564275,-0.7479408987019404,-0.8108646241227309,8.663086274043998,-0.868074254724828,0.6719411420389261,-0.38605460219961,736.466835109388,409.8609168959289,547.548753509277,upstairs
17.979966611018366,-0.7906579533336321,-0.7217604540684903,9.050286725551482,0.4240701941763042,0.5864767940687649,-0.05207078993508917,603.4869481282561,376.33096548207897,610.4742333102398,upstairs
18.030050083472453,-0.8315110341043529,-0.4176677644100478,10.142950493015698,-1.399006259940963,-0.22868550108270866,0.7772708716354955,702.3022373034746,380.1833599317833,659.7739848531156,upstairs
18.080133555926544,-0.6877914112701674,-0.04899097867978539,10.63574813617979,0.36141525421630555,0.43902049188523273,-0.35242086232925723,654.1909082193638,498.82464742997456,577.3771331318841,upstairs
18.130217028380635,-0.4234143587189368,0.09804351144942339,11.245632870911619,1.15484778310952,0.2597867057332905,0.010353251825449125,660.5328973057947,418.25575580312534,619.7359471436131,upstairs
18.180300500834726,0.2785046009528967,0.4928729797224845,11.374080485792788,1.3547106949420846,-0.24543952620286766,1.0109367490966272,635.7641813640056,434.18761231386475,641.8664553252889,upstairs
18.230383973288816,0.7629904401667967,0.5710464946536762,11.493617007792784,-1.2100410869093108,0.30246730799467914,0.3342702095103698,671.9207007820173,444.85745427821143,636.2448658360679,upstairs
18.280467445742904,1.0467718344022736,0.42505290843211335,10.868977699565983,0.8199485190666383,1.4354378304739923,-0.5534684224490035,707.1799058467868,362.18029100718996,670.7066221386848,upstairs
18.330550918196995,1.1918505546158118,0.10005266898019533,10.091442942110389,-0.05064777160885436,0.8731271704728343,-0.15543709232304673,709.5511977465007,355.11721041168306,610.7173635716246,upstairs
18.380634390651085,0.3512216893805681,0.0868951472653188,8.858874036844737,0.37091355624342554,-0.21067808147764164,-0.6683146037393596,731.4095291856527,348.18930153447644,584.8867581020029,upstairs
18.430717863105176,0.11166990340251426,-0.2831729820474425,8.57659365768439,0.16903577843394216,-0.965668356960115,-0.3783705831906277,712.8943700294747,411.00622849953874,690.8479989336583,upstairs
18.480801335559267,-0.6680714356266252,-0.68394561887521,8.32260742224088,-1.0488398434801236,0.4881115150763087,-1.0402268364299143,646.239754007732,345.38194641715836,539.2674812777414,upstairs
18.530884808013354,-0.4381078134931318,-0.9620538410157369,8.514389416262695,0.6910996068308253,-0.7285377245316926,0.10352397220610302,712.9521453050977,343.8457685771622,557.4125721660123,upstairs
18.580968280467445,-0.9413916663294978,-0.8561449319848593,8.649244013713378,0.3959200832112472,-0.26595814548643826,-0.21868818285754363,689.337627523237,460.93922954143216,688.8629996919368,upstairs
18.631051752921536,-1.4386470831706322,-0.39631396157229837,9.232723764208764,-0.8919880330910867,-0.3477475545802061,0.17603632694010415,570.662135708103,415.49486308982006,663.956346189616,upstairs
18.681135225375627,-0.6698240884453547,0.16914362175702943,10.170314946793967,0.12723115466887164,1.4919887325128711,0.5551201373298058,712.7253729316584,379.838655803508,685.5371573117958,upstairs
18.731218697829718,-0.09792763893138033,0.3134419474291,10.738199169248023,-0.005749845620675807,0.2982228244164756,0.24024382460176283,661.879067626158,398.6724995633135,645.8217094199586,upstairs
18.781302170283805,0.25255941616238636,0.48220156780067,11.800438531549684,0.968801935477592,-1.232807460020512,-0.3626656762137946,673.1210793115612,289.6981388074201,532.4674902716345,upstairs
18.831385642737896,0.5741916626884183,0.7770279642403777,11.31858789159407,-0.7798577777017826,1.088112358361052,-0.0873272789881563,660.2831093867075,386.89956026649213,585.7674360927826,upstairs
18.881469115191987,1.1868970949323239,0.5844185857593236,11.234445464720782,0.29848113086518113,-1.143640135875754,-0.5723558192916214,693.8781023836207,433.94804084444684,644.1691185067328,upstairs
18.931552587646078,0.3377813011704935,0.5214927258820499,10.520722841252834,1.3806889357546828,-0.5809488407616958,0.5537969619492857,721.7305145580906,428.1838998938777,538.1927159871063,upstairs
18.98163606010017,0.6693426824620561,0.3175956456954925,9.740486943258155,-0.1494116387599211,-1.296602375586085,1.1429514377738295,691.6209119746034,397.9574469864619,669.3746865315053,upstairs
19.03171953255426,0.30601410031642207,-0.43546308236007436,8.565954364198051,0.16316923297248134,-0.9864088917821652,0.4704053805969531,673.9867654039944,399.6632793885274,624.509147994032,upstairs
19.081803005008346,-0.2912326356212887,-0.5226179667151095,8.452289546605744,-0.516048750788444,0.016212765078493546,-1.039019779699829,678.353072674835,405.3360428410222,674.1247375833581,upstairs
19.131886477462437,-0.4119715684703779,-0.7769826916561544,8.371474868204906,-0.21100455397773432,0.8216549920526522,-0.5360110829341,644.1648378796973,349.098430150797,701.7477599230492,upstairs
19.181969949916528,-0.5682446790319898,-0.8720132259538607,8.559835305906617,0.14344431502684618,0.9736995819893176,-1.0835931241612553,686.5924778450934,376.7176649049776,609.4601105089897,upstairs
19.23205342237062,-1.0903654299750631,-0.7797006181194925,9.35204784180842,1.355762886653168,-0.39426286356268275,-0.31537644231101963,708.7340515498433,401.7761549964978,625.6833101538334,upstairs
19.28213689482471,-0.8592483430342233,-0.3218337035354824,9.607626707808091,0.8390812684508977,0.2683120705043734,-0.3041181979438491,629.6961416175415,398.1519601845363,612.2962508531026,upstairs
19.332220367278797,-0.4157720399998038,-0.2857496942188123,10.804931985413786,0.9800535059321723,-0.23125844141647042,-0.011933316452144226,706.2449235373917,284.03124376083383,624.4130952605859,upstairs
19.382303839732888,0.07833957327024728,0.6573058107139416,11.13605498727967,0.05820462184260734,0.4395862577688302,0.2665981629797294,597.1116153084988,395.02156100798317,629.9445967321565,upstairs
19.43238731218698,0.6563753088421556,0.7015807689490305,11.59056152552686,-0.6508732519141973,0.4280439996900422,-0.19042782414088053,748.4952204273328,371.4076637089514,629.7141537622055,upstairs
19.48247078464107,1.1341704128304513,0.6865811367365446,11.256793968502262,0.5609203120908489,-0.6173569222641314,-0.2792445037109693,632.2902111264112,489.3037420020903,562.2215712148478,upstairs
19.53255425709516,0.9391095143145461,0.5898238494719903,11.27546167196205,-0.7486773297349475,0.020806269812707275,1.744770978222016,638.9656607524877,411.4627221187928,634.4907277483921,upstairs
19.582637729549248,0.9009322837247403,0.47010452845888256,10.58777303228361,-0.5771602060134902,-1.839503666835801,-0.4323528313356756,714.5145170189114,283.8980743468022,661.0891168208883,upstairs
19.63272120200334,0.3952552012913157,-0.037129192885566785,9.010054758062727,0.12464707865040875,0.4465391515096417,0.62289508944981,630.4886169092265,391.62406800983604,616.8681407187788,upstairs
19.68280467445743,-0.2336279939906411,0.12951847176769782,8.492177096711291,-0.6329376180282912,-1.1653487168272254,0.0899880088868068,624.2925229163964,401.533974584707,604.2130913323048,upstairs
19.73288814691152,-0.380299629353594,-0.7782757793559609,8.600461973674719,-0.11638306432056544,0.2606466855850965,0.608286340569599,680.5972352391838,364.659435847532,659.4506747416697,upstairs
19.78297161936561,-1.0566192430042194,-0.3571597017382454,8.366443904325289,1.093360118836984,-0.04402960309018967,-0.6388399064712386,656.9531851452234,364.8954839905357,555.2880984945,upstairs
19.8330550918197,-0.6893374050033502,-0.5361699014548533,8.911669642073958,0.45316186594032826,0.49002333202898263,-0.1289406134961873,687.6727678544872,373.26092090865376,630.019062147553,upstairs
19.88313856427379,-0.5665903828027884,-0.5076133312443711,9.687959021649485,0.09981305136349729,0.33232294175931376,0.6411037186628278,700.0556438569039,384.96550679093565,602.2780475820771,upstairs
19.93322203672788,-0.8423192874577842,-0.1600294457912695,10.772477135691968,-0.835561422940406,-0.05761604371598783,0.23327487431135474,702.4574296770533,424.0212242905283,617.2462007196783,upstairs
19.98330550918197,-0.015287463422653247,0.24327925780875637,11.053160853109826,-0.49223998468469365,0.42142964636967295,0.33044366663771096,654.8221416511852,414.51932657000384,584.3097337558138,upstairs
20.03338898163606,0.22241133198715063,0.15958681389688606,11.514943043343397,-0.8715901044718847,-0.84608376574117,1.2067456127261162,651.3979438650234,352.61940870821536,667.9756274555828,upstairs
20.08347245409015,0.7572786754244484,0.6507422874633684,11.095527381457638,-1.194786800460775,-0.537864321046325,-0.8702846128893528,680.7252760865944,358.4663775211516,662.2698236344767,upstairs
20.13355592654424,1.0779279011862652,0.7289330957222653,11.030964589892282,-0.49645329559974416,0.17061706783663536,0.8447145318126,748.9801745883394,383.49339084071255,666.4757139298672,upstairs
20.18363939899833,1.050249996116004,0.5351120160225993,10.332758986123936,0.3714113430335865,-0.16114126547080007,-0.5765597996312565,645.2782276463294,335.7431601318801,634.217706141477,upstairs
20.23372287145242,1.3933574579646502,0.29704364195061234,10.038012344966669,0.26571267740403043,0.5445912793297368,1.0049127327111331,724.3818055332828,437.0489353515643,602.0021901302465,upstairs
20.283806343906512,0.4565999954309174,0.024205997410268687,8.939595710535158,1.1465929813952958,-0.6271957913104957,0.8089432194905911,681.2833584111348,369.2796774113625,616.2915716560135,upstairs
20.3338898163606,-0.207683010713679,-0.44575903129083805,8.47330595631618,-1.2470065412432607,-0.500441375399494,0.7181819402540193,602.7977873773033,340.68731774348674,619.3965934450385,upstairs
20.38397328881469,-0.6387717604853359,-0.8440733692211175,8.346076979302799,-0.08208753860300266,-1.315707312644666,-0.3791849498606835,589.2585628025374,423.1319191103353,619.5951303291915,upstairs
20.43405676126878,-1.020112145754431,-0.5816308888076345,8.500198211429533,-0.616298950580175,-0.044828708830123264,1.324096649241209,726.4407999169939,394.2496384496677,606.8180157833647,upstairs
20.484140233722872,-0.949183240847007,-0.7030185430668732,9.074202820067004,-0.3592019118820416,-1.071105542507956,-0.8013658520133374,657.0469748261258,376.86220373377927,634.081114569419,upstairs
20.534223706176963,-0.28140155861578975,-0.3187758569376753,10.072703205545581,0.6146112150726184,-0.4977114063807064,-0.542278389108661,629.3345976356554,410.1039436155858,588.6124093862841,upstairs
20.584307178631054,-0.06771799722214612,-0.35906759201416877,10.776349106491278,-0.5434057567322266,-0.8444556539947455,0.7073302675521651,738.9159323756402,351.20434447292405,656.0789607797458,upstairs
20.63439065108514,0.39271255465384447,0.31064337552759713,11.143805767687605,-0.7032655101665108,-0.4123722664068643,-1.0381390482663164,626.0619807174428,307.46700501798995,613.1965031881801,upstairs
20.684474123539232,0.5548556084034711,0.42427859212855595,11.632452596649426,0.41916036441148646,-0.15555005025166613,-0.07666555798965989,712.1136473022406,369.1660034741747,640.7338240360477,upstairs
20.734557595993323,1.3309366074986013,0.3616434994669242,11.146671063254026,-1.1152863545122493,-1.4658969564527005,0.14048495054745966,767.2950034467437,432.98262025839927,608.1334103631068,upstairs
20.784641068447414,0.9356585429302929,0.6046930391733298,10.71551134348672,0.5870350076940136,0.7336251890517574,-0.20311389341324246,731.8982192528329,386.46313015989256,652.8343895303047,upstairs
20.834724540901504,1.3389376768529173,0.3180451772392231,10.145380393432934,0.11278852790984463,0.8458909519267828,-0.3105396214692753,689.4754586389645,360.8216462882094,653.147230918677,upstairs
20.884808013355592,0.6436542542122358,-0.025793885824590655,9.127378849352565,0.10186615891912425,0.814853705159964,-0.3313328884988801,694.141775083363,407.9311047263319,664.2711826829661,upstairs
20.934891485809683,0.10292580596777645,-0.7726184711511517,8.791352855826371,-0.4917512864090369,-0.5295664492164497,-0.7196049204866574,654.3815632750468,414.8864220185086,608.7489927671313,upstairs
20.984974958263773,-0.5393070874387565,-0.4912292355718814,8.494515160329838,-1.0651736549808335,0.7251339006362781,-1.0670168386878855,679.9850481143066,314.0743714462031,649.807830707117,upstairs
21.035058430717864,-0.6913987637366121,-0.45871439770316197,8.20926597698428,-0.06987274155733,0.21556593964080167,-0.5447516681369694,687.9631347471244,359.3198322809274,682.8051425632223,upstairs
21.085141903171955,-0.7764971394406485,-0.5969174661427519,8.630852397267049,-0.16906836543982837,1.2376207902459533,1.1180086935314502,628.4160683930721,370.3126123947516,698.1959538810897,upstairs
21.135225375626042,-0.6088942253760216,-0.479346070204855,9.549805212197441,0.3132481548557997,-0.4488009330344169,1.2210012750932209,716.0302802088311,427.2204049772726,612.4849375810761,upstairs
21.185308848080133,-0.44398900530422775,0.015487396304244186,10.71443663662363,0.2523228246566446,-1.1222487091628328,1.0460965059646046,676.955381453781,407.0257967897677,625.7815255491,upstairs
21.235392320534224,-0.16240345603701528,0.29010267841205417,11.109346602849335,0.47824033054114473,-0.3661429738795588,-0.40453853327165,699.9885059822097,405.8814059015191,614.5469018545147,upstairs
21.285475792988315,0.439787990866254,0.5727505892253824,11.447329362113784,0.2659075171837864,-0.05963020617150441,0.06278319096710627,662.7626031302884,342.57567822153834,644.2650999855463,upstairs
21.335559265442406,0.7803624078849954,0.7710390500094664,11.961438793788032,0.42607227807834464,-0.4205309743155026,0.3714479067983027,658.5660985860608,368.5235773231201,595.6917887334587,upstairs
21.385642737896493,0.7439656591210598,0.7307996167264912,10.718632749767762,0.5300624414407458,-0.011741706518020879,0.7415655223730921,700.6861873725493,457.7007188135443,661.016383210503,upstairs
21.435726210350584,0.7576906090288597,-0.06975083841509855,10.593972531771918,0.5881445550124231,-1.2930014868529218,-0.8412073174733212,735.4358456305197,382.766819218917,606.9716269385557,upstairs
21.485809682804675,0.6020027509777833,-0.23769395338143934,9.987358568651619,0.4938572269785213,0.7778582733288621,-0.23269131946345925,751.2095497342502,302.5818305673541,669.5250236485458,upstairs
21.535893155258766,0.29487721778832304,-0.3004716792829465,8.941252405331964,-0.37495386534014224,0.4536564473485785,0.015886721636528645,634.610770054883,315.109032814059,638.803322708984,upstairs
21.585976627712856,-0.18438020359784807,-0.8917139593251326,8.545626380521389,-1.4349239704457963,-0.32357081646306707,0.6532542040700515,742.2790857682203,386.2624818889325,694.0847650712411,upstairs
21.636060100166944,-0.6792191946723029,-0.3715316120741752,8.45292229888489,0.7710300022214808,0.12413683787448905,-1.1402485685864139,740.605681042461,380.210660219156,699.9305096961014,upstairs
21.686143572621035,-0.8503745620562849,-0.7642947651238678,8.157744492494613,0.05329088411265184,0.13139608483254508,0.2822216863962658,702.1241021842277,392.8846099959145,708.9763918381134,upstairs
21.736227045075125,-0.9542854226552439,-0.8313999224248003,9.237059984593236,-0.2403558242350885,1.5090223580810795,0.711669249913538,699.5778692289904,403.99491431192564,577.0781069211969,upstairs
21.786310517529216,-1.141606563306929,-0.06475369676142195,9.78629632178913,0.32681481612970154,0.7391235658582118,0.06781937900706644,766.1015273104945,389.2443028471265,663.1640704297126,upstairs
21.836393989983307,-0.37184825443758224,0.13130274871140502,10.853359062695144,-1.580656000510898,0.4615398309180889,0.12891222545295888,602.0912497215257,359.4011440630997,636.7315413395504,upstairs
21.886477462437398,0.26064364759087877,0.25256336674651386,11.257512914666425,-0.7986638431826747,-0.08498554365417588,-0.6751616348246217,636.1712204895722,426.9404114020511,664.8735538444257,upstairs
21.936560934891485,0.9450503228013013,0.709327603570854,11.398822480657284,-0.348539894601395,-0.050263069590510454,0.11935589779439014,627.6059080943871,382.2760391862912,599.0847005740591,upstairs
21.986644407345576,0.9672996323181098,0.610787054072057,11.215612959894274,0.2413881389286892,-1.5809984479588828,-0.37443698057453845,637.2876278339008,398.55982751304765,633.9985202269586,upstairs
22.036727879799667,1.3752649765638625,0.9207598747700698,10.646025066993344,-1.8533631070232697,-0.5651890324519933,0.3579665765899136,754.7781997042565,369.8092177852396,664.8733557553085,upstairs
22.086811352253758,1.213006727581394,0.21300612009410558,10.160923386328202,0.6728631372192607,1.4840980712374379,-0.1164930090112314,667.0291038264658,359.3615344422464,644.87155202301,upstairs
22.13689482470785,0.5259587065818914,-0.4201444073720039,9.04063220064455,-0.6189248151636111,1.3849828773271027,1.0222639481574716,694.1232413860291,367.8243412328692,667.1385500539859,upstairs
22.186978297161936,0.4192257714978043,-0.04929353710950485,8.659752892646148,0.6134026159986804,0.7767089235745767,0.1972565802031738,732.2450246661248,368.18888657222664,685.31748539213,upstairs
22.237061769616027,-0.2245213579269852,-0.6243703216163572,8.249462001662192,-0.782744801667798,1.0596224849043634,1.082833890830625,719.566333103972,392.4409784011541,617.9178382555941,upstairs
22.287145242070117,-0.8174526185388254,-0.8578296413008544,8.646216566148903,-0.1680589002879919,0.6443803832429154,-0.8769720034034434,668.6975900150026,417.14260131780884,603.9421321193137,upstairs
22.33722871452421,-0.9175166216235278,-0.8072026447035978,8.702015954444196,2.021776681848029,0.5429074588083578,0.25722740100373187,628.6166289135479,439.2538641475768,620.8130762540368,upstairs
22.3873121869783,-0.46144602259740525,-0.7381306521203788,9.590839607156251,0.2587972075069397,-0.2550151703653626,-0.1580952547258855,703.4285516776648,405.6479418527843,649.821132598189,upstairs
22.437395659432386,-0.42424144319266516,-0.6030659957024087,10.530142053077393,-1.395886413731138,0.47715789030908334,0.10800099576508673,763.1385687114254,374.5561999646124,587.814918733739,upstairs
22.487479131886477,-0.4847037345843142,0.11396972272259481,11.00260666033635,0.7397871324875044,-0.07968579503681222,0.9588841538667218,700.2288781233054,358.4215589507102,567.7190444394246,upstairs
22.537562604340568,0.6426422114083115,0.09501192625814897,11.553755479611485,0.0987961540543451,0.16989685322335663,0.21718204670576166,709.993279483332,378.94302349719237,673.3766128772454,upstairs
22.58764607679466,0.7208366678725832,0.5322875817622177,11.673491478217239,0.2401963163895213,0.031092028077602776,-0.8778285700499314,640.3563858710811,453.8920567878183,632.5935195704391,upstairs
22.63772954924875,1.3229347085900613,0.8641640397241257,10.976999233188435,-0.6354302671415797,-0.2793619517848045,-0.13730651304273103,693.9819841043678,340.8373679276375,563.0974552259904,upstairs
22.687813021702837,0.8378189972247548,0.5783669428538876,10.46458172232553,1.0651827115272852,0.216305115571787,0.8456143158835119,644.2792503109418,370.26630065613716,591.6184478029227,upstairs
22.737896494156928,0.7547493799116114,0.19160521630528432,9.70258018210773,0.4396517466560482,-0.15704493732336855,-0.31312354423687094,734.243041864528,352.9575302894718,621.3787883359958,upstairs
22.78797996661102,0.19361168674899704,0.15405341462477368,8.963629850369465,0.4000293088960553,-0.124480966364672,0.3015526421179938,722.4839317870264,419.6470597847048,637.6322735849985,upstairs
22.83806343906511,-0.37994400384438903,-0.6951417949374759,8.467614856069785,-0.49810418075936086,-1.2289157640135033,0.6141378357617756,694.493423975887,433.8308922349653,627.769882265626,upstairs
22.8881469115192,-0.5935226199803885,-0.8131043712713761,8.582275877243601,-0.927166483464004,0.10041649701146363,1.118626451368683,617.7704234326869,422.534445080748,612.4887080677787,upstairs
22.938230383973288,-0.9220237015880405,-0.5946316587709017,8.427066411476149,0.47048381031076986,-0.9762461683612176,0.27505813015373654,772.1792815232692,424.0042238082281,600.1708004014021,upstairs
22.98831385642738,-0.5405945450396207,-0.7391235377685692,9.22372426354505,-0.16781718637651258,0.9269800949977222,-1.1606104067520167,748.0480566153653,346.2254880785591,555.5876284542013,upstairs
23.03839732888147,-0.5264427201595575,-0.2964694950516951,9.805576396085058,0.6253310640556268,-0.21459550823983142,0.8106010527143638,752.7520713235285,394.66008081245036,570.3358789632181,upstairs
23.08848080133556,-0.3908032100535466,0.013441155246647213,10.622015077184598,-0.2962000845866071,-0.5203877370584574,-0.9194606933163507,757.1993027724743,347.61676208639926,553.0342502080998,upstairs
23.13856427378965,0.20546163273001705,0.35985464366861,11.369459737536866,1.2156382960443846,0.3968318528531872,-0.7330991392660413,595.5311205731907,390.43190947120945,682.2885472772575,upstairs
23.18864774624374,0.535303895063217,0.6743975714373571,11.559878567996842,0.609369897125108,0.20816412537282727,-0.10754972688814012,694.9415516267824,364.15228067189486,596.644682058939,upstairs
23.23873121869783,0.933214628347664,0.555832982489751,11.370138867349452,0.9314123343163996,-0.3615844002009291,-1.0710876836479066,668.8343798314663,424.47526885605913,591.181447345813,upstairs
23.28881469115192,1.0069156297498192,0.944988972427395,10.625120922444196,-0.42278233542479027,0.021411198211800757,1.03381686014507,644.7346828882236,437.77417511923727,591.7567769230404,upstairs
23.33889816360601,1.2553910197037847,0.6766206194445321,10.481175823883355,-0.14861869622452942,0.5556542981367676,0.28241603450863184,678.0642942547328,373.62519341657094,572.9603406937235,upstairs
23.3889816360601,0.3401571351882315,0.046146599172892044,9.306804120777455,0.12585566047831143,0.03590209156850004,-0.41181362947091843,642.781874905586,354.285743020257,650.8315905139276,upstairs
23.439065108514193,0.07753692442307641,-0.5892598499533188,8.677211718654513,-0.17870201453149348,-0.11659429593185594,-0.2884125479032888,737.5755591020534,376.93148514912565,591.0694083614724,upstairs
23.48914858096828,-0.2465285478314978,-0.5463955585487927,8.144899019092582,-0.3117549888155365,-0.3103004336270194,0.29362281112402716,678.8204853492277,383.75686532493773,545.4970868645638,upstairs
23.53923205342237,-1.0104601055926499,-0.7195859276137475,8.484808718922213,-0.6675580051263552,0.14735907224148256,-1.7677084212318546,705.559490602064,424.05286505688537,648.2979395949665,upstairs
23.58931552587646,-1.2511877870887638,-0.3621518181770328,8.651169563094946,0.6367849503679264,0.5528942281253368,1.2775286161039918,668.53521957034,413.9058725679426,526.2389972860508,upstairs
23.639398998330552,-0.548304871161348,-0.2763666337480095,9.506289244755527,1.1103402904496755,-1.1202667258975814,0.15238947063505975,685.5973502030116,381.731854745614,611.3088808146757,upstairs
23.689482470784643,-0.4536660300404027,-0.07525756907639283,10.403877176829395,-0.628555010679132,0.39007643572886247,0.9285390377918661,706.1435867821561,379.21583522383094,585.2601573684547,upstairs
23.73956594323873,0.04721676218036329,0.047505037430600805,11.290211924713278,-0.11054176663638556,0.1143865248767185,-1.3854579010843164,707.4265900356543,412.850013699508,687.5836908050921,upstairs
23.78964941569282,0.5445614041578091,0.5553798808080552,11.457050335803633,0.47575596916197904,-0.35643222797743757,-0.26088107900311475,640.1752650240188,402.5351243519256,578.8614692189171,upstairs
23.839732888146912,1.0901798507936602,0.4510933660932966,11.725964398371685,0.27105065417591484,-0.30174373879763844,-0.4254765400945446,648.8450166464097,270.54931738763486,668.5057664937221,upstairs
23.889816360601003,0.9576124834041363,0.44894964826311906,10.97807800111599,0.24356757158959047,0.07231556554420784,-0.5090254908211318,704.263304738661,418.0530228561199,582.4774489710453,upstairs
23.939899833055094,1.0144747455536323,0.746967421510516,10.405478796113464,-1.1021812565809632,-0.4088013441465632,-0.8303552080979367,623.4374687214219,346.0404167348515,576.058640255753,upstairs
23.98998330550918,0.6433619304781251,0.44137929266552317,9.605702191581537,0.333036252284647,-0.9302345556030756,0.6637551582730399,668.4152977731188,432.1794802555313,640.849549384092,upstairs
24.040066777963272,0.645640296091766,0.050110521759318544,9.173763860058127,1.7878238575192056,0.1625735264565928,-1.7173620268310588,682.8295699618371,438.7735616832716,622.1629872711923,upstairs
24.090150250417363,-0.26275995128031154,-0.6841911008372794,7.9044300736495545,0.15155377564183653,-0.8771654750306279,0.5132661334924066,582.7016408190377,365.6942849143928,635.0144930264357,upstairs
24.140233722871454,-0.369542740676108,-0.7238293751379243,8.166080814882315,1.1160426906325,-1.0144985145144514,0.11424723345168607,671.3325547490002,422.6390431177645,638.6267082633314,upstairs
24.190317195325544,-0.9740615727170238,-0.968535257572416,8.551469063614896,1.5445378542018144,1.658373792646081,-0.2180013998072331,702.611881123771,385.5030829226316,714.0023041538304,upstairs
24.24040066777963,-1.061928193568133,-0.7273598700487387,9.485990048877861,0.45918600005008814,0.2768371040020232,0.6864731428978644,717.6393574466489,348.05213392973997,654.8505830345307,upstairs
24.290484140233723,-1.0004213797284542,-0.5562860845132207,10.043299652646391,0.39094277260489246,-0.4772579446653882,-0.39690639842779185,672.6167577853046,398.1114429772622,584.2377524193985,upstairs
24.340567612687813,0.036754133166198896,0.13070835654394475,10.5964855055634,-0.12208184490950318,-0.03665100110902074,-0.6122336958327518,650.7127177103811,392.8671552397086,560.482660721236,upstairs
24.390651085141904,-0.13396757558649114,0.400124028111577,11.473184475564468,-0.670773397945098,0.25717943485729094,-0.5709180052036018,711.9587608212579,459.26202953196366,633.8841236457622,upstairs
24.440734557595995,0.5216214258193784,0.6648264701997293,11.914980478035503,0.16512930338926265,-0.18074056537108701,0.6614162304336335,652.3103167568328,385.9008721065913,631.3188969023461,upstairs
24.490818030050082,1.0925009506544,0.836409971849436,11.234514073839131,0.389558212363473,-0.7401468142578794,-0.006253091581742923,712.23260648022,510.79825077184864,684.1010200369766,upstairs
24.540901502504173,1.1865553907289033,0.6804132239858709,10.81307699247408,-0.6388930006294776,-1.2202547450574568,-0.3915389185148214,663.144726985443,424.9892233778823,580.1413967090737,upstairs
24.590984974958264,0.3612482111430532,0.11852761468099052,10.092129433947468,-0.497872596482806,-0.12604266109889029,0.49388889795028307,697.6179309796049,310.7242766300794,555.4830510363862,upstairs
24.641068447412355,0.35478286862166925,-0.026406164445908223,9.146880178549182,0.3572216529707155,0.29290038809664815,1.2438976124483256,672.7178593002643,385.5692512263997,625.2929457302695,upstairs
24.691151919866446,0.03167820550615764,-0.32490082419072003,8.6296404743433,-1.0996254369794023,-1.6674123957787932,0.7077396641560186,757.5114757230233,390.3779595961805,620.3402293154453,upstairs
24.741235392320533,-0.5957593872410767,-0.5475925526117535,8.247443385019189,0.8591569028845955,0.2327408871252414,-0.5314826299376484,590.5352035623566,351.123918768525,623.2417188667689,upstairs
24.791318864774624,-0.6072637214267386,-0.8371215329073276,8.565891349643655,0.6613859577942115,0.12727679927230662,-0.3027446586138096,781.0665413209007,384.81558697635944,592.0560241625976,upstairs
24.841402337228715,-0.8283628674318111,-0.5598805753972185,8.625261488146064,-0.045723232453333644,-0.23184698395031791,-0.7804970687580043,646.1829638714546,381.29591924412506,694.0822443058602,upstairs
24.891485809682806,-0.7241779674692115,-0.36755721657233287,9.885831961669666,1.2084981694426724,0.21876856410919313,0.18490223031655764,688.5706316272112,374.4477328025493,730.6998873259711,upstairs
24.941569282136896,-0.650640086519077,0.014566010740843655,10.550024175562529,0.8021317967437381,-0.8502666530704989,0.8320880741138428,660.3620243126793,349.577600875635,632.1919470535765,upstairs
24.991652754590987,-0.2513732252808532,0.20329415391899824,11.285609367125693,-0.5280569811156831,0.4757237136581663,0.7242030440464022,681.6144291584563,355.07903146898695,578.244923241909,upstairs
25.041736227045075,0.41066592978072786,0.523844104492174,11.561769005568204,-0.9333739588386706,0.7133265584453269,-0.5739957438617193,669.3960385788305,344.17172087829795,641.370675377412,upstairs
25.091819699499165,0.9897594324376583,0.8120769853225278,11.502433279925752,-0.27019099735153845,0.17314129059636416,0.5377878144172508,634.1500471426134,389.53321844035474,608.5804072587817,upstairs
25.141903171953256,1.3565585658191268,0.1842795873499925,11.016360914384988,0.09742245391418544,0.2905427225977625,-1.0427412664377436,633.4729185822375,423.8807980706531,634.9160960415757,upstairs
25.191986644407347,0.9151826689397528,0.35912152268723946,10.474122399091115,-0.5874345737312417,0.6918804924754393,-0.7107944792010575,692.3154666533279,403.4660307616944,681.1392868645578,upstairs
25.242070116861438,0.9873866207150194,0.12135773502679376,9.484034871793202,-0.07673508379363245,-0.24549889948046688,0.2476935937989891,634.1526043492306,373.88694353968793,606.8056591026802,upstairs
25.292153589315525,-0.1877202786971513,-0.0972472570341413,8.879781122383752,0.37768067337657046,-0.8789344319248849,-0.03519361504414828,697.6490177157278,420.05400932221505,595.1771080239108,upstairs
25.342237061769616,0.002628892163881666,-0.784756299851235,7.926605852806025,-0.4138997208831152,0.17824212916850932,-1.031748003325477,685.8190119667214,370.6759474093399,622.7019915375608,upstairs
25.392320534223707,-0.6207641308761788,0.04004667086808816,8.481292484576754,-0.4376818384056718,-1.1450278210494482,-0.2794186269660397,714.6404109424789,350.9735427721816,630.4316986200698,upstairs
25.442404006677798,-1.1225829041413486,-0.9321793879951576,8.451844652104462,-0.7387770236739448,0.07699171853640949,-0.4381740041072036,697.4942488770557,351.094928643212,608.0072882589639,upstairs
25.49248747913189,-1.0015856704731,-0.6929216671803258,9.421362002192694,-0.519561346030462,-0.41017904653414633,-0.013014005881008858,704.4031538505303,359.90388899648843,656.8228945289655,upstairs
25.542570951585976,-0.39875562306497336,0.26364012174646295,10.188476049376463,-0.40172509306733584,-0.49731821559578193,-0.7547105818162907,678.5747918473081,338.6736675790531,599.7363727431032,upstairs
25.592654424040067,-0.5305838109783757,0.037945698264029035,11.067138245039242,-0.5061765153107086,0.015923317159903746,0.5803178914025815,705.4063004925357,382.5927649544584,657.0857795254444,upstairs
25.642737896494157,0.5224628955914166,0.5964558272852547,11.449282549153986,0.28823480713580085,1.0658393410156313,-1.2080561944870032,637.9940095846582,432.32026962344753,608.7224485130788,upstairs
25.69282136894825,0.9324459147555728,0.7453560277898326,11.2963508488028,1.0479512184108664,-0.47807795998287717,0.3949961618250101,619.8458973704496,345.7888644094691,664.8311417504374,upstairs
25.74290484140234,1.0927461634851798,0.5598443444743406,11.474611770700822,1.4500797197646786,1.029766484220584,-0.9072674353121528,690.6627748867683,401.55513525340115,711.2619724472293,upstairs
25.792988313856426,1.3427872625875543,0.3937487117840686,10.893576680289156,1.326456322477312,0.840959179320194,0.7390089808920662,594.2726076531105,388.097920983405,670.9213080781573,upstairs
25.843071786310517,0.8549989959620412,0.46096146392508636,10.316564186608066,-0.43092867374426497,0.4712922882808493,-0.12389575189457874,680.3981808206064,333.4642736985925,670.7571651969373,upstairs
25.893155258764608,0.2890502027257003,-0.013736920948673355,9.384171391749327,0.07999951487058281,0.7612230840167605,0.16358675231239153,720.6564797828337,385.46938714632336,654.0176351589258,upstairs
25.9432387312187,-0.05763173374880935,-0.4257208163547977,8.562547908170183,-0.008965391178354567,-0.5244382483896944,-0.06660287603393636,684.1908612303719,403.3623170526005,665.5559019831071,upstairs
25.99332220367279,-0.23464955615399025,-0.6183246186845008,8.331556459245972,0.3351285489038543,1.1189782877261794,1.6957488089391695,747.3903852783809,418.04945390175885,648.5815523975801,upstairs
26.043405676126877,-0.9495272578945474,-0.8670040854105803,8.764272520233295,0.17140262185865873,-0.8788302383794184,0.03744537398240413,609.5771659477771,367.58268837363175,540.5284343334155,upstairs
26.093489148580968,-0.7577677302877873,-0.48311922011489067,9.086892585030105,-0.3009963387247136,-0.6270582329937273,1.322800334945617,717.2192723814566,410.73325026399243,643.4743589294973,upstairs
26.14357262103506,-0.8651184132942853,-0.8242696944244707,9.628185730113612,0.6514822753271183,0.1129512764160347,0.20655358752999667,667.9996315717268,384.9907508412184,616.4105122529447,upstairs
26.19365609348915,0.1331111723626373,-0.03698216859441418,10.750402256083477,0.4636008553776953,-0.7553661204145696,0.22533463297454745,661.0141188028513,410.203690752209,605.2300760738084,upstairs
26.24373956594324,0.2152307728964089,0.413011013366213,10.934162321531426,-0.0644706862736292,1.059415491786198,0.585551783076855,661.2726476835775,327.30059060892717,638.8590278084424,upstairs
26.293823038397328,0.7269814980085103,0.6767445592070416,11.340093194171958,0.8213498363357544,0.23051538711762065,-0.20849710656694326,621.9581141182862,322.1644818930582,604.671377410864,upstairs
26.34390651085142,1.1044859360137298,0.812206722785257,11.679068154215646,-0.643601080571524,-0.48681082544621707,0.5754102152166233,652.2678252091084,347.2659444491977,604.1612184659044,upstairs
26.39398998330551,1.0143320714110582,0.6509718955684547,10.902591642333187,0.3847970558325185,0.46337160781616854,-0.26380951175679684,585.8694795021942,346.5611007036781,668.509494898348,upstairs
26.4440734557596,0.9914255915259054,0.8865063169139222,10.1254462609546,0.5540398475960208,-0.06036019610486634,-1.8689058093695368,724.9527037464171,373.725635631277,679.0760423838325,upstairs
26.49415692821369,1.008945102281043,-0.23560557800892132,9.554877563647183,0.7272067592378817,-0.45097806278305447,0.3164900728721549,732.6988324840489,356.76543604271404,590.767002747006,upstairs
26.544240400667782,0.07363756122322075,0.15614057597794373,8.840297812732091,-0.03461190338536817,0.08972509133329978,-0.9921164568827116,670.3862217863373,409.61212434789195,567.1209826084512,upstairs
26.59432387312187,-0.0359162998040939,-0.27681079014994076,8.024246205043339,-0.8311010722239798,-0.6623960295251671,0.2309011046683507,688.1528418713276,346.0853709388355,681.2111904198556,upstairs
26.64440734557596,-0.3877010771531514,-0.7685052438016771,8.280418147027337,-0.3429105150058615,-0.6347662834909044,1.6972740210136008,707.9334953988538,426.96626289687254,581.5280986778823,upstairs
26.69449081803005,-0.7574466702735577,-0.34842070574710354,8.769054317734225,0.05008885077870827,0.2514662486673125,-0.4127784964773721,614.8394289769104,413.82378462176143,604.3644711968429,upstairs
26.74457429048414,-0.7422604216046906,-0.6353979384313093,9.368289709359608,-0.008539784066274824,0.2751085839791949,-0.7909672193998158,673.8378179781297,361.8941464604232,572.778310779506,upstairs
26.794657762938233,-0.7530251424380118,-0.3384314982678535,9.9874524583826,-0.7315849731795262,-0.7866673694115257,0.06782130910526794,734.866281889025,385.3846296941108,613.1299219204877,upstairs
26.84474123539232,-0.03703200876678532,0.13618268335507377,10.824910477402106,0.09406435941548899,-0.39659855556443047,-0.45091936228496593,587.3542890860083,433.54544734404305,637.3298157845942,upstairs
26.89482470784641,0.42284076563328593,0.39143430825727343,11.400590691700545,-0.6186905970650479,0.6542497836286963,0.49605931788965635,707.4737844501702,319.0545876056146,533.0621590721912,upstairs
26.9449081803005,0.6560785195104146,0.5878513874895401,11.532738470098906,0.6740014657612059,0.43103072719823526,-1.4082250199294741,648.1152588896299,389.57233033804096,564.9509269357637,upstairs
26.994991652754592,0.7276382558814676,0.6263968730501559,11.070861086528835,-0.8838952369690652,-0.33835718081609445,1.1727364684095845,671.2606683213795,401.00649486785017,617.7619939350377,upstairs
27.045075125208683,0.8593553164103044,0.3294358366395025,10.82927527697374,0.19208218783295367,-0.5613950597912734,-0.6672044681826915,671.8515537086428,330.7128788290109,625.6145941026025,upstairs
27.09515859766277,1.0285424702784427,0.45204220108690557,10.0452307765029,0.2938713902352868,0.7098282867154778,-0.5969699939321098,700.647544259078,346.4950557894946,669.3983657818577,upstairs
27.14524207011686,0.5514064631871403,-0.1291929148686352,9.179558521544626,0.1822949916330122,-0.05315052628494843,-1.1053339972778564,644.4636897358437,403.0838247152601,609.6457719630079,upstairs
27.195325542570952,-0.0988677466549052,-0.34965411428285914,8.360192011902397,0.921050786305923,0.5936280335522024,-0.5753618361889712,625.2112814680202,438.0403064519578,564.6265377587522,upstairs
27.245409015025043,-0.4590554325195995,-0.9229166769933841,8.611173674888422,0.997358976208212,-0.500101103255856,0.4407752733138917,696.9348015427028,396.0587845800989,640.0529494407939,upstairs
27.295492487479134,-0.5073244659917426,-0.9082685814834983,8.911107778958806,-0.20583438093017356,-0.717056687337381,-0.6311181466092436,666.9745459261309,393.7109204484151,563.7340640321489,upstairs
27.34557595993322,-1.2110956006575784,-0.6765677501281695,8.664940194390061,0.5536893964451789,-0.00694819674108374,0.3650065130882329,593.7916685883531,413.69165504786423,684.7339399611309,upstairs
27.395659432387312,-0.8009744650701286,-0.3471128112340156,9.380479055579796,0.34370886537619794,-0.8327226333348561,-0.03937910139301562,736.258052143426,432.98615406033514,607.873362573352,upstairs
27.445742904841403,-0.523136378976569,-0.04573353208466398,10.206042707226608,1.0760641667776394,1.37011477523854,0.1253597354070171,680.714560189115,333.05807234570136,611.1809659459543,upstairs
27.495826377295494,0.2986628573485429,0.019614319960371746,11.22450757004488,-0.7539185331650498,0.11001591052864418,-0.584248938212222,635.4094442198074,393.89487198609004,660.1746715190097,upstairs
27.545909849749584,0.6364188119023361,0.196063807744089,11.783076477644947,-0.34740540665744185,-0.0896527321016846,-0.3351585937611806,713.27108061904,348.69328280223044,630.334950885807,upstairs
27.59599332220367,1.027909253793867,0.7346333684935193,11.551278543227426,-1.03839930928115,1.039055818807305,-0.37357011130975215,638.6829507826338,468.8424666643382,609.445336233649,upstairs
27.646076794657763,0.8056512724851664,0.7820143833608642,11.18178806146041,0.6770135998251913,0.3318001645927217,-0.32187553459928375,663.4746461926256,421.2579609836102,632.0795495111721,upstairs
27.696160267111853,0.9272813985209879,0.48193492438814306,10.71744406763932,-0.7715700533837377,-0.04361516931484236,1.7400865450891465,602.8989089411741,378.89810492123695,627.9780625165712,upstairs
27.746243739565944,0.762296724373441,0.4079515766739014,9.621863634562027,-0.601257072091838,0.7425991790734159,0.27977905789983065,709.2810457272986,382.8513382316041,635.3502719168328,upstairs
27.796327212020035,0.3012018979915127,-0.25519875113807133,8.78387528808601,-0.9210696415301942,1.22257007959079,0.4270699506078427,669.8084236296172,416.35986133233547,641.8912841306665,upstairs
27.846410684474122,-0.45861730004774276,-0.23637381357657677,8.598912578888426,-0.1467530478263113,0.6557347312196798,0.6440379690055629,658.9421420778336,393.7183960087001,661.4247259439569,upstairs
27.896494156928213,-0.7559159454541841,-0.7962866221029707,8.168623605759384,-0.7595631415610512,-1.6898825296008628,-0.112256613361487,738.4172685683853,374.58201133863037,629.3025393870123,upstairs
27.946577629382304,-0.7219687694832708,-0.5015340732520214,8.568191538409748,0.1432123312057065,-1.3061180265763797,-0.16128006781898466,691.0604895722626,412.6326110143208,609.6491216369602,upstairs
27.996661101836395,-0.7471933206794037,-0.32661650991795665,9.37419807881614,1.1503685299303705,0.4715426263805862,-0.6219326619553036,690.5073428463897,408.4845838622461,569.459079189368,upstairs
28.046744574290486,-0.4841063261371468,-0.4624209992413449,10.293246256955781,0.0758828408575468,-0.4468211862102538,0.5276016285519827,624.9809104000977,383.48514488757394,651.5463723716609,upstairs
28.096828046744577,-0.2984720561827582,-0.2503549131989062,11.065460105386379,-0.36377620198999494,0.5256754914733247,-0.3776710936577982,746.5052556585584,375.42684864208553,564.2694137437152,upstairs
28.146911519198664,0.19785978594700515,0.45838635659203636,11.398269562359877,-1.1033467803041177,0.08935557932498764,-0.04014040106190669,591.7721280114065,399.36220941051704,531.631562586543,upstairs
28.196994991652755,0.6353187164874062,0.723114888948071,11.907856661703999,-0.13431708961735786,-0.05980719560375894,-0.66814283685607,742.7935329491069,371.34733831531497,603.8862668172264,upstairs
28.247078464106846,1.40504300274962,0.7814213530226186,11.39509098633209,0.19875218357884686,-0.08614806852754633,-1.408936732794072,716.5902999601548,359.7948921950221,600.0265579998743,upstairs
28.297161936560936,1.0422611221356108,0.5037695769585917,10.960662185372088,0.09486463933382551,0.4031301488512954,0.20042737071138716,619.4120746320923,340.84888095632635,618.8649057031392,upstairs
28.347245409015027,1.0891407554784887,0.3119527107328188,10.112838356138807,-0.6328458607651536,0.11126237974399558,0.167292490844923,717.9382182001065,390.9233206247258,653.9629878012195,upstairs
28.397328881469114,0.6182444312277109,-0.37746690472535976,9.306953398542415,-0.2828329984632295,-0.2014346617616961,0.7535094121560739,620.2343474540585,381.31915583566365,625.9586415773266,upstairs
28.447412353923205,-0.37309579607936344,-0.47182732938284366,8.799055701753694,0.8031969654715739,-0.615724992227035,0.8057175486557683,739.6197620137576,348.43891753733936,601.84214122815,upstairs
28.497495826377296,-0.18828847722700182,-0.47900219644492,8.089190740259712,-0.5667298163082668,0.6849028624929413,0.300577929594872,661.434382190643,317.72961824054045,637.094291540668,upstairs
28.547579298831387,-0.7565015010397679,-0.7831288721474325,8.57779733633759,-0.31722870249110235,-0.2970854888853194,-0.01013061065138236,642.5647232973354,378.92809562966784,601.2013211386154,upstairs
28.597662771285478,-1.0927495145613033,-0.8963469980549319,9.13666835092963,-0.7559445164043493,-0.5906549740509944,0.9300412388747704,712.0117879136716,413.65644699024614,572.11531344698,upstairs
28.647746243739565,-0.5212594701291428,-0.87668326888074,10.048490492052379,0.8249764039596285,1.1066542462177351,0.014760683024902717,685.5669033936547,386.63727287010965,719.3074637200191,upstairs
28.697829716193656,-0.5945955733212044,-0.1141147368606347,10.449396950559608,0.38541432286073884,1.101731386599916,0.13533187923646095,619.2959277327518,422.3561287078757,621.3506080518442,upstairs
28.747913188647747,0.4392498478674952,0.0671520848849701,11.007604174301644,-0.3084828700268327,0.41453534670816894,0.27034718209306785,657.7209917557686,409.33053634999715,594.3041064530523,upstairs
28.797996661101838,0.354798355463294,0.4618249098145895,11.384383697127948,-0.38804169307238606,-0.4881084348131827,-0.57312178737396,776.2829684185438,351.0584569464825,573.1231370830512,upstairs
28.84808013355593,0.9843808094525958,0.9401968726435639,11.303642667323874,-0.817265066798849,0.8961296971282527,-1.09484880563515,692.4420565736547,382.2260078564846,671.7336486931526,upstairs
28.898163606010016,1.0473971849246932,0.799367116632032,11.10439573629609,-0.08790145372167972,0.9107746813327364,0.012378041631369706,732.205133842835,439.3396433788564,627.4817740073933,upstairs
28.948247078464107,1.0317576713108199,0.17365379501259573,10.156442432221885,0.8081375602613196,0.1649141526947901,-0.007628715985960528,687.2357269294853,356.6527993486982,635.3253596945325,upstairs
28.998330550918197,0.9748735060096754,-0.2087777363236307,9.469594487036,-0.8489584000247802,-0.14712844548370613,-0.33743144109896384,667.38940268923,391.71967368685773,582.3769616423104,upstairs
29.04841402337229,0.2793957496548446,-0.021323682885468875,9.009324090483183,0.13126022754692698,-0.7982387091810319,-0.2978566335678172,635.8743381228492,415.73455669553755,603.3015460858819,upstairs
29.09849749582638,-0.23244435805907376,-0.5197183252757387,8.262463802752386,1.066421084122364,0.5770560984367741,-0.5488193323610233,686.8081348364514,400.6098530557062,744.6776368351497,upstairs
29.148580968280466,-0.8111976149861806,-1.0496504121043677,8.360814078261434,-0.04373213191990916,-0.45794624027650727,-1.1162798868375559,695.6397232392201,385.9300002985555,683.4040313319077,upstairs
29.198664440734557,-0.9146300597346991,-1.0188572287073852,8.837487788158704,0.31677197597714285,-0.8018106776576777,0.20147336513834735,665.0802209834264,371.2783573243086,602.2193555027959,upstairs
29.248747913188648,-0.8910166251769454,-0.2661501010315768,9.274706450244711,0.4680088342550837,-0.09818275989845726,1.7242517442974985,666.2752780857222,360.709336910896,581.3325536845142,upstairs
29.29883138564274,-0.5929449077879557,0.09612775500780896,9.94848974659866,-0.7456265678220034,0.14910837441989092,-0.28335913516633093,664.9513295715922,384.96672328466315,612.656214425076,upstairs
29.34891485809683,-0.09052204059956241,-0.09872025708472268,10.907856247283624,0.5576520200654064,1.3300289591374033,0.867966791538874,636.1670352209228,354.8035711811782,537.8198660540002,upstairs
29.398998330550917,0.4114310366487904,0.3649497460928706,11.27876654241674,-0.6255318936944613,1.1304148427490925,0.245331561827141,773.4247827276308,371.62902667319486,662.5215303648575,upstairs
29.449081803005008,0.828105651987733,0.47785377887717245,11.588385548942417,0.022260767813057348,-0.8485409046976845,-1.2838561207833423,742.4743482467485,346.89129941282783,643.8250761595857,upstairs
29.4991652754591,1.1493694358116748,0.782107455207391,11.205602918724246,0.41747542463625625,0.2568540146430158,-0.6059776851151425,632.9054153191929,328.7935636718443,532.7164743239691,upstairs
29.54924874791319,1.079843108770052,0.5835289432672484,10.575130671565812,0.2697066339514674,-0.3514927919657812,-0.7451909157883596,685.1339707115371,442.4405036498216,607.3807676154975,upstairs
29.59933222036728,0.4492206899522286,0.12920267699667443,9.543239152436716,0.0819569831883194,-0.8160060559925634,-1.9101535956143232,731.2800048634496,393.5634277177097,609.6214145254534,upstairs
29.64941569282137,0.6531914750287021,-0.03771075428832153,9.276177016593737,-0.1863256531598002,0.8149743241144844,0.08962492628731507,695.2530279342482,405.3163513363528,548.8381458049982,upstairs
29.69949916527546,-0.038411790658475733,-0.4533355330705469,8.301954997560454,1.064305691159404,0.09197541853212811,0.1459872741155106,658.8913550561316,410.2535974499822,705.3156346662931,upstairs
29.74958263772955,-0.7010036760546136,-0.7542575248565828,8.396498479332593,-0.8873350639384636,0.5083566038311604,-0.8682192248077121,646.3519642303462,417.64265186366924,569.0899199474408,upstairs
29.79966611018364,-1.0918697021470067,-1.1837963863447798,8.560541425945557,0.5972419688996576,0.33244702720610425,1.2846868675111816,754.870925155624,366.47070605862893,611.175829518557,upstairs
29.84974958263773,-0.8873339225852442,-0.6876995860948458,9.076097333265603,0.3168532808777662,-0.018734550425664104,-0.5935634589418982,630.0087694603969,431.6647721419672,663.7290212000664,upstairs
29.899833055091822,-1.072004133713799,-0.4722091877023443,9.540041418804147,-0.547855825999452,1.0189881063991173,-1.4091380960722149,652.5987044680655,405.785344895324,621.9323720214388,upstairs
29.94991652754591,-0.46596812474388877,0.13959049836747794,10.645338014896828,0.1582326379059313,-0.3931772836267078,0.7579870691745308,615.0079831825467,305.263897629699,631.5022627182623,upstairs
30.0,0.339175003882024,0.5676465886227535,11.200558844150466,1.883306271513153,-0.22477458281664234,-0.08579685353222612,704.6073793492951,305.49609762878674,646.3004628276893,upstairs
