timestamp,ax,ay,az,gx,gy,gz,mx,my,mz,label
0.0,-0.11128298068113306,0.2738232422936813,9.296073129240638,-0.1670134620844997,0.5137592592918575,-0.09983607744732996,736.188301189735,390.26547910970504,635.8752419560436,downstairs
0.05008347245409015,0.667952319072342,0.5396293627147819,8.38616766578497,0.5084509873412879,0.9125185732285019,-0.3054115981604172,733.4414685284845,453.82624741317784,511.74964379447795,downstairs
0.1001669449081803,0.593100515043077,0.39435644992607516,8.426437665856177,-0.43388011754146893,0.5104862108053735,-0.9059218122893931,664.7253565598369,408.7254285022896,651.6567081373366,downstairs
0.15025041736227046,0.8542615057427562,0.7862919466053655,8.28158979226412,0.8843399859929529,-0.46314594223924904,0.9497375395500197,632.0216280697542,400.8845128984854,656.937670353633,downstairs
0.2003338898163606,0.8961917442377912,0.21198331093985628,9.208848667586437,0.6476272820091307,0.6637364984389988,-0.8081929204853021,678.6744318642291,352.7602677412248,643.8607501426716,downstairs
0.25041736227045075,0.8025878400934412,0.2312712100769796,9.69076859359649,-0.9735003819614004,0.37281029274914895,0.24877030799321534,708.2147306615742,364.1138124151403,631.7911856041662,downstairs
0.3005008347245409,0.4892111996091392,-0.26484910697670044,10.018915056895239,0.6263033911554943,0.014396579292485409,-1.2377764485919576,662.7188284173997,378.0433772985119,626.9057552377559,downstairs
0.35058430717863104,0.04571007304042257,-0.31064162402395007,10.72455511832333,-1.231873449668436,-0.043392464807091115,-0.5284402497771054,695.2427790377238,362.0957102772363,607.4718652170361,downstairs
0.4006677796327212,-0.10402832660027263,-0.16727980108789137,11.292650629205754,-0.1739285512360409,0.5210802487246017,0.0014681470766695355,687.3295353733774,401.6591878954676,576.5197488199099,downstairs
0.4507512520868114,-0.29418022106413527,-0.5142506705103204,11.18711201687653,0.6215928880603957,1.1654964016479514,-0.9675678563647057,576.6366652509414,391.712451592779,694.3801149738723,downstairs
0.5008347245409015,-0.9610194289361945,-0.8595752986049179,11.00787986652149,1.3835805710653908,1.5485456925070509,0.3733317907775531,700.7091846456922,392.61090824952214,652.5115285802917,downstairs
0.5509181969949917,-0.742224881592328,-0.6754421744130468,10.57005415926925,0.7057626421704386,0.29547818156415734,-0.6780829686008593,650.6568431465922,431.58207135261176,600.1942796724427,downstairs
0.6010016694490818,-0.8690290946213145,-0.6414458955828735,10.606457496531077,0.1418340922702157,-0.3112879078773813,-0.6410726596069595,674.1835268049074,417.03249870546114,608.4186135597859,downstairs
0.651085141903172,-0.3700362702473976,-0.31494255750830696,9.281173356534708,-0.07631637901917854,0.36802172403177846,-0.694676061846468,685.9342802663926,375.64858693188637,695.0590100931994,downstairs
0.7011686143572621,-0.10649734903623222,-0.2470717936457851,9.15128656178107,-1.086933712955029,-0.3600671251110932,-0.1911054387878908,591.6485231745966,396.73243451000866,625.4631647416506,downstairs
0.7512520868113522,0.12684239198201358,0.3619064008672087,8.499448365265248,-0.6000646386011211,-0.41271104254740043,0.23327358483343902,756.4682602346359,367.30877620109675,622.0242303807809,downstairs
0.8013355592654424,0.8573563047082634,0.7335305869564739,8.43235454569882,0.003523289841404015,0.27514335873123125,-0.6083442121691773,638.0450294203143,297.8070780192968,631.3704346572862,downstairs
0.8514190317195326,1.0570871618411595,0.605142555966772,8.989489214424472,1.573216477161281,-1.4740947734262322,0.08372861212323969,646.968411780534,421.75593258530813,637.6507162121097,downstairs
0.9015025041736228,1.2524718274559872,0.7792582093978064,9.082608557985578,0.26410551437795005,0.6012131292397691,1.0042106644386506,680.0118835392294,412.489322413098,584.3505004003368,downstairs
0.9515859766277128,1.2665733492763924,0.7824376238232003,8.9805816317648,-0.7991424772984648,1.3215264107506124,-1.0073718456409364,624.1628117787842,483.61052033588817,563.7359978217848,downstairs
1.001669449081803,0.3712808510107621,0.11438304158861545,9.993518940999193,0.6829383443032969,-0.9357047832963422,1.9688368220411863,637.718946870955,371.61534937954843,658.22318891544,downstairs
1.0517529215358932,0.4942933373582406,-0.2724476714771955,10.405959530578581,-0.2620280485195068,-0.4045066769858215,0.2724436345380609,714.4448304506464,358.74189608897507,681.6034928660157,downstairs
1.1018363939899833,-0.22106757051225728,-0.2921032130486334,11.23101014224263,0.8468485543406432,0.72224547820563,-0.23396781074443543,641.6713058099571,332.9789377604595,542.9356704977765,downstairs
1.1519198664440735,-0.447240006377655,-0.9121311458996102,11.39746556746326,0.5225389230744046,-0.15529566173238293,0.3210362889880409,678.5584510989395,457.1343077602403,577.1783288713068,downstairs
1.2020033388981637,-0.6276403542421217,-0.8385697470912943,11.22745323132502,0.04004111445526707,1.3418178869633248,-1.2133433696035927,694.2557504096449,382.70881407834145,589.8026297318095,downstairs
1.2520868113522539,-1.0617818795322138,-0.48797581087919734,10.6984317842335,0.004633258045351512,-0.26862940053053885,-0.9344412254277855,713.2957181005293,422.20468298525185,632.0764948649285,downstairs
1.302170283806344,-1.0541945037183276,-0.4789107626752152,10.220536605308244,0.9434363915899556,0.05961890738231098,-0.3284667758427325,682.2869053148356,340.7923949401761,548.1434237044166,downstairs
1.352253756260434,-0.40922704738294935,0.12247947939153,9.753732429889673,-0.9044275136352833,-0.6597660814010228,-0.5229247410286642,764.6517172860754,361.10932725955263,663.2597735543372,downstairs
1.4023372287145242,-0.3136813538069009,-0.16426932996348484,9.076334068948958,0.09628310416372456,0.18580039479151383,0.6613326451140137,680.585016238441,358.824569317682,555.8219048653243,downstairs
1.4524207011686143,0.37852183016373564,0.19378707875166973,9.162294924672606,-0.8066272161572817,0.10000521884118767,0.25280834175972405,710.4380157164945,388.0905338813411,622.1227994385863,downstairs
1.5025041736227045,0.591136230684992,0.4120837416998075,8.584045317167904,0.32720048551690145,-0.8061649912137345,0.05938804445160139,645.9994361103124,455.9447194656864,620.6743484694467,downstairs
1.5525876460767947,0.8544337143449361,0.638836470720529,8.716089697388613,0.10162295231973333,0.672624774128108,-1.0299432631448864,735.1920217776659,380.98210804048574,506.41013927266937,downstairs
1.6026711185308848,0.6134487534727989,0.5871190229711334,9.045383952526851,-0.13502705742464227,-0.06004057718904278,-0.279146588472857,681.2869666174018,405.1297851300262,580.5710158886303,downstairs
1.652754590984975,0.6803706595987236,0.12220628525266541,9.142727789381986,0.05233753460148163,-0.31910198066507894,-0.5395485013924589,663.541547587586,360.4417916834257,626.210435237337,downstairs
1.7028380634390652,0.6767063508178542,0.024518193813105355,9.497505148799618,0.7331608885638623,-0.3476442178970333,0.8988839480650109,719.6901260049045,446.3452457780919,653.0459651494224,downstairs
1.7529215358931554,0.17150720200660047,-0.23239813704765527,10.242077178031847,0.2934495595829363,-0.2446924262668111,1.0471356814601402,641.6319406291501,370.9854019046439,559.3237348246623,downstairs
1.8030050083472455,0.19709794456528523,-0.33584683191182363,10.629878160557022,0.6522456341541323,-0.6523951757932118,-0.4174719295671618,758.6914966146703,341.1286808763693,666.7029945308273,downstairs
1.8530884808013357,-0.4674608472724631,-0.743190430620007,11.177222908682944,-0.002720334677704359,0.8347201440009397,0.3533508707871676,697.4703082719067,370.1742323629057,613.1418832249943,downstairs
1.9031719532554257,-0.922698986031779,-0.3299703849425754,11.403168362694272,-0.21548155469850466,-0.4137375965056261,0.27375503068964774,686.314678843806,381.29813811714615,610.1451580211414,downstairs
1.9532554257095158,-0.6619159443641477,-0.7605325335152375,11.067856999962556,-1.5823592000794813,-0.9564423930569991,-0.5867458660625158,696.7088474017766,390.3912824368735,715.6222388308736,downstairs
2.003338898163606,-0.7845222065522779,-0.48760945920888465,10.335851760499752,0.8581528467570074,-0.8372049989002683,0.8302561326959902,711.9330168672932,381.5640296242321,607.4916579286921,downstairs
2.0534223706176964,-0.4468237328340788,-0.5210445215544347,10.27376806961144,0.2134207646987053,0.8168015265581201,-1.2238335698032543,725.3419062713436,354.2280316653959,669.2451476284855,downstairs
2.1035058430717863,-0.18310628647966098,-0.2986314458876185,9.65739502002875,1.0591092127908799,-0.9070771143737849,0.12625057927386388,622.2412446080118,360.08524314573265,657.7785608516733,downstairs
2.1535893155258763,0.17660652735421206,0.27970589423921544,8.778503649363614,0.32031129516287316,0.11352755717544741,0.32903550567270073,630.8387269581376,422.22471187573274,611.3065775833386,downstairs
2.2036727879799667,0.5905963950850175,0.4960259910017117,8.68334580801755,0.042754104531096675,-0.33510685614370866,-0.16018855619834782,657.5485244348802,386.5564836400995,691.6765480127885,downstairs
2.2537562604340566,1.0427305545126972,1.01842887157294,8.795581412885017,-0.1623183679003357,-0.5407786430571153,0.13697610736506938,727.7488056480126,457.694999115732,522.4049116121511,downstairs
2.303839732888147,0.9861734409694215,0.3127783357640513,8.54022406953494,0.46612345709248865,-1.4150413926396188,-0.03619007544934672,647.1376799273686,366.95518341917443,593.8564998778945,downstairs
2.353923205342237,0.6896228233803349,0.4707200583775463,9.089066626557418,0.5691535754290854,-0.3855134705426685,-0.41130190214724066,700.3284087083464,307.50841558626047,648.6689805670005,downstairs
2.4040066777963274,0.44798368900763086,0.3194115684268038,9.435822683584673,-0.19660274884191536,0.7061689129005195,-0.0358629474946128,575.2254015448635,300.94869646401855,587.7940115703938,downstairs
2.4540901502504173,0.40933647086769176,-0.09415631676234074,10.495962195497011,0.7666875383276638,-0.3204523009967065,0.7962370599211813,685.3762648360289,415.6133548043751,571.5849120071223,downstairs
2.5041736227045077,0.1617280157197289,-0.1779878986235048,10.651837260662656,0.35794266546421016,0.13054088426239444,0.4373425603248378,785.1877974253782,424.6581710438445,553.2386713110029,downstairs
2.5542570951585977,-0.3197197319764692,-0.7528856271160271,10.741532723300912,0.5794927124402185,-0.41156696029047535,0.09293571101319133,774.4848049488098,399.1519712114067,615.2299377551396,downstairs
2.604340567612688,-0.5416036497250666,-0.6458362606797463,10.877405170311397,-0.22846711491796487,1.0461050050881724,-0.27421471359411503,667.0812370907574,405.2385010556727,583.9402536911903,downstairs
2.654424040066778,-0.9309067236125285,-0.541704857695783,11.179662133583353,-0.607698078328044,0.13625849332328502,-0.5785471153665025,668.7432403012566,386.7320071512975,674.6305779485191,downstairs
2.704507512520868,-0.6385780069322904,-0.5822605442209252,10.72378015141208,-0.054275899972375835,0.48244100880359037,-0.5752976133832235,695.4604618981377,338.7179630272727,666.324927027107,downstairs
2.7545909849749584,-1.1369726335867167,-0.5892215077442344,9.761876728914714,0.24733024184896601,0.2748885348675424,-0.7118172778987936,753.5294086557965,372.70130954809713,533.5622068827752,downstairs
2.8046744574290483,-0.530290824569508,0.3147527789724594,9.483609458839643,0.005839508914114289,-0.029299305135053574,0.49675519111836436,615.6653998549587,403.83872701936843,560.9670404751132,downstairs
2.8547579298831387,0.027924999453223673,0.4305530584069745,8.9158633569784,-2.010104071417675,-0.06935240129420508,-0.18103522968754643,656.6984783916911,369.2110932434082,625.3185390917374,downstairs
2.9048414023372287,0.16244844683396759,0.4046491922263454,8.523089615635392,-0.024133272368845837,0.7730441223167631,-0.003680147709607474,650.9763332255815,407.7484193023663,600.6957124391811,downstairs
2.954924874791319,1.1173064278431482,0.7291042682162296,8.326461037255209,-0.7740562049512716,-0.6401119635126221,0.5341762037721697,644.4862424289622,492.19852031674066,672.4813882871205,downstairs
3.005008347245409,0.9286862067906183,0.3278773276703687,8.455857436484964,-0.3317236068605612,-0.8763092823662783,-0.3434849967574121,611.5185099626017,380.2686811595584,540.0563872760208,downstairs
3.0550918196994994,0.6776318975205873,0.36738335208257394,9.255002812124333,-0.010523801141692372,1.1804192262711608,-0.4513046674975347,696.6668048427248,388.77318333780136,682.2211232621324,downstairs
3.1051752921535893,0.983847592765602,0.33201489180033705,9.537842148273816,-0.022438712426962666,0.19939732346597452,-0.11856468372594105,698.9612362508243,344.4014994483725,530.7468991484202,downstairs
3.1552587646076797,0.42044149494557165,-0.0857246970116985,10.152384083808089,-0.2757806621216121,0.11320433194932691,0.32535680236966935,660.5337116626314,383.45070888843014,612.9643985551395,downstairs
3.2053422370617697,0.4903077542991981,-0.2715851328647494,10.865090831030582,-0.2665977925862293,0.02986669397872087,0.48747249202818416,603.8381992732554,425.1627689771323,575.799371829751,downstairs
3.2554257095158596,-0.1138200050386733,-0.5242096346420761,11.308546228652032,-0.17841755252238733,-0.07571232680982604,1.0860883636676912,677.3643355492613,426.3098013594465,642.9250118630007,downstairs
3.30550918196995,-0.3222241380980997,-0.5195608901397706,11.274498310934844,0.36352281510399864,-1.1373700410669327,-1.4889469273073341,677.4651519111727,425.8904830021384,506.1190753721771,downstairs
3.35559265442404,-0.7791411555087381,-0.5110168309727869,11.089208927552804,0.4453891492373621,-0.4885918997795361,-0.6303909273463019,680.7719771279701,398.4943914779621,644.5850450008065,downstairs
3.4056761268781304,-0.7222949712402689,-0.7593960393283854,10.823848327578018,-0.4161749550636242,-0.5473212065207673,-0.4412151566819522,704.7249210340213,418.8397485992446,678.972573007188,downstairs
3.4557595993322203,-0.7213534407634321,-0.7138319582423507,10.441505212106897,0.04356827599747182,0.3170214292215955,0.9103859199365946,691.3615616262513,384.280294627637,609.8763993448125,downstairs
3.5058430717863107,-0.4982742897192864,-0.550489539110484,10.112487051577885,0.10245860696005031,-0.13171405268625133,0.23280244214192897,722.2886366595585,356.97787531463956,559.4581461015475,downstairs
3.5559265442404007,0.09691194800129395,0.1595633734253576,9.249495024487901,-0.18804569927221146,-0.4659604126964982,-0.8484486936248322,715.0840828475293,398.37653811551445,694.1610970785774,downstairs
3.606010016694491,0.53999772457379,0.23166783173258138,8.744332754168985,0.15655110695069685,0.21484362016121394,0.2733649009021367,583.1115683094133,337.8978292142849,690.3896038579868,downstairs
3.656093489148581,0.578402557370722,0.5136397726031301,8.398047334153754,0.9419180664773009,-0.6355217213053683,-0.3373821202211403,572.5377672458701,408.46223944375845,613.7479409639003,downstairs
3.7061769616026714,0.9798435874569743,0.5631582881023294,8.709483378958117,0.34050369336079744,1.0824554777234383,0.2138865505242361,632.6077206251157,327.0874487200271,683.8330645305788,downstairs
3.7562604340567614,0.8727580286918685,0.14069048152419905,8.956290493857747,-0.7226354259978041,-0.34425177606849733,0.25892672089815433,677.5192061125867,400.0050589654631,603.3280453951237,downstairs
3.8063439065108513,0.7262788352500197,0.3811410656594638,9.516530656576577,-0.09403406175831083,-0.8963192149814566,0.22828928391652323,640.4971852496161,431.68380402377653,605.8312133546452,downstairs
3.8564273789649417,0.18756327614523982,0.13820555629432196,10.028766130427577,0.325197004073388,-0.4322444127829233,0.07745920369396314,745.3546870318906,448.06992385346996,615.9045735766558,downstairs
3.9065108514190316,-0.0010078110748736463,-0.12405687277620876,10.555828104465103,-1.6504441246599817,0.01589777318919382,1.214400218442744,651.8598294401028,406.0302056471673,614.8984811124583,downstairs
3.956594323873122,0.03350351519746965,-0.4054174037929997,10.89989040506096,-0.29201530784045043,0.7190016837650474,0.7702294855946304,711.6848975091966,360.1976968642374,623.7243981276039,downstairs
4.006677796327212,-0.08138817516543302,-0.3582104805422198,11.266468949377998,-0.3012136945065728,-1.8326998379487043,1.2371505880336688,727.290628410628,394.9717717472808,549.182534579867,downstairs
4.056761268781302,-0.34674122326162277,-0.3286835086289418,11.387972060355754,-0.37989278309217717,-0.5390974960090449,1.6288953368821342,689.4856341753517,391.20322505149767,574.3036160613867,downstairs
4.106844741235393,-0.6726296327867303,-0.28602637975403467,11.24258783935639,-0.10695232277578832,0.3945568863904473,1.0556841265736927,650.3624161612846,404.77377296930376,572.9117050470204,downstairs
4.156928213689483,-0.6476135494575752,-0.5427003792950853,10.653009300925824,-0.5528601711420624,-0.46275581616336126,-1.0831643273260667,706.9053494046938,380.1811160315454,683.2823087346162,downstairs
4.207011686143573,-0.30162487478135486,-0.14709479055552951,9.94722274442249,1.290681043074988,0.40889925933475074,0.4507024237363297,628.4723452004473,364.0683992029624,643.922050381705,downstairs
4.257095158597663,-0.07183349017484593,0.08016530453310217,8.922652341530984,0.539702900318954,-0.4195435232064346,1.7857681697713168,734.533252708694,408.27318273786375,660.9418401796731,downstairs
4.307178631051753,0.25341060259690346,0.25659642922116377,9.258135357106461,-0.1662578245786877,0.1706042591764218,-0.8222532459996649,652.3633319222221,355.2025436484883,648.0210857890914,downstairs
4.357262103505843,0.7466043165043227,0.22278007618206347,8.602251584875471,0.18216020420497261,-0.23632611730864478,0.6853313523354291,782.6907752463973,448.94054616786536,726.9476117096267,downstairs
4.407345575959933,1.0107143474095568,0.4630823776868936,8.216281135759433,0.06426966395024872,-0.04398506769661885,1.7035751964409205,682.4420811015766,363.16844674924556,544.1674252587964,downstairs
4.457429048414023,1.13822101749742,0.5551268171401038,8.566957923409532,-0.09007595793614855,0.7783130157527586,-0.18216430465215938,613.5006407577746,419.6239402569432,666.0079389089735,downstairs
4.507512520868113,0.7720579717347222,0.3089540019948023,9.193610907491976,0.5642147869798977,0.6549077973396571,-0.18686161777952795,636.8901422085943,358.6682563675466,633.4463566818487,downstairs
4.557595993322204,0.13700918637123666,0.290349095968833,9.936438748940885,0.14923829232804792,-0.8891474581933766,0.22912232586926295,703.9406902074342,352.2354890705482,575.7761478546508,downstairs
4.607679465776294,0.2644399039246191,-0.36352146451553174,10.325885000193148,0.3405568810810142,-0.9139176289184228,-0.5756616774694924,749.0824539594898,442.00128358361826,606.3142901863221,downstairs
4.657762938230384,-0.006982843623850404,-0.20657242323351976,10.573065356090789,-0.4752710894855255,-0.7758423976480296,-0.020247004880434245,668.542339975756,447.7713034953849,530.0424142943772,downstairs
4.707846410684474,-0.6846171799350836,-0.6726736388810977,11.268602563614289,-0.5546923671306917,0.5615067196804383,-0.34275693326306883,713.8848438396002,386.56344698587054,544.2920631012778,downstairs
4.757929883138565,-0.6439371948649077,-0.5868275368867122,11.297458994076859,0.3748255427720269,0.2535504573088122,0.649561878996501,670.8777663244992,384.5703351260217,703.4653439967009,downstairs
4.808013355592655,-1.0201634025934045,-0.31236239385553116,10.82203124683805,-0.09766296392050267,-0.9445595517954712,-0.9361503463161075,671.1574895296694,393.15411232992705,559.4439904456835,downstairs
4.858096828046745,-1.0143555235144008,-0.17352709313904574,10.862282660556943,-0.07249398771886617,0.5130282040720552,0.15863714388091055,677.5197155481817,406.5904115825113,558.5070948546442,downstairs
4.908180300500835,-0.7886502195516344,-0.4226039207924592,9.99035442817711,0.9828138054546445,-0.5228086536363817,0.49237242063117503,618.5988910559036,428.30219359445874,701.7942434294873,downstairs
4.958263772954925,0.06626367856092912,-0.30546905220586795,9.416728313939144,-0.3802333240128223,-0.0894803877609793,0.16973671938883153,613.234256347194,355.12088816290003,655.0673161119398,downstairs
5.008347245409015,0.06128609637677415,0.08691275323658873,8.642049879149507,0.41588431656284114,1.077874651907428,1.7769801273922416,689.6001924588576,365.48063773637114,642.8376176471731,downstairs
5.058430717863105,0.6257095035980093,0.6813041546041108,8.550853672300345,0.3068345724042548,-0.3844999505739228,1.132567830478193,646.2871419818101,373.66037697607726,600.7004494213372,downstairs
5.108514190317195,0.6740038837197759,0.8193275527378248,8.621006607389742,-0.24150923011196088,0.44451436265762734,-0.6301193567713036,725.9075779210958,356.6359843399005,521.0832689104286,downstairs
5.158597662771285,1.0656166868975363,0.3860123177373356,8.58844893111964,-0.05406259149725158,-0.4610954006428824,0.9530205654940136,701.1412431775636,375.5081420788975,617.6105205041297,downstairs
5.208681135225376,0.946113314573039,0.4302091991886482,8.979766218595767,-0.05518374232622705,-0.055988049825206984,1.3976365705079472,642.2897580641643,372.3084443501304,655.631080505821,downstairs
5.258764607679466,0.9029374675366645,0.14754091168416694,9.60302911385968,-0.45220279060182705,0.47796230443651605,-0.599361733556763,592.9830377058915,401.338350490914,610.12555070339,downstairs
5.308848080133556,1.0435334897602018,-0.19626202721809802,10.363276576284107,1.2750584819548916,0.606489722510552,0.6297430661483556,625.9367543110618,374.65595700727243,647.0079154270385,downstairs
5.358931552587646,-0.08663339695195581,-0.0357365988817861,11.051218921097963,0.488912064455517,-1.4101600277528936,0.21652861028220435,712.673770211145,413.0212978004189,616.6750194298045,downstairs
5.409015025041736,-0.4155278692122338,-0.5891398905307146,10.98263414936548,0.560171713240335,0.4100152091436312,0.5492661939698598,715.91947220096,369.66401900700004,626.6285351207,downstairs
5.459098497495827,-0.5536854160793471,-0.3714305131580813,11.276112431506627,-0.07579867988999249,0.25375885927784403,0.3893942342984632,702.3136041593018,458.4013835395232,593.8849189616826,downstairs
5.509181969949917,-0.885731744136704,-1.0775238227142239,11.128398805348784,-0.37067359573889663,-0.14750193157664226,-0.299334529048134,693.8962247528108,425.5140047159426,615.97039253414,downstairs
5.559265442404007,-0.8813261190595847,-0.46236710631802186,10.832699456765488,-0.09173350051129832,0.08725848380381786,-1.2759910255637303,547.3797602260754,441.71493304950684,678.2346325175316,downstairs
5.609348914858097,-0.7486537184963458,-0.24224202046700183,10.130377510679544,0.190820868864609,-0.45342368573384517,0.24224798457407684,645.4785493740266,340.6882634001036,541.6556719461129,downstairs
5.6594323873121875,0.11462924415952207,-0.07212791615248877,9.522303223468688,-1.3934063870235014,-0.16952490058558473,-0.37094361660342384,626.9559129427896,446.4665230864425,614.5773357018905,downstairs
5.709515859766277,-0.00937605299868613,0.2024110969208227,8.919967694994389,-0.24098664679721182,0.3740204535704907,-0.7227135577227185,723.9378810770783,363.7132165752354,612.7031652501122,downstairs
5.759599332220367,0.4885065916186857,0.9541910305727443,8.633651482376386,0.08208511390303101,0.03168699353750974,-0.4370222533118727,693.7943370410887,363.8388370249969,709.4668620224855,downstairs
5.809682804674457,0.4413312141818827,0.7397958123075721,8.523147584247422,-0.053020591906142334,0.304846420441477,0.021222029874973673,749.9224180270182,409.1936004565358,635.5063136363767,downstairs
5.859766277128548,0.6883264431153228,0.9271252013172999,9.026640629962346,0.3565391663971138,0.9698358823852413,0.27660631759122184,691.2226420215034,380.037122985302,605.9869901038046,downstairs
5.909849749582638,0.7137978844296772,0.3748817283725908,8.959490860154078,0.09473668700699311,0.33066049992493934,0.45546925994564047,756.8159798606065,347.1629246177024,613.9348050684248,downstairs
5.959933222036728,0.921253792522484,0.5262759163389716,9.690388749943207,-0.7226700079608437,1.21590074123413,-0.2635476972951847,675.469979346802,376.4425342618577,632.9236175287728,downstairs
6.010016694490818,0.6122861830432251,-0.18661103597902515,9.995410356446506,-0.5632369556840472,-1.1041578429991705,0.13520974171329117,662.5145451847603,338.24265291264544,604.6614617601042,downstairs
6.060100166944908,-0.3499492720208677,-0.5050780747963077,10.750607775185124,-0.1302702625975186,-0.5473492383971954,-0.3571306340972156,713.9278686860007,313.1301373843597,572.0541042652322,downstairs
6.110183639398999,-0.35821568970527173,-0.6537404061405123,11.31356735216118,0.43957298664138444,-0.8224178266062063,-0.5761913803712476,625.4259870013486,369.60460911364845,605.209539536966,downstairs
6.160267111853089,-0.40827924905079493,-0.42773910145839555,11.280098256745058,-0.09754883765711983,0.39345716725870483,-0.9500413714977748,673.9309711152293,330.0018618145666,628.5067126260178,downstairs
6.210350584307179,-1.245683353139475,-0.8430260704752257,11.02901863872807,-1.4743362660229007,0.3590057047803833,0.311086996175715,657.2804495453972,389.2988489583814,600.1406985960652,downstairs
6.260434056761269,-0.7866226095015219,-0.4180131679128876,10.789118837748855,-0.7061429953507264,0.09233369102652271,0.5357272987185581,678.0848282815596,485.0150448406324,669.1645258094368,downstairs
6.3105175292153595,-0.608207701300138,-0.5243224400611592,10.152415597403069,-0.6621297190390325,-0.8495634091974801,0.524346897506826,770.1747791667154,385.57686984369565,594.1241362579714,downstairs
6.360601001669449,-0.5873378938662639,-0.08818554876898464,9.647167595096615,1.2697269908537596,0.8740373036764606,-0.17808929940811546,688.4122419275276,412.3684070359741,632.7959821333312,downstairs
6.410684474123539,-0.38086305642907253,0.183354298701131,9.55857502689422,-0.10587890923958382,-0.3009881334647399,0.07865484706918076,704.4526543477875,372.3550833471139,609.6540412747903,downstairs
6.460767946577629,0.21840257574594657,0.215799668056731,8.583972967703799,1.4772764739023927,0.20194832087438772,-0.28493867573651555,668.3210008545902,442.00979061895134,557.1741119082421,downstairs
6.510851419031719,0.7818399448952323,0.5018223093790593,8.380857686556554,0.27821845717958177,0.382047755369091,-0.9422142857001091,692.2372619281152,384.79204750869565,612.1789598860878,downstairs
6.56093489148581,0.8036579922139621,0.35237081492042605,8.524095302817068,-0.013854741340885606,0.42311050732856453,0.9752913389816604,628.8715119936389,392.92296364924135,568.1600782463642,downstairs
6.6110183639399,0.7373167705969473,0.3235204414620768,9.110970212446135,-0.7636018342413596,0.15460416681913436,-0.32395922268230287,632.5979322118259,339.62268127398477,635.7805961493236,downstairs
6.66110183639399,1.2630676708071609,0.2784912376289629,9.163518275745345,-0.037290547783127036,0.01481534910439348,-0.2139853414808736,693.0362462927079,412.9695038486263,591.5087747080092,downstairs
6.71118530884808,0.5208364382018064,-0.10108138338118566,9.823058248720358,-0.13002219902915324,0.5683457871852563,-0.0003419774661555024,714.6737677337811,327.88832638961753,620.6060108323364,downstairs
6.761268781302171,0.29737983928269873,-0.11236588778515762,10.43049424794264,0.6019152192383713,0.2623527726888299,0.7370028406906459,633.9745393907832,415.787267284091,639.7908917638458,downstairs
6.811352253756261,-0.09969620951556295,-0.3214998825012185,10.99812657702449,0.5836524532497809,1.0187022261752565,-1.0298728591374644,645.618079926449,357.8071819139085,648.1938912211401,downstairs
6.861435726210351,-0.8023631200133826,-0.9621415831299425,11.253275123965677,1.1524099120833702,-0.0908492388207223,-0.5400613508911791,683.9239765063151,379.17591270524616,567.0592156065345,downstairs
6.911519198664441,-0.5868270902131584,-0.5465619659483592,11.233573862052081,0.17377135160418475,-0.5565565819372008,-0.12958842548982896,648.1733879538115,372.34906146175643,647.9055641885058,downstairs
6.961602671118531,-0.7535497906456744,-0.6832568427628791,11.167150427627917,-0.7207747586570991,-0.23002355380266107,0.23866088646724612,653.3659203024721,420.26408880894706,711.6058703657471,downstairs
7.011686143572621,-1.1695870364355372,-0.5927367924636515,10.673938705762637,-0.06411331943832206,-0.0675569207919354,0.3263441255981153,684.9590579911682,460.75072842208124,586.6787183788596,downstairs
7.061769616026711,-0.2602094767891447,0.08758780363826457,9.720511779444502,0.14303360896217285,-0.5213880347084447,0.3558935517452709,672.013562907531,380.8846770314264,589.8050505934496,downstairs
7.111853088480801,0.14245338330425455,0.07909387837103957,9.270280054480866,0.367996025979714,-0.01621701458085952,-0.009433979370218962,730.5766183766428,415.40469889538997,649.1063228239217,downstairs
7.161936560934891,0.3749677328165381,0.4972340656614433,8.71640266580787,0.48865887915672707,0.5103954558098375,-0.3273683739103429,631.023965204579,325.6438540571127,682.668284119223,downstairs
7.212020033388982,0.5300020614767371,0.20363806251069,8.857616193885304,-0.1897716814479376,0.9356138144130276,0.615223991189215,639.4189043744609,436.447173239889,609.567069841472,downstairs
7.262103505843072,0.7151051878657511,0.3058983206894061,8.657354706517797,-0.5737340351196669,-0.4139529666814548,-1.4012932216961143,725.2696447102259,402.11494904798667,630.1210605966345,downstairs
7.312186978297162,0.9902728194454373,0.6178780237540769,9.002951738797975,1.2727284924017288,0.2500951552446499,-0.7312737846327351,666.6131381264893,360.68152746014,579.6113541453749,downstairs
7.362270450751252,0.9072776469445866,0.24501502367029276,9.327399887766143,-0.35166391268857644,0.33198343099713545,0.7879317481478361,642.6646519801412,416.89371978277,610.3784149878148,downstairs
7.412353923205343,0.8997750706580775,0.059836471898967236,9.971289353475822,0.8755000909378321,-0.05450761114170352,-0.05333750110194624,614.3648121622628,400.1528175344782,645.8129827981983,downstairs
7.462437395659433,0.2800799862870936,-0.028565282905020514,10.378959630358736,-0.36944392629288736,-1.9381988809315958,0.034671110052224105,745.9015482482877,400.0095084926586,632.5145854988579,downstairs
7.512520868113523,0.17239453885865952,-0.406002021634124,10.670829475714564,0.26549978118961304,-0.2513415243482511,-0.07408563443680813,696.0154915171347,353.0632609969025,584.3418465372868,downstairs
7.562604340567613,-0.6243565018308534,-0.5785575803680079,11.254489177278028,0.8002836317261448,0.2553062590452077,0.13432239711976574,779.4673513411152,368.766785388444,641.8149645332352,downstairs
7.612687813021703,-0.7657040436118402,-0.5924880437408133,11.127486805501498,0.051358081213632646,-0.31726851384230975,-0.05702218677217271,751.7701395777152,394.7678553365947,599.5191358415475,downstairs
7.6627712854757934,-0.5773141501574401,-0.6952261832394564,11.739015604719514,0.5317333154154363,-0.2124809293185135,0.7122441571658393,691.3635788667822,394.0719717013895,635.7581476613906,downstairs
7.712854757929883,-0.8124052736711043,-0.33696268532657825,10.760148069769391,1.3452216100288257,0.8032533941624282,0.9795946663884929,731.5088223949344,398.06024187261113,581.7671826482906,downstairs
7.762938230383973,-0.4981433538958581,-0.5000411418641071,10.231549302024566,0.5790632879410734,0.09232654215137961,0.8425151121165273,696.7356274926287,375.5001471881884,578.505288343566,downstairs
7.813021702838063,-0.29637352691081603,-0.13573496265395985,9.556164913367596,0.6783978666533094,1.5698905355155184,-0.7551989109255095,684.293868996194,399.28254714745873,588.173728229026,downstairs
7.863105175292154,0.20732344762343297,0.06752162754751959,8.985628792882467,-0.6365901145332719,0.30041759347918234,0.5548172512965615,695.4746010103252,283.89777238304663,639.3929588542328,downstairs
7.913188647746244,0.6937530447890528,0.487248570157457,8.664914192998676,0.05080498046910857,0.5087434592103032,0.47876701536063104,709.086915266362,353.84821346393966,647.0525499105854,downstairs
7.963272120200334,0.8556394563449301,0.45270857934074366,8.576415899864179,0.8352551681619378,-0.3863450509799395,-0.443174218218716,739.1325402068308,436.4959924646645,584.7057447186479,downstairs
8.013355592654424,1.0242630731859057,0.3193545778009737,8.876175538463196,-0.7373905679548086,0.12662376471895948,-0.2179052205367774,643.1723566482641,385.1096996169673,589.349885357067,downstairs
8.063439065108515,1.0043915287801655,0.40932513034887047,9.01987989106061,-0.4260639142454135,-0.7274245209060846,-1.0176034662286224,735.9138754470924,370.6472405541056,614.1754310464942,downstairs
8.113522537562604,0.8885923672896275,0.4909939659443335,9.467403650558415,-1.2211202780360177,1.2427287402126193,0.7098110015295346,686.1966884745855,356.32964755276583,601.3873072758224,downstairs
8.163606010016695,0.25816818326359303,0.47887397866748943,10.420471826275895,-0.5170927521223357,-1.7521060307459146,1.2176691353714484,635.3219588939135,385.79052600429344,579.9361651261688,downstairs
8.213689482470786,0.1902822579328659,-0.4218513846138126,10.820321839852213,-0.23083001623733476,-0.13208498220217113,-1.1477058399564013,756.6142927834168,290.45936554474815,623.8128386665599,downstairs
8.263772954924875,-0.33447685388635,-0.4357550256380224,11.098507450000218,0.500903680634232,1.420923336264968,0.533706752424651,649.8264745265899,385.97027204506605,595.2997311727723,downstairs
8.313856427378965,-0.5663139290733767,-0.55431989071022,11.41098464858086,-0.5627581205342139,-0.3276904314462615,1.1877340445321356,691.6583245432371,368.38693413810347,655.3202052673856,downstairs
8.363939899833055,-0.8211595299090778,-0.6499566614270411,11.574327558821086,-0.3494141959255435,1.2688480583307762,0.8452001058077153,669.5011748533594,359.90895741287113,557.1819789552726,downstairs
8.414023372287145,-0.7324328147866218,-1.0164274099939536,10.62547631492964,-1.161185491474768,-0.6892927027929316,-0.15839365260077995,667.4257670877865,370.05680810168514,709.6924824319585,downstairs
8.464106844741236,-0.5373795188912845,-0.3165902266646452,10.196642375910505,-0.31448402042605395,1.181543049234723,-0.37753218975921443,708.1829301052628,371.5537242970786,593.370503484259,downstairs
8.514190317195325,-0.34619170661334553,-0.08546380673497256,9.410980065299857,-0.008757123867902622,-1.0372480203529726,-0.3511002391194227,781.5871069883484,409.8356393444836,610.9501612686203,downstairs
8.564273789649416,0.20949920637976233,0.16602341389156414,8.936597835164054,-0.72272406770449,-0.3601282138756401,0.9588660049307616,667.1347553721677,289.46678141354585,682.7437142520023,downstairs
8.614357262103505,0.5277975233157235,-0.04606749480132444,8.985447231075357,0.9479784586933705,0.20295797459215498,0.3208133864533533,669.6843321489268,365.7236273955892,583.863943412161,downstairs
8.664440734557596,0.7181349712701376,0.24619551218275815,8.255652944038493,-0.6034355956576676,0.2710138905338894,-0.8901255041299829,666.6300425245039,313.0231295349777,627.3082657335688,downstairs
8.714524207011687,1.0469531095194748,0.6128758919846695,8.534720538991463,1.4042265849694868,-0.26844409451535356,-0.011498675856142199,654.8655294804948,375.4656768685649,607.4421771722,downstairs
8.764607679465776,0.9297782489331257,0.6863581969128469,9.166263827404274,-0.3258990339178583,1.2485480426242663,0.11306257179961321,644.7931407521983,417.19018469377426,566.5072840796809,downstairs
8.814691151919867,1.0535810043255336,0.6003255583595954,9.56856862582197,0.8902607939569727,-0.0174464477935941,0.5471155249940655,610.3369672838659,343.262251445407,621.8751379915718,downstairs
8.864774624373958,0.5303640646094463,0.20172281603519354,9.859632528246271,-0.6002683020865905,-0.23106114227613284,1.222534301897477,651.8577388423543,381.82363926651425,597.1558364304352,downstairs
8.914858096828047,0.35059457092615065,-0.034255409364090994,10.483167487385117,-0.33844128958506087,-0.6565887086022681,-1.311936763454147,639.8859973690031,358.3695696014742,625.6495909181926,downstairs
8.964941569282137,0.09903055671963494,-0.48445584809901254,10.705487668806194,0.5171680890260145,-0.42525900714171183,0.24218038801919045,711.3826489227597,440.81666790904353,533.7131968924944,downstairs
9.015025041736227,-0.6407454685609296,-0.36928848046028023,10.835574518049631,-1.585173022878037,0.11831752021130061,1.1438698121422917,639.6749071585552,391.45844216142183,657.3955746402899,downstairs
9.065108514190317,-1.0464930003979633,-0.37958890643204024,11.273491195685057,-0.07080252082804273,-0.7504378772451102,-1.6756510211263627,707.4689938838759,389.3581574534657,625.6911425884036,downstairs
9.115191986644408,-0.8578194791696196,-0.277898577066656,10.871448345226451,0.3289186430989474,-0.28877471408351285,-0.5786458256289789,649.862586763305,396.6188163224917,553.3212451540921,downstairs
9.165275459098497,-0.4563554853490635,-0.424223250694135,10.50213063455402,-0.40768220234878944,-0.6601545744557799,0.5584993344152499,728.3340373093042,445.9178221304172,647.6665665970744,downstairs
9.215358931552588,-0.6147844921037022,-0.31330038549960976,9.675445604111923,-0.3302511696069499,1.204454301871028,0.2598767987194772,754.3813342647511,320.26330004472624,594.2021515257305,downstairs
9.265442404006677,-0.28112114591407344,0.11445917141630788,8.99864271474842,0.6677318066265536,-0.30672176353806974,-0.5502857377583598,655.9704537299862,350.2304893627635,632.3737835231724,downstairs
9.315525876460768,0.2719555898023044,0.18661433439144798,8.999831665386875,0.2867330441302091,-0.7381354572075128,-0.20896050720856618,634.866121109807,329.421417483291,541.070063048003,downstairs
9.365609348914859,0.6494425912806274,0.46567281917128384,8.647547239513138,0.2812723827580594,-0.21426137175846843,0.5787810677400821,598.7782783383018,405.75500068218423,594.4844190012075,downstairs
9.415692821368948,0.7865886429027505,0.7456895289562375,8.68290714481985,1.7448040739565056,1.1961589201512532,0.6574811043949566,703.7290654656953,341.71768176722634,649.4792383508222,downstairs
9.465776293823039,0.8885856546391412,0.26172553119403447,8.760184807852047,0.6632178312027198,0.38768813634604693,0.8625438112318655,772.5335962222406,433.1559226044411,564.0024460282386,downstairs
9.51585976627713,0.9910067062707999,0.38716853688602093,9.198976524495558,-0.15292517716237292,-0.21354628506986398,-0.016635987172058223,684.0518763762126,345.3894044443944,646.533333672838,downstairs
9.565943238731219,0.836145237086228,0.2073916184114361,9.98922884305987,-0.32456488557850216,-0.4041877595828625,-0.056677832552121526,673.7119023243807,277.58754899141917,609.2416573308979,downstairs
9.61602671118531,0.5433867488025172,0.141580535906618,10.840605962050281,0.22053566381762962,-1.6306957697971767,-0.9773654445129905,679.7259360358659,366.35972400304263,617.7947439171721,downstairs
9.666110183639399,0.2898967154017228,-0.5302045726316531,11.13422707775624,0.8368074305103106,-0.5742539347439307,0.4660846485282988,698.982851379327,366.87320234322345,551.3604869092062,downstairs
9.71619365609349,-0.7748134114445053,-0.6245932058665375,10.990161914679604,0.2901525027231012,0.35805600848929386,-0.414132438715428,695.1017248188552,390.76989439717585,641.6111293761735,downstairs
9.76627712854758,-0.3020028015789184,-0.3608884069977226,11.085151141818544,1.4551359659370642,-0.44853156325475924,-0.353763444346722,739.7483005299725,389.5999331410891,595.0125901201598,downstairs
9.81636060100167,-0.7385542879546008,-0.6373337261365073,11.086328546531226,0.022029185343295267,-0.4141972192775562,-0.10096347609966994,648.4260299736055,414.48099110615277,579.9240108005235,downstairs
9.86644407345576,-0.6120453988736604,-0.7934964138101572,10.766592190749336,0.21134439549195494,0.42892631229058015,-1.1181223815389831,698.2430149812918,372.52923910096985,616.8168732878596,downstairs
9.91652754590985,-0.5405706947637231,-0.040210803522428756,10.27927792263616,0.2508543298788618,0.963102419959411,-0.5919298940453525,717.0220578522166,368.235822530933,630.2920957783931,downstairs
9.96661101836394,-0.3387393340364206,-0.05747611734983344,9.442274020713084,0.0437278248684869,0.6612939833239931,0.23026964409781342,671.2225772849932,388.59866028265293,586.4417208881257,downstairs
10.01669449081803,0.4462136195702804,0.2939421460594381,9.011647893889236,0.15499662345851511,-0.7055968617508002,0.8720803563953138,695.6601696158941,346.60899562686905,684.648440891341,downstairs
10.06677796327212,0.4673619546951994,0.45178181634237086,8.658827172629337,-0.7925936150858213,-1.38670447044237,-0.1962188791575585,732.6363238600271,346.33471924080146,605.5950373120334,downstairs
10.11686143572621,0.9295882926432804,0.5069262282813074,8.705637170924726,-1.1422461154496582,0.4677879037288954,-0.8778740380461229,750.5912141879943,409.23225799088044,640.3130204804609,downstairs
10.1669449081803,0.6009431921391241,0.31006063099189735,9.330221001639874,-0.21387545752713563,0.07065033792962722,-0.9156388294773938,695.3847290148241,363.42893878338685,633.3114069580387,downstairs
10.21702838063439,1.2319373809937282,0.4494916106452604,9.379137551306712,-0.5655598349619727,-0.441714178663543,-0.629071754581273,669.6247627057165,397.40329446161905,657.3219580359175,downstairs
10.267111853088482,0.6639022094580548,0.16074406498275573,9.940979041242668,0.2254581650167843,0.6902111962501871,-0.7685478540553755,694.4589029901327,322.4670789218103,645.2209359886084,downstairs
10.31719532554257,0.44128306017515667,-0.5942024263611498,10.165637988163082,0.4520784548530564,0.21558457057432082,-1.0394091404801549,735.1921920928696,385.0638999519987,638.8429443553154,downstairs
10.367278797996661,-0.01573637303109067,-0.14627302884275434,10.879576130751017,-0.7808835700881309,-0.012430163094158191,1.2081778992168517,663.0307625390494,407.0958329240723,609.1205326949397,downstairs
10.417362270450752,-0.12596514033389933,-0.30470759131387604,11.392609702151985,0.4075224295433768,-0.4221748656064655,-0.06376480703284026,683.7093580853915,403.7248728491281,619.1924209349185,downstairs
10.467445742904841,-0.6748271545818433,-0.8686920058669296,11.396506327381799,0.5454462474277849,0.4761039350720401,0.42390981482783,725.5298372225845,379.26682715587873,644.4933535100386,downstairs
10.517529215358932,-0.43275804108370025,-0.49406531231739353,11.009011810042606,-0.3748558081875427,-0.08478797900927228,-0.2768890286840934,698.7968014620645,405.83335192415166,660.0991687475226,downstairs
10.567612687813021,-0.786635888892687,-0.5020236358587497,10.701434803067743,0.2079716070473345,-0.07367990314698272,0.4084980909163546,729.5174082457828,355.58224638259446,646.4330892260592,downstairs
10.617696160267112,-0.5831385325064979,-0.44866796454360197,10.306258912735965,0.07985978849515452,0.2266572931538826,0.6504169295012416,682.8279934841943,395.0895176309549,567.3778736242034,downstairs
10.667779632721203,-0.24140157137005253,-0.014247978480911583,9.580822461486608,0.9680168681203799,0.09691870008148731,0.5023429517837955,732.0483336411986,361.08004820980716,624.4232040307975,downstairs
10.717863105175292,0.32749667701379753,0.2774008240919354,8.85539874535546,-0.8891839131263445,-0.21526143857500976,0.08260301162474007,679.316694096504,421.1016948981972,597.603666517772,downstairs
10.767946577629383,0.028591987815297024,0.5038540102095632,8.341571198633886,0.1715743632394492,-0.08168889100604665,0.4643344960569491,677.9317188256391,399.13079436554415,558.8030369050919,downstairs
10.818030050083472,0.7657869670278205,0.6535105549566342,8.466826729123229,-0.33109426144071025,-0.6034138033996685,-0.595018745474854,669.9685521586206,384.19265725664667,563.2827663400194,downstairs
10.868113522537563,1.067037243577382,-0.032729249685444384,8.76035359895379,-0.825982287148849,0.19875840215351792,-0.11466580941571432,736.5428408235779,367.3251954086232,648.5981655994497,downstairs
10.918196994991654,1.0910089100730476,0.3936139659159543,9.077413908451057,-0.5901471673665735,-0.2667716787034253,-1.5387399281791723,668.7505964047208,378.41906036079985,581.1472033643631,downstairs
10.968280467445743,0.703495117888194,0.3490966855141308,9.55212862506167,0.36860638032271753,0.5489003440600301,0.04398188224750109,627.1645267039719,398.1729311469815,620.9000902090893,downstairs
11.018363939899833,0.8677522123702152,0.20948265049542653,10.196281985527406,-0.05034542013490943,0.3941583986491305,-0.430333133072903,678.646842002602,363.26860475785566,559.9234397358966,downstairs
11.068447412353924,-0.030735471875730155,-0.449358459243933,10.970883832536169,0.447688828472002,-1.118860091202029,-0.07371368274922936,784.5720112118022,339.5180263597118,669.6096849827086,downstairs
11.118530884808013,-0.36786960546778324,-0.721738393572483,11.41532149766568,0.7036491738051934,0.35850951423655963,0.1924406886433813,680.9264601271351,378.63785080628577,690.1404409662975,downstairs
11.168614357262104,-0.4761674995197495,-0.5806050422471196,11.448657340174407,0.12649363226841345,-0.20276018716926136,0.4692290005974914,651.4531229423343,356.924041895908,672.2508646452264,downstairs
11.218697829716193,-1.1889348251061365,-0.3512001786870034,10.611400209158695,-1.4771096932445813,-0.40282173393384135,-0.28012883791502763,658.405325904414,338.91884238731774,665.5678216257775,downstairs
11.268781302170284,-0.9698414355228732,-0.37489501053955127,10.641234029900366,0.892793627770477,-0.14804173362672793,0.9848641653645884,693.3290410230696,371.55822894146417,586.231279005856,downstairs
11.318864774624375,-0.46018798059495075,-0.10242178830049636,10.051414816209432,-0.24275861870160986,0.4041036255701407,0.47951090061299806,636.0440312723257,414.5069484939318,637.608769971252,downstairs
11.368948247078464,-0.4913225861726171,-0.16268575765712562,9.72706701549957,-0.5182408078539585,0.38948034703733203,-0.339075850062668,649.9920200292977,376.4374192393547,566.0667267400852,downstairs
11.419031719532555,-0.1445767545126252,0.07671912312031676,9.161071076372519,-0.3747802540174798,0.7729987693384373,0.40797886053898286,665.0929934406919,335.20095469455157,609.4058867414777,downstairs
11.469115191986644,0.36009921539021933,0.32155422496263836,9.247079707464167,0.34108954624108756,-1.1153499554031032,0.6589707341515864,638.5781705312381,387.8527023807234,598.1617974828996,downstairs
11.519198664440735,0.6468661246033387,0.8313099186560695,8.535608565473401,1.2090013929822603,-0.19325696197621092,-0.669314655399826,654.7015363403493,420.9225698903071,620.2481624892796,downstairs
11.569282136894826,0.9130478542866871,0.620424685995191,8.672866904562376,-0.5205081167646912,-0.488922476289881,0.5838333189375238,643.5637575842143,412.99072640254263,597.2977883948098,downstairs
11.619365609348915,0.8763819083809474,0.5610080578840213,9.402258898140664,-0.18795651809490357,0.23188567716979244,1.1384356665493423,747.2028455310725,406.32497272791784,578.9031661929205,downstairs
11.669449081803005,1.0686087062034193,0.2615836555510435,9.45889115855467,0.02593615009089941,-0.37488481256259143,-0.282932228806682,687.3622381758225,381.9383356811266,664.7861774508062,downstairs
11.719532554257096,0.8014089435469725,0.06839260858949836,9.982385028977644,0.40659698793776233,0.24893458697919463,0.3854775447718901,608.7712776486942,407.6619526058019,546.835508128747,downstairs
11.769616026711185,0.1580370051543981,-0.2464490647661429,10.825894399943465,0.8070271163140544,-0.6082033378174118,-1.064353000688623,648.4151721520384,426.59331954589305,589.9483196656511,downstairs
11.819699499165276,-0.21328717634929095,-0.3483371847726287,11.255999684453075,1.0517129468385014,-0.363084920184029,0.1333833568515814,682.9093123216948,419.5914139915965,634.8689060779952,downstairs
11.869782971619365,-0.8454656783559974,-0.7466634579052172,11.376156453422004,-0.6166345580835229,0.34507310731804897,0.3500318803173666,649.6735152332648,353.9315876256313,606.7763453158594,downstairs
11.919866444073456,-0.682000505232865,-0.7527086519014403,11.022339910757415,0.7554006851052574,0.1725553174748332,0.4635736582939672,680.9158192037295,358.6899446176579,620.466714968926,downstairs
11.969949916527547,-0.9221684372218254,-0.8126024793200692,10.674616097369782,-0.8090990721121447,0.48880438276804117,0.8241587638970561,647.3879689745521,423.3857342934935,622.5106042233592,downstairs
12.020033388981636,-0.6767324614502136,-0.5236861260489318,10.22253602178229,-0.41710792177197936,-0.5347081510539783,0.7414041527323126,668.0826127334086,356.7802755850695,659.0098026561543,downstairs
12.070116861435727,-0.6985605057715252,-0.5062841952730528,9.651463033800868,-0.10330623359589108,0.3302971971138004,0.04306363917218047,664.4986455200303,416.18693249987655,627.7405529596956,downstairs
12.120200333889816,0.22574842675860063,0.35439272588851584,9.241631999139518,0.07477494893121583,0.4233685257540745,-0.18146683779790268,693.0092605460304,311.83399765978004,658.0431488910515,downstairs
12.170283806343907,0.2902515931764624,-0.08378239283172029,8.880476145414232,-0.7464118650302167,1.1573191489013006,-0.06690113855426617,603.4906637748427,442.1893205070779,617.8974817068193,downstairs
12.220367278797998,0.7224372781801761,0.5443788853778107,7.964296933373994,-0.018516772135760074,-0.17710940445980447,-0.1830432691672257,617.5243051070963,378.10522767503863,601.0570801723184,downstairs
12.270450751252087,1.0387475368706585,1.1412798469297798,8.796030972606536,-0.5531985204161721,0.21493081895747,-0.6865491808169889,647.7349318352556,433.5116365761911,532.0943951796039,downstairs
12.320534223706177,0.895252094107734,0.389197294179046,8.5993076779373,0.8882629617987053,0.40478044513281713,0.5849988477372531,674.2454140285681,450.3376442912722,654.9956326099104,downstairs
12.370617696160267,0.4761848864107308,0.501983397729405,8.881441302863458,-0.095479782520339,-0.13315862159931402,0.8660648442091687,553.6821373116725,376.45583095089853,631.5915408688511,downstairs
12.420701168614357,0.5573750514844594,0.4191546577442235,9.544830590396886,-0.248063276690754,-1.2193628713300257,0.37230464862092333,711.0235284418095,430.0744898243143,566.7761872403429,downstairs
12.470784641068448,0.42629270596979535,-0.23090414437589774,10.749969315116477,-0.08853771085068468,0.11466623496796742,-0.2012969512110069,704.7649654148845,344.78685010221443,555.2178632934273,downstairs
12.520868113522537,-0.07997869345163743,-0.6111125101309618,11.017484927955108,-1.2627003088015956,-0.674176050587128,0.09922328255988283,664.3880975291265,350.0520512802499,607.4156009385671,downstairs
12.570951585976628,-0.3594000020867695,-0.4879406160532089,11.483888375678541,0.6060236558746402,-1.5706141741932842,-0.047878535149829385,615.2804796719947,388.02027450492756,661.9522801969783,downstairs
12.621035058430719,-0.6881629492129864,-0.8903003869834984,11.061839518661571,-0.019114522055694097,-0.07045649511190201,-0.5998950609457808,782.4430644270825,362.4446845333834,576.8882988570947,downstairs
12.671118530884808,-0.6903437853138474,-0.5509505650505504,10.601409526670414,-0.1635487286866555,0.6550988061176779,0.32730502882975204,698.8567630408777,377.43294809140485,633.6486407585157,downstairs
12.721202003338899,-0.9271937633662125,-0.2356289581330986,10.450798086909822,0.6606614467593419,-0.19182088237100645,1.1111554310146137,761.772823508742,375.41641770025717,669.6450698062883,downstairs
12.771285475792988,-0.38715924227215087,-0.0504020706681057,10.256141670372966,0.17921615233405916,-0.3996280916210263,-0.5654594286881198,704.8674306536947,405.452824300093,507.9183331374998,downstairs
12.821368948247079,-0.1669564247185808,0.014111100062918214,9.231385092149239,1.256426809208778,-0.13682271382304373,0.7016624830103075,676.8963842112739,366.2910144064943,582.9910067819412,downstairs
12.87145242070117,0.14635713141541407,0.22251592283855265,9.189181754758225,0.13484120248189027,-1.4841889108465192,-0.06383748131387734,713.2591432174146,408.13329633739903,520.7814328484058,downstairs
12.921535893155259,0.574758752334145,0.5120768572029828,8.527918210217642,-0.1994634220163547,-0.53503913866509,-0.7611355231930202,746.9035502029662,362.0657420949724,625.5576617348503,downstairs
12.97161936560935,0.8919590720920664,0.44750336955354225,8.272627702487918,-1.412334151117353,0.059903538908302544,1.2694231831817049,676.3422090407805,449.313254878164,655.348194033446,downstairs
13.021702838063439,0.8016556015931062,1.1522124751875444,8.95692046256052,-0.7187789701381149,0.5297154732629464,0.0627866635252184,638.2416574796441,370.46195223660254,529.8942643483467,downstairs
13.07178631051753,0.8321009373350245,0.28251490958272474,9.204751981794734,-0.05581875926801878,-1.5387065558403472,-0.4697133296042948,664.6222708935561,375.00892929372026,604.1870979514896,downstairs
13.12186978297162,0.6823430264745083,0.6599510526481918,9.722295058405214,-0.15569871719017395,1.190994407447487,-0.8415220335562891,700.4794785734539,445.12321137864194,659.4958629170239,downstairs
13.17195325542571,0.768431160531235,-0.5139998435216693,10.757797138742397,-0.028962320401775037,0.2334460898244084,-1.2911918693864035,634.0296500975685,431.4884027068223,626.1487445759557,downstairs
13.2220367278798,0.0011388486468246611,-0.3209268102593738,10.796946734085976,0.5832717652160597,1.2163770271762437,1.19816040240228,722.896756651667,328.23332709722126,609.2208766710894,downstairs
13.272120200333891,-0.2581860215968886,-0.40759629699946837,11.47881242921145,1.1574397075733225,0.31454562094905303,-0.6063315669903314,687.6493907080861,338.81026081590926,647.8967727888286,downstairs
13.32220367278798,-0.7334593299702856,-0.609644214287046,11.308611220048142,-0.2844657760245205,0.29350729664685427,1.0821915773162898,624.9697371131806,396.7032591140246,678.0258352428274,downstairs
13.37228714524207,-0.5917533704687131,-0.5990738360053418,11.212153825529755,-0.12952962292171477,0.7353744877077883,0.5311665551161588,651.4491458208996,372.66279002811973,583.9314884989803,downstairs
13.42237061769616,-0.5670546450115802,-0.48324220721483135,10.489416208600273,1.1878153555077366,1.3766535614986282,-0.03498500510559028,698.8419965849358,412.04850688865014,605.9691930259959,downstairs
13.47245409015025,-0.7461935069249043,-0.4907619600021052,10.479798968962633,-0.29630563798132453,0.44956643143024544,-0.6536465057988129,704.0103196994222,450.1740004976623,621.0591683382694,downstairs
13.522537562604342,-0.11060353058514107,-0.20613571725767568,9.402122505205934,0.07933865746093323,-0.40180197445902666,0.9756138014442002,751.2133687034709,373.30285151332083,630.065048090945,downstairs
13.57262103505843,-0.056634812981349994,0.22445252718211234,9.231840656836287,0.9911548311442324,1.1089827002454682,0.10939911071132669,671.4355385911649,368.12836607392376,579.2658072720029,downstairs
13.622704507512521,0.671064451126572,0.38206891038493607,8.526787134694773,-0.7893320491590068,0.0874678362855325,-0.05437635409232662,620.4296691703556,378.4916690692692,598.8724468763194,downstairs
13.67278797996661,0.49664986385869947,0.6840040246564427,8.469379204430028,-0.9438815305661364,0.8309062775542575,-0.6783275258826714,682.6932775037413,384.98523968914645,619.8916070331528,downstairs
13.722871452420701,1.023335354842112,0.459846438237601,8.500176392807267,0.3081380870411931,-0.19776832450907908,0.3704124515967136,697.8580675909013,385.38290169515557,644.1036835371374,downstairs
13.772954924874792,0.9291662825910919,0.3550908318028441,8.935371275254736,-0.6622793419894779,-0.6284190002696859,-0.34775888357171764,620.5869070003222,376.46053455873465,614.2526440502675,downstairs
13.823038397328881,0.978799785627126,-0.15977354942993743,9.7876127783228,-1.0195631828702658,-0.2701354659074726,0.5747873743372359,645.6466713725644,406.6352314339702,620.6543743913921,downstairs
13.873121869782972,0.41709030129728647,-0.20308212905841433,10.273696337842305,0.1396346204209487,-0.9437350599839064,0.6784003100456324,606.27930749976,441.050159901175,566.0953655296455,downstairs
13.923205342237061,0.05735372231864215,0.014453609116859362,10.674512065253392,-1.216325890582572,1.303814852344869,0.3549887492002799,618.0630361130231,429.83654078956926,637.8642447036323,downstairs
13.973288814691152,0.12324826548325994,-0.06907534576740909,10.90331928473011,-0.47361098122384787,-0.4558588838448227,0.7270122133300886,697.7003791202876,324.76135563229434,599.6823243923163,downstairs
14.023372287145243,-0.3544302027652542,-0.7542411195001475,11.196852417595204,-0.6153800668252815,0.44194262749456475,0.6299492052004749,712.5639149080955,393.6148800364249,590.6922022454646,downstairs
14.073455759599332,-1.0057691431119948,-0.5658776312432521,11.520205075412,0.14504759909033915,-0.696468079424124,0.5001108289043973,658.4792449019055,338.14119739798605,644.336962065519,downstairs
14.123539232053423,-0.7923827046584271,-0.576293640751024,11.16620466483144,-0.8725419030056766,-1.0751037144090814,0.14812557001007504,675.6779320374222,368.09891626682645,669.5932877812294,downstairs
14.173622704507514,-1.0300470580051257,0.07306880655548315,10.011577467852234,-0.4030843632820194,-0.39159603297634604,0.05046207890974518,697.2170590015497,311.22702499216587,640.4298806712632,downstairs
14.223706176961603,-0.14816349955862818,-0.48207473727926303,9.239379231444962,0.3628580444277507,0.2974316814912155,-0.0409750337137838,693.8869030141317,345.9753650570444,612.309877851448,downstairs
14.273789649415694,-0.045447006640632406,0.27208215328951574,9.349923856862722,0.028154823031339128,-0.27113533147170527,0.3911702982451894,608.6582944638562,393.2753729473285,662.6559472794285,downstairs
14.323873121869783,0.7151600018933565,0.027142162195739894,8.82654051853404,-0.27816318136221574,-1.0728199322520977,0.030229472470826295,695.5758938223244,359.69330084071953,643.1721834620639,downstairs
14.373956594323873,0.7983971894950215,0.22764476471556427,8.320498476439212,-0.7497453871318834,-0.7149561678117149,1.0496020806424549,798.9407869941406,386.9188184296075,595.8685511147364,downstairs
14.424040066777964,0.9570789017673532,0.685233816784877,9.026243551749237,-1.103124160094911,-0.37661223124509347,-0.7149238345461353,778.3767291886859,351.82152460129447,728.5764568172788,downstairs
14.474123539232053,1.091426860736109,0.42081794049997306,9.280530559704685,0.21285572461529692,0.8400677902610749,-0.6999359494468044,611.4963081908375,354.34427280232086,594.502044924069,downstairs
14.524207011686144,0.5993395576980088,0.285383117026913,9.439523040596525,-0.934534075478797,-0.6310125018829348,1.1688286434681143,703.973961037754,405.30147969930607,590.2105183665337,downstairs
14.574290484140233,0.348337181384728,-0.1049741635030213,9.890095693914862,-0.4013796098670431,-0.5071129824126146,-0.2681027729195563,645.926589123595,388.92641468543223,632.6320407665518,downstairs
14.624373956594324,0.134292554659101,0.16218537638129452,10.50117527940895,0.008072321506167796,-0.5533688526102919,1.0396770372354838,589.6771619837002,423.501392071994,653.112788644564,downstairs
14.674457429048415,-0.16828101735865242,-0.4245494313485577,10.912693961088038,-0.03465737871104868,0.3445615754611438,-0.7994876840597862,740.2228800779982,341.8438273898288,642.4377268900719,downstairs
14.724540901502504,-0.5252461709443988,-0.49288065287464927,11.209703743620459,0.36851794472130567,1.583392617466294,-0.11968090871919135,713.2905811960819,404.0334883121126,587.9013950420324,downstairs
14.774624373956595,-0.6030570824922007,-0.6855416728164399,11.518982850249039,0.037166747817732396,-1.4323581866595108,0.9722010759114924,598.4049102524934,382.06624276277154,721.8567378192921,downstairs
14.824707846410686,-0.9355507584685353,-0.6834779130751658,10.654681031924985,1.2666655871354588,0.5839644955293732,-0.3928623356487431,646.5305309905596,375.1308926392883,652.0745132746939,downstairs
14.874791318864775,-0.8103820578283628,-0.46519945887871234,10.187767729948417,1.161378199900259,-1.0178623015854702,-1.0190046254679785,678.1557127256134,369.80744996054716,562.7013033662599,downstairs
14.924874791318866,-0.5221021216798168,-0.4262493091764267,9.973498218943085,-0.4953998193784367,0.16468836796830003,1.089695757018912,612.805194326989,280.2042688359441,612.8306056206859,downstairs
14.974958263772955,0.09926769817227722,0.011253411515786155,9.3830895204095,0.25096580209446673,-0.9272737497402888,0.8649942294561559,721.7610083556278,396.4241629249254,680.2302087779574,downstairs
15.025041736227045,0.2895404965357379,0.41507869012513215,8.955525774629722,-0.5530230133499684,0.4876680079637817,-1.074293159036085,653.6868453227946,502.1457942319813,516.2882283442307,downstairs
15.075125208681136,0.7540947139876223,0.5969524916595945,8.754348470767649,0.580592697089749,-0.35786315351191317,-0.23104123761596815,673.2845652367785,381.46549993216314,628.9482626827897,downstairs
15.125208681135225,0.8017909820184335,0.49858110600497857,8.342328417751679,-0.05797388310875482,-1.046395688819342,-0.4176641630858251,675.8152126203352,355.1989655034062,544.8698515222914,downstairs
15.175292153589316,0.7257763711181148,0.4626448823992339,8.913265260353086,0.010657743831155485,1.2172103002919439,-0.6937326473939889,641.3874572947464,354.09280067254934,608.7676878226157,downstairs
15.225375626043405,0.9485189016078375,0.3922124323257475,9.358256713024696,0.3497073468562505,0.3957117848745619,-1.247412071767497,735.7759515004673,353.81964514169266,606.5269450296377,downstairs
15.275459098497496,0.6686502196269083,0.1867771538614127,9.769271208363316,0.7226604189406216,0.7811299564641311,0.7637803679844308,679.8034490451789,421.9126259862431,623.0548053248242,downstairs
15.325542570951587,0.3716895036123568,-0.32338378648274674,10.291242310033978,1.158540722695983,-0.5759723464941167,-0.4011879436373939,711.2462849022512,397.1425541448712,643.194727168102,downstairs
15.375626043405676,-0.07986549091279672,-0.19967217037646012,11.105888428652275,0.15923774794370416,-0.417935027591741,-0.06445011747770124,692.2659949145446,371.09495050640936,644.3778197605857,downstairs
15.425709515859767,-0.6594607939674269,-0.5731454094493325,11.235829635121686,0.3425906819557682,-0.15145516027169378,-0.3615302879460243,684.6125461074284,401.48546009918783,581.363435661025,downstairs
15.475792988313858,-0.7961119939632835,-0.4162535996478639,11.349229990072455,-0.8555579078601407,-0.08363996292614947,0.6286585233117222,642.2507420792749,346.76837394690693,675.2030366006786,downstairs
15.525876460767947,-0.857757548488841,-0.7368989923588722,10.839171592340994,0.11598590622852004,-0.37168175542604687,0.36147539206867013,672.1851739722595,397.1643645123223,638.7703960824092,downstairs
15.575959933222038,-0.8540540842050915,-0.5833286083027238,10.636109243072676,-0.20460143570301437,2.015027900311385,-0.9806372811482725,718.2183724309805,400.02952183120954,656.5244446761623,downstairs
15.626043405676127,-0.6676136131070624,-0.2792677798228751,9.976847335398158,-1.2528771870320972,0.09730090251337961,0.2899590607488914,733.0870896976979,419.88714315667244,598.1717430072113,downstairs
15.676126878130217,0.14851555351482554,0.1975348729445739,9.297778467796183,-0.5280401546011927,-1.6932230746620271,1.1340603439364585,658.3547833513364,427.76099971921906,676.2917697446653,downstairs
15.726210350584308,-0.048372077657989024,-0.24201165604906305,8.964229443976945,-0.6806006895147159,-0.33150523506010426,0.04823195832322929,687.0470575592332,371.1497890105937,650.0877777822845,downstairs
15.776293823038397,0.5906963791912029,0.19105712862808394,8.817563505232126,0.6238957152530935,-0.27440007973255715,-0.6177269541855244,655.4333831595109,368.54552671094973,649.3019281858576,downstairs
15.826377295492488,0.767814340602058,0.30773183250214636,8.578788265308422,0.19698989351971805,-0.48662467651231817,0.5203717357825356,645.7552490754236,415.08522939455094,555.0682067792306,downstairs
15.876460767946577,0.6300461664421928,0.31024172102724273,8.753847151981633,-0.10573417718023846,0.12462399603734542,-1.0951566872669225,680.1517716232926,383.72940685510923,588.9978258651504,downstairs
15.926544240400668,1.113602536369161,0.1282903069484025,9.203911741085511,0.16382851714622063,1.0976437212692276,-0.243456004322511,639.1835943834436,446.99759254799267,725.138327908134,downstairs
15.976627712854759,1.0304229956469648,0.2063993556661896,9.585392836149015,0.01599701665086077,0.04909273326184044,-1.461382159165523,687.1579281068517,428.04475041451013,617.3420851237126,downstairs
16.026711185308848,0.597364498714451,-0.07168783909790265,10.32293764245995,-0.1768270056232441,-0.026578376492091556,-0.053224957954128266,635.6409515652812,379.49861208380946,599.8873200069065,downstairs
16.07679465776294,0.2385405305951277,-0.0008665107905887481,11.049614900381256,0.9258978336458102,0.23896956121013224,0.3322083458352537,672.1299584761168,347.2904712062255,588.7341805652973,downstairs
16.12687813021703,-0.6171185033086412,-0.6171016708398231,11.076678409362833,-0.7716626917102356,0.8595219138374032,0.08033640461418637,648.6859357647502,359.77071426556915,656.6958604818774,downstairs
16.17696160267112,-0.44413219391522524,-0.5917566969264298,11.01887553352056,-0.5490924564390146,-0.041406443686971044,-1.0358694246804125,663.6139182270232,341.30609056729963,648.9059658122536,downstairs
16.227045075125208,-1.1159980747797555,-0.9364359533695632,11.064096161779792,-0.6131842703697037,1.1199474762480504,0.7001041593206012,682.8606399197616,458.3663102072908,603.6970638682956,downstairs
16.2771285475793,-0.7545725575276774,-0.35260189536119463,10.674517680246346,0.19819219023010176,0.26343979317963745,-1.0223585166246036,698.5297651459146,411.5423468452527,609.1387018646869,downstairs
16.32721202003339,-0.7159515268621152,-0.3714046541236622,10.340829167796356,0.40333869974141107,1.126155449073175,-1.2135823046439342,665.029265716834,367.52223927021095,593.7547845453128,downstairs
16.37729549248748,-0.679747227350692,0.050169559004597214,9.446330776839392,0.07361618468728519,0.5710605932788061,-0.25458106823447735,694.8458585096605,365.8854783817608,591.0702543990753,downstairs
16.42737896494157,0.40576473179022926,0.14089863999857635,8.903134212720355,0.894529292032059,-0.6326121485545321,-0.22329290588712594,645.5370692685782,337.32425863068113,675.1799923675667,downstairs
16.47746243739566,0.7436279472784783,0.25295490002683635,8.285319672034301,-0.4437341577893056,-0.5397898357964351,-0.8378920778616167,682.722183125484,367.40336277503457,730.6754698669962,downstairs
16.52754590984975,0.7360224845612285,0.321341561188973,8.346131480987296,0.8423527614808489,0.7250747207720554,-0.8218303834008004,726.7736032609683,413.6726706662546,650.7468777837272,downstairs
16.57762938230384,1.0499110213400147,0.7692200752005598,8.50407720295761,-0.08381754278158468,0.6074855781091041,1.121415167451161,729.6243380517128,362.08882633690894,583.1791767330551,downstairs
16.62771285475793,1.4661017018000773,0.47416970016585086,8.662302128173534,-0.18318367157724846,-0.14871198596027813,0.5320357974081473,607.9828743238866,380.9487235583162,685.4597979252715,downstairs
16.67779632721202,0.7812663484227585,0.205487065298481,9.520574197002427,0.5404189591965876,-0.4855816127076424,-0.6221112949556742,638.8085006630444,458.71538197074165,681.3295838243098,downstairs
16.72787979966611,0.39709200043372594,-0.3980228527810788,10.28769872351531,1.625684885001642,0.08422417015674796,-0.27741436454077517,664.3410765076214,349.3310156130958,600.1657245430262,downstairs
16.7779632721202,-0.1326033111178987,-0.6440350025238641,10.546006460833155,-1.0389157281229289,0.8068849843335986,-0.224415018908645,677.1583180538258,438.23691120080116,656.3942763782017,downstairs
16.82804674457429,-0.0810156096528646,-0.17058542114355374,10.927568616082707,0.7801711269996592,0.4519309257285985,-0.2822786715605869,632.8415310388048,346.0075932146011,578.7798936112239,downstairs
16.87813021702838,-0.5207738117091718,-0.6693305994081098,11.160427343451191,-0.5757655322730332,0.4204886519832784,-0.581045434003504,674.037546733469,359.1500557662671,655.9609853811872,downstairs
16.928213689482472,-0.6405861668044938,-0.501827990837632,11.204662600861239,-0.6316815346157963,-0.18384376488777818,-0.12389547658733104,663.4904220515292,430.8455363940592,621.8594016955077,downstairs
16.97829716193656,-0.6010648256236091,-0.5791724953093045,10.829376466602403,-0.9704848580389285,0.4022480883513579,-1.3950730899717498,716.1798164352803,415.1852963485398,544.0443396261096,downstairs
17.02838063439065,-0.9457362019744423,-0.24895503851647394,10.327523854869131,-0.5006185203607945,1.1578662314196828,0.06707030362633423,708.7910875889162,465.50706859117383,612.3206021036216,downstairs
17.07846410684474,-0.3026358091893077,0.07139256937537591,9.679395439502683,-0.1301198035360449,-0.3277155457958947,-0.4242527181192816,655.81431277706,323.0278877425315,653.0098620275841,downstairs
17.128547579298832,0.1476686456434146,-0.13688202772220476,9.141624972927916,0.328907856300221,0.6519676889544492,1.0727420833475696,670.5072122721721,372.5054974241087,626.2448649838146,downstairs
17.178631051752923,0.6424594214356114,0.1571137572502733,8.881215631990493,0.43452345931729536,0.41672151443801353,-0.2865237737966395,690.1243621766025,377.34030669646955,582.4855162479134,downstairs
17.22871452420701,0.5165685261382252,0.45776439096207994,8.637659100251811,0.0713897454289539,-0.7105299441244449,1.4387898071735545,796.9042510199893,397.46279615041135,637.9411918358593,downstairs
17.2787979966611,0.9911982597925872,0.18933984535924597,8.457944616068808,0.9651941246882009,0.1224193241958569,0.8604865660276666,725.1145434410099,388.6105137941014,575.9739023536131,downstairs
17.328881469115192,1.2331569061090801,0.7368764099880785,8.945752394087304,-0.5228894153499667,-1.210172549556391,0.748713916428637,719.5253866792508,360.0483010789367,660.8961969860452,downstairs
17.378964941569283,0.6766246712259534,-0.0061693424635214655,9.455697218028787,0.10431952015737607,0.13056299201746546,0.8080815960406094,699.3963828086906,372.4141638563084,628.8339437180697,downstairs
17.429048414023374,0.46511127146109377,0.06153021901064193,10.02541023331959,0.16118802881372934,-0.08030039541109482,0.1536583623832264,698.6247657833048,325.87971131539496,650.6964944146083,downstairs
17.479131886477465,0.15217368091658162,-0.319923099641135,10.386084104088011,0.3101683118276643,0.37432889765438554,0.6865283699863933,673.2858915679246,399.7476541946946,520.846092540994,downstairs
17.529215358931552,0.1981153779298554,-0.5782244479316134,10.919906617772313,0.2838445098440913,0.2560716153433598,0.20093027718304482,733.7352786458881,444.8380327538764,594.0217249232699,downstairs
17.579298831385643,-0.45084617260596577,-0.6317029132531335,11.369783711832048,0.006993435780964041,0.6005712259212451,0.7634604881019473,689.7967131713666,372.3207283312341,531.9194380995245,downstairs
17.629382303839733,-0.7651420115531118,-0.7237673971895031,11.43817258220616,0.036566099334547846,-0.17001355973818622,-1.5599864106966412,669.5879563882963,435.6461522097519,615.2276598846428,downstairs
17.679465776293824,-1.0680951118845012,-0.8064464074662159,10.901642440719094,-0.2684589130476014,0.031518363551097404,0.34243368640493305,665.2960924421675,346.33372423884424,641.7449620305599,downstairs
17.729549248747915,-0.9425572489951383,-0.19207231275877473,10.177925891470613,-0.544906873818762,0.9027751978654289,0.34417569743247145,624.0486678349417,437.1469765110535,593.8637331645945,downstairs
17.779632721202002,-0.46272320610481726,-0.3378901436558112,9.649796754352426,-0.5633164056020757,0.0479864382384799,0.9141201438161846,701.6769143571514,408.9368556762597,614.5884830379139,downstairs
17.829716193656093,-0.4643863885038239,0.21749279896135337,9.286226397803418,-0.21032235058330734,-0.4240875073259158,0.24218092577886619,726.9249120222155,420.0627106923218,656.2463792199865,downstairs
17.879799666110184,0.1525172307500232,0.18072086070878104,8.974726269165798,0.14535446439868907,0.2919253166703263,0.5981252618777672,575.6712990012959,397.6963694163198,580.8296830966476,downstairs
17.929883138564275,0.5695831584608007,0.7145171551262754,8.768331304807571,-0.7129748500637685,0.9477759544168611,-0.6533459383604892,678.9574188509129,425.96799488781244,640.0953517854705,downstairs
17.979966611018366,0.7211244812683476,0.7797904004062672,8.634235518977317,-0.16066807283298326,-0.26150167939194774,1.312426695162399,606.5359250565201,365.60131332005886,559.6037468967434,downstairs
18.030050083472453,1.3126127667554188,0.5181602435903354,9.071929590789782,-0.12493859433394139,0.43030135895432053,0.5103235387256883,681.4962324844673,355.6206998529383,658.5621761586441,downstairs
18.080133555926544,1.1744375739336261,0.46519774030235156,9.202013274669943,0.09631152104235247,0.0632088088949914,0.4826085625827339,696.0259606263778,400.91167910229126,631.897146502312,downstairs
18.130217028380635,0.34499027007681204,0.16858319756673795,9.774558407531986,1.0497792670452153,-0.31305156096286585,1.1702693520149914,664.7889140333873,454.14519294597505,700.8390668328667,downstairs
18.180300500834726,0.48947660394046594,0.10078479830786452,10.393425439260056,0.8515922854241259,0.33440125198669385,0.194379557315208,680.4755032313005,398.3585502477578,648.6973162861402,downstairs
18.230383973288816,-0.09326596395984034,-0.027282299750241268,10.833941008685981,0.5339559522676987,-1.154449442584704,-0.42073289332994485,674.5495292311933,404.1458281589657,651.6476479778812,downstairs
18.280467445742904,-0.18949389859993387,-0.7487008903460521,11.172011051784763,0.5555934721303132,-0.3551559987790024,1.826247692746875,691.7789325270137,386.2579413252588,581.4315266853198,downstairs
18.330550918196995,-0.8272116260750995,-0.5767901619602975,11.701595326257213,-0.1346663273163922,-0.2453631055741093,-0.16097482157229362,663.0092735808023,395.8649835325922,592.3824263117422,downstairs
18.380634390651085,-0.5430800606758464,-0.8378283360347698,11.108194570707884,-0.4226104734858557,-0.7548202225052261,-0.6509415587994729,688.6907104873969,346.19576475874584,617.3856376016835,downstairs
18.430717863105176,-1.0496496703443456,-0.7260118536597353,10.524737587456947,-1.436096486589434,-0.5315337720136705,0.28966147478060233,644.4870318876455,389.07048709447446,626.8279669698745,downstairs
18.480801335559267,-0.7592588129547068,-0.318255886454523,9.887904520915228,0.5242856616624556,0.24368860466708953,-0.3087412945172431,572.2266907957115,358.09037344045055,633.2542741455085,downstairs
18.530884808013354,-0.5273009639529053,-0.02873262902239325,9.305019311430692,-0.5196461890597901,-0.26634190012528486,0.08764003471209099,716.8890321077803,308.43580405811065,604.545232206723,downstairs
18.580968280467445,0.02611147342443705,0.41582889945996554,8.655208599555788,-0.11575097677138474,-0.2763427129516466,-0.02986528585718279,734.4389714351274,388.14639379654534,607.9687120255413,downstairs
18.631051752921536,0.168269425981455,0.43647418794408827,8.44604448709092,0.19608982134718514,0.37455039858671696,0.5686940355581813,705.6769018914728,342.6635013274947,599.2813670145215,downstairs
18.681135225375627,1.1069892588047936,0.6002347362683298,8.240261612900321,-0.905385250066337,0.12779080103757112,1.4075533304308172,679.7204062123838,339.8266543691884,563.2868012349501,downstairs
18.731218697829718,0.7725376306787513,0.4230185689624277,8.626916336993874,0.7407566901116801,-0.5357860000038328,0.46302279341240893,660.1776301613656,428.59424560541447,592.4969665502708,downstairs
18.781302170283805,0.9200880331519964,0.34860396782874026,9.303144231858314,0.8869509343736143,-0.30546343969307405,1.1824877165773209,688.5883441666958,408.53989362284784,563.1528368594775,downstairs
18.831385642737896,0.6522626337026922,0.41578255150335225,10.035747576298858,-0.32323654344803127,-0.25641025355294805,-0.37510056378425793,692.3667929027655,393.17386778213256,591.2927277506296,downstairs
18.881469115191987,0.5400217309694315,0.10506344435930925,10.317201986947738,-1.0008449894457272,0.869532560092472,-1.108797165322857,787.3525791177716,414.32443750314667,579.9809115001161,downstairs
18.931552587646078,0.006853025010915406,-0.0827266803738228,10.583920829979755,0.3401380406936531,1.1426237942038837,-0.1415913779135846,701.2608947186479,381.6848415295863,620.5469525238728,downstairs
18.98163606010017,-0.21894559123267693,-0.6968506781615365,11.159568196812714,-0.16830631435428042,0.09651507602932276,-0.3548663816878859,616.9513160498975,334.928781355727,598.1182131817746,downstairs
19.03171953255426,-0.6617334398857122,-0.5033544769102745,11.429166186132166,0.4627612088140066,0.5894308436059573,0.5048624579902246,695.422954989605,417.66971005202595,646.8061870173199,downstairs
19.081803005008346,-0.7977461104690395,-0.44822814383829895,11.078442860580468,0.6351819350866013,-2.1121368248508534,-0.6771848781713734,718.5653187345839,384.9101418588247,558.6442943117738,downstairs
19.131886477462437,-0.6033046439935336,-0.8132066607949111,10.998943837923337,-0.8245160745742822,-0.6924745535863018,-1.1726074736231706,557.2575994145668,391.03519972022866,589.9332034200481,downstairs
19.181969949916528,-0.9019829172424622,-0.12347108650417277,10.500520971192376,-1.029280156514551,0.9139487383736989,0.4118831061411862,696.8974911598335,336.4876951185107,607.1853246028815,downstairs
19.23205342237062,-0.3136168585949927,-0.03553724110932942,10.021250162468508,-1.4784078787025927,0.8653681523724498,-0.45642446056608976,628.9796810822991,382.6948864144303,559.6652016266763,downstairs
19.28213689482471,0.0568718998507529,0.1389842625556641,9.486843444202345,-0.11573672702927267,-0.09468170834425017,0.6154725691448795,708.6394170998512,368.99352479683785,656.4546707854568,downstairs
19.332220367278797,0.18297871825354106,0.021041395485689063,8.731922305037559,-0.22463365619777953,-0.3011687616288009,0.6500627741076297,615.1793478427905,428.9816530398999,698.5737155941584,downstairs
19.382303839732888,0.8657391552422736,0.30422006976158605,8.275307549088286,0.059286365119836634,-0.04861764818609184,0.31140088680838196,626.0559233692165,410.36058781829416,648.9181091816897,downstairs
19.43238731218698,0.984377412908122,-0.05207296417444646,8.447473746200805,-0.5539200502732048,-1.769864815998417,-0.26020519233009065,700.0415461466239,413.64594373353805,545.2297022890439,downstairs
19.48247078464107,0.9922089505552024,0.4884845290663869,9.292065582265227,1.165578622071994,-0.15230219140665122,-0.20163889312804228,629.9859467016531,332.77316468939733,592.642007568953,downstairs
19.53255425709516,1.0373355359455125,0.2490344587594952,9.292646488340752,0.16944953674939042,-0.5039781012970346,-0.2517641569104181,544.9116389068249,423.5270044838019,695.0781208535958,downstairs
19.582637729549248,0.7423773473266516,0.07941451562398985,10.127420446557624,0.7712355630773953,-0.0914566290247845,0.011543389659088162,668.7928007395803,353.9408066379643,637.8010621225319,downstairs
19.63272120200334,0.1576897340260719,-0.5025971554309568,10.83874051299232,-0.48333984426883364,-0.6924132967837673,0.2933740858299098,707.3533386718138,345.52248653672916,585.8105783048973,downstairs
19.68280467445743,-0.43038202226498373,-0.6658791200221923,11.241524233419511,0.13644371827770727,1.2494851329400263,0.0799337852583889,693.4537042118932,359.76741371167515,668.9134100316298,downstairs
19.73288814691152,-0.6612031925602039,-0.8324297523337756,11.13591915912346,0.4661580562755377,1.4838116765180913,1.456534163868688,621.3862244064967,339.4857366645208,701.2088426195427,downstairs
19.78297161936561,-0.5297027531505645,-0.5163327427778124,11.062872052335166,0.12096596875741147,0.2762580132989746,0.942293777639976,620.8668465325425,331.9905207668027,616.360857750648,downstairs
19.8330550918197,-0.966474425718345,-0.7026463894319359,10.843128656649158,-0.32867516438978983,0.6422600385616473,0.4728584074580559,694.2186533495345,422.31797878365217,588.5510621506362,downstairs
19.88313856427379,-0.6957065169358253,-0.4014327697513545,10.1558786846094,-0.2743334475969195,-0.13069326362306377,0.6898245976653051,706.0090154970597,406.38926827867556,680.4615660524566,downstairs
19.93322203672788,-0.49616508270775544,-0.13776568204461015,9.621692002479572,0.7795271369088482,-0.30978182505284185,-0.6249897318458518,753.3198255442943,390.37206077369234,703.060718400957,downstairs
19.98330550918197,0.021672205759374813,0.669801271234534,9.377420142359147,0.0561550145350451,-0.3660234296126726,1.4581685969810314,652.0929888191522,314.8588918512978,546.4082463480901,downstairs
20.03338898163606,0.15863727400092942,0.2628048316593302,8.503541870993198,1.4047269183555497,0.4521746292905477,0.06704610840969359,721.0041929976356,362.8579518990768,672.578718138709,downstairs
20.08347245409015,0.5575829209905186,0.1903732715067747,8.715465352377748,-0.23929270679040374,-0.2208672445064699,0.12845244251341256,723.1032038860387,426.434661638949,671.0019418009097,downstairs
20.13355592654424,0.845692894645905,0.22949370970338961,8.824833080666222,-1.7426991061915778,-0.46626874754658965,-0.7601631472809924,719.5010644815827,383.40946153680676,698.5363474951714,downstairs
20.18363939899833,0.6460692770462825,0.32514702120002964,8.83168111651887,-1.2134463051073876,-0.26089887987389787,-0.5671901902372157,767.3992252617136,474.26935913803266,624.2806964768246,downstairs
20.23372287145242,0.5822930224330942,0.10213750842960612,9.221364734275394,-0.8509957348604907,-0.7605850894947324,-0.8180026326018909,672.4390658192124,400.6255112133302,670.4803963506156,downstairs
20.283806343906512,0.3994429128029999,-0.22834476182595834,10.064586286958688,-0.45322268907121016,0.037063794937002424,1.7317489267612285,649.8054316442478,377.21701200996404,630.4777374579758,downstairs
20.3338898163606,0.14969028790035127,-0.741291578778511,10.530471886172935,1.028566585743887,0.17446384218496297,0.3360422851584727,683.9692816306085,345.04837485817677,662.4698624498409,downstairs
20.38397328881469,0.17618998364438476,-0.5374462994000386,10.953863094840361,-1.3238477156164654,1.1606912336548838,0.17303741550835786,691.171419724236,369.84323931765357,674.0368121199524,downstairs
20.43405676126878,-0.5591180582546672,-0.745044150764731,11.26904817591552,0.013883807032888879,-1.5488725733930528,0.04222348084765371,694.3085580464867,409.3223633890918,586.8370987544542,downstairs
20.484140233722872,-0.7922817797876954,-1.0623560716533231,11.347507128522661,0.32669534273330386,0.9598960289729,-0.2305932808820045,609.7664205149001,455.53685666081867,647.3875715163008,downstairs
20.534223706176963,-0.754594408021521,-0.6867050219839852,11.186702073022571,-0.5693386695331832,0.45950961158903525,-0.48171830954079536,784.3972562158679,451.4573769627599,622.2804971695831,downstairs
20.584307178631054,-0.5710304558216434,-0.18013447523320358,10.625390401539805,-0.013459873524824972,-0.8713554644874313,-0.14944205212387823,634.7232925944,403.85617569431577,625.8405584762661,downstairs
20.63439065108514,-0.3139702407206651,-0.7984590201178914,9.594285305905801,-0.6797183387885609,-0.8384705846789229,0.07198925133771453,657.433757498692,411.08388933257896,677.4557577163265,downstairs
20.684474123539232,-0.26035653904597644,-0.06717732045427698,9.27318555103333,-0.8752016950913941,-0.8530932285314735,0.5484876615910317,646.3367158525419,325.5054937810118,650.1673665450714,downstairs
20.734557595993323,0.15070886282700247,-0.13216024032832846,8.880824238118699,0.8026297557247561,-0.5636290197293957,0.3120422941192581,607.8155229489553,302.951197604829,607.0071140397725,downstairs
20.784641068447414,0.6183858605025128,0.5131582144545126,8.800960308680638,-0.21913577915611146,0.6959255206712766,0.7526187394990566,670.9287634655841,426.92409180534804,615.8954961816045,downstairs
20.834724540901504,0.7780253218933463,0.5833974499045418,8.718786079614445,-0.7187965904652751,-0.5729952998769812,-0.02430650621750519,759.7604094786116,363.1985946664892,536.4138992696392,downstairs
20.884808013355592,1.0284464763614556,0.39695973391520956,8.92216425137625,-0.3794309549525145,-0.010218590694453411,-0.4093110993356254,690.8821839523182,434.47427625135686,658.3614486113772,downstairs
20.934891485809683,0.9567792472212945,0.2571162206686142,9.28735932215764,0.4016757573211647,-0.21807262529213325,-1.0224670535862037,720.9449924127945,440.93183595766914,663.147513646484,downstairs
20.984974958263773,0.381301350274022,-0.10626271711076721,9.861993325425416,0.7365104639700069,0.4858079252003612,-0.07140286982836645,648.3473453409134,347.9966531958966,662.9600712060976,downstairs
21.035058430717864,0.6445910850079387,-0.3421275670133086,10.45332385626136,-0.6626654524496214,-0.8760874556303113,-0.4454325492210071,697.8004059674356,325.6555417365765,673.2966744354317,downstairs
21.085141903171955,-0.22896021861121924,-0.5947558258466219,10.500425558341115,-1.0780194521657864,0.7214014357862136,-0.06569768935086683,706.6230875453142,398.61222641783405,568.0411316729108,downstairs
21.135225375626042,-0.3729917956712988,-0.4431184991837983,11.170646390016932,0.7453315214307313,-0.5897449963262575,-0.5631833045865562,701.2500936397776,338.6838632189845,669.480625431579,downstairs
21.185308848080133,-0.36772245826375466,-0.7960323530008147,11.104519580660291,1.430645088487647,0.7449823786387494,0.1441729941700731,620.403202291896,369.51604967387044,606.4627025549116,downstairs
21.235392320534224,-0.623577529237739,-0.313959891180999,10.956957326029917,-0.34851550533847847,-1.3301606098166574,-0.010884487714155018,687.3677979781377,395.20621961187686,627.7627010537503,downstairs
21.285475792988315,-0.8365552579718178,-0.751368703313406,10.84679780353341,0.6627971189267247,1.0219104628151647,-0.5860552603369878,749.5551276156177,353.16199637214413,546.6134497010713,downstairs
21.335559265442406,-0.5765035569745015,-0.699144343062458,10.324056435621797,1.0449319868104419,-1.3934875912163325,0.7736709911185007,649.8939849916634,369.2681402691668,617.801362229533,downstairs
21.385642737896493,-0.1746826941299644,-0.011978521380780233,9.667498555261062,-0.6172427584700086,0.8614508340644735,-0.48583806047839995,717.274544253304,400.3155994754743,646.2165920068803,downstairs
21.435726210350584,0.7390439733630182,-0.19803626210868824,9.292378414365347,-0.31714133929653504,-0.4567913266461077,-0.3933990499201231,662.0026556909501,306.98555003447836,588.9731340713695,downstairs
21.485809682804675,0.5570267333442442,0.6702242089056945,8.626405891529334,-0.07654459694485727,-0.2458234259097376,-0.2239170869316583,690.5449041268243,395.88950413603,701.7403406274597,downstairs
21.535893155258766,0.7721124985915684,0.5963290316654937,8.72089811542748,-0.8761009367328182,-0.4056468681020481,0.4879921378189978,744.7955258750231,337.80183406843366,568.9169904378504,downstairs
21.585976627712856,1.3697908404292372,0.4984529832786388,8.842138339721748,-0.4118735286837996,-0.14550161616051654,-1.3796410641483574,739.9183754187356,318.69685424204414,576.6469011580609,downstairs
21.636060100166944,0.8598516747858095,0.11871864099190965,9.057604073838379,0.6829528991499396,0.4167269129616367,0.7137036876942766,682.8957961713018,334.3571140921341,648.7988231550321,downstairs
21.686143572621035,0.5998893163144643,0.10994762769702543,9.69970975011142,-0.20604669988873098,-0.2021531040614738,0.35897327925294453,646.4597727544882,328.51218845698725,506.38399750024905,downstairs
21.736227045075125,0.7111698347495569,-0.24167161272131008,10.264674953093312,0.5329561221523422,-0.39431332329412955,0.20057441981743337,652.9617753163569,488.15337637846824,639.1668000219157,downstairs
21.786310517529216,-0.06439939835785106,-0.04219920856357268,11.157292240775428,-0.6246014684541936,-0.23967734515606715,-1.5757988688169184,642.4610286374901,351.98367611216634,537.0463297975998,downstairs
21.836393989983307,-0.1793287201838401,0.03258701467169317,11.065876170965597,1.4810338638309322,0.29412418463169926,-0.16644725892920864,639.4318366039076,387.5222710846411,607.3792286628391,downstairs
21.886477462437398,-0.5109866157425976,-0.47531798294543914,11.219765311891567,-0.21521707409749294,0.9079911157026082,0.3538919416223505,756.148810191468,302.53579837755484,664.9114117279688,downstairs
21.936560934891485,-0.9094982602686987,-0.264376188996495,11.022309773922581,-0.848270036025089,-0.6922733005730297,0.4265394757482358,700.1986050533563,378.21698701845787,592.6720819405843,downstairs
21.986644407345576,-0.7178370846916601,-0.7180479583125581,10.561111752982683,0.6540547781723643,-1.7830174596086525,-0.6226768412734602,648.4473102629753,333.02260876077764,609.0090499143957,downstairs
22.036727879799667,-1.0556406820494666,-0.5399740099259958,10.058103179348226,-0.9902050736821277,-0.17438790409692537,0.4224471163749914,726.4608303203569,382.39393621498675,596.3207683084089,downstairs
22.086811352253758,-0.4561248321343136,0.2459540666662925,9.688856583337353,-0.021811863648036216,-1.00822475434951,-0.12030358798956668,585.2591788226042,507.4405285920442,583.786599596437,downstairs
22.13689482470785,0.09093328264847908,0.5297866714843398,9.018680390306416,-0.3692976733295713,-0.2022338595286023,0.5994718054125968,652.4245571850597,354.9221196742579,633.476999796624,downstairs
22.186978297161936,0.6711873121724029,0.14676151386772202,8.69970169829719,-0.5090363059444007,1.2916453308627256,-1.6411683339339587,652.0670226204201,348.3233735911371,647.6890077164039,downstairs
22.237061769616027,1.0972891598730552,0.6070107576108286,8.184591369081128,-0.357189063134914,0.5602273070362144,0.9514499267721339,725.397484343475,434.1855652122558,565.6448389050703,downstairs
22.287145242070117,0.6908618569338952,0.4044702195137196,8.475031042008279,-0.5752836168619917,-0.6109334835771252,0.2541502393539873,712.6527167905781,401.3395402141886,548.3126423776988,downstairs
22.33722871452421,0.772514724601212,0.6806387202519137,9.174038060428254,0.1880906119796548,-0.7688129016745633,1.642033323798685,630.0157661483015,353.5677352372899,607.6442137256181,downstairs
22.3873121869783,0.9454452385985991,-0.015251960778447982,9.402046017909575,-0.014349854842816805,-0.4635832951252293,0.837001457078348,688.7778603182335,388.38213456779533,585.3351814772175,downstairs
22.437395659432386,0.5793694975201807,0.11860135689991924,9.97567437690734,0.19118397921742875,0.7764507379167824,-0.414560832206106,706.8644540839349,338.8539597007117,612.6174933933711,downstairs
22.487479131886477,0.6002839635881082,-0.17624738944231272,10.912960695154416,-0.5980503094773971,0.03856315973967098,0.6081573383223824,639.6963610250363,324.4529105521815,620.8863016199924,downstairs
22.537562604340568,-0.20600905007474868,-0.5408529583896367,11.321554671459383,0.0013498376848804752,-0.3777421289259704,-0.5524440808719681,638.3198336133117,343.3266957561417,612.1555810566429,downstairs
22.58764607679466,-0.7094544502831982,-0.07495021891248382,11.620427864989594,0.6498327785560558,0.9089118191923505,0.10184928174069639,621.5403436732918,397.34197405300205,621.9833940369057,downstairs
22.63772954924875,-0.8681532080567658,-0.7309374737790673,10.992658925977663,0.7906141997475528,0.15314669515220874,-0.26218703535829013,662.3991887863268,389.7898527677043,654.1460107816379,downstairs
22.687813021702837,-0.8655943924852472,-0.6955397821452165,10.931212398365467,-0.03920171630224876,-0.18335579964898616,-0.8529608973177825,663.4649982855693,310.38201925522816,644.2704712177422,downstairs
22.737896494156928,-1.004387275404082,-0.5402874869042997,10.784468394649137,-0.0948535783917953,0.29382636783726107,-0.385462069766896,789.8387207095768,440.3177403583379,552.2569809758616,downstairs
22.78797996661102,-0.183252458362141,-0.415393386955798,9.718920918507532,-0.7239911994311283,-0.37739969683166513,-0.49550433052698717,644.7770456365217,388.8686524995859,697.9891736683734,downstairs
22.83806343906511,-0.4824179443020405,-0.05427111120515041,8.6214298563665,0.22968441305075984,0.7793816958373881,-1.4632263440369162,706.4823528540951,406.825916580677,660.7485323544781,downstairs
22.8881469115192,0.3551295414010594,0.05609868832623377,8.969837343391681,-0.37167217588075446,-0.09029176307405558,0.7641841458089654,724.7390674765151,380.0622303196304,614.9253939843366,downstairs
22.938230383973288,0.6435694345894895,0.2050929872007189,8.524993302691305,0.8370736521284791,1.0860784588494843,0.15843641496685038,697.6396377863528,385.2880989450973,634.8594552926986,downstairs
22.98831385642738,0.7550814504335673,0.5439938337287042,8.5271533172081,0.45339097985007276,-0.8181038984305651,-0.6393666051575349,659.4602343575497,407.36202306748163,642.7360704491446,downstairs
23.03839732888147,0.9853358735049862,0.4219392038592484,8.701640862236289,-1.6474539588289292,0.6292469324894953,-0.1733625987698045,727.6552756424612,291.0139484232471,633.8597567996693,downstairs
23.08848080133556,0.7977159877438317,0.094991931538503,9.361149310633897,0.46444873268505427,-1.0522727344697993,-0.9314175497749763,702.5753587334168,380.15428877730346,595.3433514420511,downstairs
23.13856427378965,0.4565014152574722,0.47724353285409477,10.07109719519423,0.051526471008078924,0.04414579858183392,-0.6495586055001846,680.0925278587491,348.5341739618117,599.1813436350403,downstairs
23.18864774624374,0.2690907988368399,-0.23694377608990624,10.427465095241843,-0.13363175599302957,-0.5394679454380985,1.2899918951136906,657.113387601714,394.1993310803634,600.5354143738674,downstairs
23.23873121869783,-0.27288419792384216,-0.4955958960639112,11.48822957928399,-0.19179206839076818,-0.6758994858189031,-0.7915424266043508,725.2841552194186,365.3344389969448,648.021058612876,downstairs
23.28881469115192,-0.7612783487120615,-0.7240408943233834,11.298591139410895,-0.9380385652723624,0.4019160513088242,-0.32102962784223216,693.6173969882916,353.7667214386575,554.7939833097776,downstairs
23.33889816360601,-0.553721217676057,-0.44996838758062746,11.013199038028342,0.17049791397577005,1.0396119336650966,-0.42386988534234626,654.9260221806351,413.22370275216775,530.0905793088783,downstairs
23.3889816360601,-1.0277212903277397,-0.8687133371341773,11.073410227188482,-0.6074439338611914,1.0373182025821337,0.49203056539625645,621.7201856818699,399.11741627105187,618.6685784334097,downstairs
23.439065108514193,-0.8802616745156152,-0.6050599375282306,10.311725747799345,-0.005151856285690111,0.05946129466998657,-0.03064380675738944,622.5919622507058,408.9952745468513,588.1996713629139,downstairs
23.48914858096828,-0.3667515575871317,-0.36783295020928336,9.336734451758687,-0.08567597220524287,-0.49437949060619446,0.4994553705272302,671.7326646725005,343.6643080710902,582.7523839698388,downstairs
23.53923205342237,0.2990299454213158,-0.07722400275461741,9.471608598683016,-0.3717292564038687,-1.0506200224222322,-0.8201274504372009,653.3780051552911,312.6447202666721,633.2914502431065,downstairs
23.58931552587646,0.5774042596087613,0.16154733575612887,9.2168943688456,0.5191682963028472,0.5145692851052822,0.5638959736401908,652.7687155415992,437.91562016753653,644.7212207317687,downstairs
23.639398998330552,0.6440335699192756,0.13551068458603832,8.428916572312016,-1.1821950024963903,0.6191880639797257,-0.28020243731641054,695.1796671863281,377.1322094688672,674.9764161898486,downstairs
23.689482470784643,0.90529852916056,0.654812652611118,8.775178615624876,0.2641961427639333,0.05629971813789204,0.2537398325457931,640.5996654699475,412.25150655472606,634.5773991146972,downstairs
23.73956594323873,0.6993705413786643,1.024738012362468,8.532158733714047,-0.06670335158913966,1.3554115564677207,-0.19275688472079014,613.8232231925074,349.17045135422967,590.5753024371863,downstairs
23.78964941569282,0.888918256557938,0.46223781748407494,9.231607718708549,-0.5515967971355002,0.9519648585028018,-0.7210777833240399,697.4548823868172,372.30999820372637,667.8592216509802,downstairs
23.839732888146912,0.6796445269955245,0.3717399265585775,9.798902663786688,-0.729366664193659,1.0541544734456065,0.7158730977552467,709.6791699800278,398.4293663515956,662.6625283795443,downstairs
23.889816360601003,0.4023584847569835,-0.03804592165152458,10.601026203362217,0.525741790168632,0.1255960762301033,0.019066942100587514,658.5499843791235,387.5693974760646,636.6170662498627,downstairs
23.939899833055094,-0.04182728477913271,-0.2170662932613694,10.81655809072606,-0.28531333908244433,0.013420747605057709,-0.7657888426173076,590.1426640865038,442.6727012690782,607.7191844445462,downstairs
23.98998330550918,-0.12698885779776942,-0.47130488153430783,11.228430266872538,0.4138035603702839,0.2919752567299938,0.34860099024884844,638.4730383083596,347.01154298391333,595.3403806133899,downstairs
24.040066777963272,-1.1776677370774786,-0.7131857603446472,11.324146676505096,0.3286176570123989,1.3123095623319772,-0.3612042068962225,665.8842715309779,328.27563527745735,645.7033039513786,downstairs
24.090150250417363,-0.6978417074395947,-0.6719464080453383,10.692073021807774,-0.31890195159568696,0.7561617914456025,0.009163107584292491,646.8171049334128,438.77560307781516,643.5582554323154,downstairs
24.140233722871454,-0.7836964824854674,-0.5840204602383066,10.802445767933449,0.39809883316417766,0.5222917891524717,-0.8665681797141231,657.7175515581666,364.36776659162393,542.8879415468207,downstairs
24.190317195325544,-0.7820315637996885,-0.456479024196018,10.097529160762234,-0.3266485425052435,-0.2300873513489039,0.026254617290706737,679.4402975600284,365.699902059812,637.6713620826708,downstairs
24.24040066777963,-0.13761223695083585,-0.19489586947161217,9.538135843914947,-0.7817973615362193,-0.11806537373122584,0.2995157281234927,748.9283232856411,404.2120732399857,585.4167073912683,downstairs
24.290484140233723,0.3309132226160134,0.18383435209366944,8.95196404844622,0.4392903157076353,-0.19003222146673115,0.5536903379363102,688.6048252267071,343.11838925854755,623.8320928360969,downstairs
24.340567612687813,0.4939230101575144,0.46835954448888545,8.564998741074438,-0.373164602010744,-0.8368687906711663,0.23045097754895905,585.7727091678892,394.9736918161359,633.6206218791818,downstairs
24.390651085141904,0.7754901055462335,0.8434712856716484,8.559413309330713,-0.9598080805652526,-0.6262699904620687,-1.1039567027354213,603.951334983147,436.622018580258,644.9489623038104,downstairs
24.440734557595995,1.2644585545942986,0.628538185123958,8.568214950902622,-0.5915696459098309,-0.7143161301359416,0.2184168065785836,638.515085845936,342.6588757393496,618.6941616533632,downstairs
24.490818030050082,0.9302723796391505,0.42645567916631344,9.321352659174723,0.5378052068393789,1.3383727076080403,-0.6274192419798067,659.6114392243848,372.32852851487615,618.8351136139754,downstairs
24.540901502504173,0.32030090420756985,0.08586743331816607,9.573909299328024,-0.5282610912321144,-0.08426580143816634,-0.4657745932580126,673.4361611983356,364.87829289117525,554.6829993160608,downstairs
24.590984974958264,0.5801149041080115,0.0013635600053087393,10.220432072417042,1.2767761702347526,0.8550340137673729,-0.09340706365917541,742.9560183891637,366.9183585181402,638.5363802142667,downstairs
24.641068447412355,-0.15017422227626603,-0.19894904536213515,10.646696067265145,-0.26502583492716725,-0.08513569951123863,0.5138109491225018,665.9207886377102,390.78341098253196,669.4647716890133,downstairs
24.691151919866446,-0.07785994933981895,-0.6622144581582929,11.183169888403118,0.6022758609299913,-1.0583667628697866,-0.15705877560135978,695.0579583653016,378.7071354810057,674.7749928484111,downstairs
24.741235392320533,-0.3199435634101874,-0.7686411121882724,11.498338697525526,0.15289239741664362,0.7266931211093548,-0.6478958369369412,669.8132222880729,331.778192003885,558.8901003702003,downstairs
24.791318864774624,-0.6280400925007852,-0.6731056784922744,10.982222522728227,-0.23094780829957962,-2.131411712824564,-0.010275678081003416,690.2630757627338,373.96371554776863,576.6860246248668,downstairs
24.841402337228715,-0.824710870274921,-0.5764447550611731,10.754355602706015,0.739401274550081,-0.9226245450882921,0.14020301814323616,678.5176581647864,369.8300202367853,776.1324112971632,downstairs
24.891485809682806,-0.18356056874145305,-0.0737612375059859,10.163247809313656,0.3524026190537808,0.044900337247699464,-0.27236367242514836,661.3543908658252,366.50483064606544,611.208074733642,downstairs
24.941569282136896,-0.4962746746901732,-0.19436010546778099,9.414506291202464,-0.5708252042577663,-1.2248986550188714,0.11156607675950941,674.9205805774118,433.37247900241675,692.0157798030681,downstairs
24.991652754590987,-0.049974140107108836,0.08395721167970807,9.257129705033133,0.06129338731744756,0.22029405996570062,-0.2530183277528893,770.426132426254,368.16801522182107,641.8826616908202,downstairs
25.041736227045075,0.34414439074911385,0.035500721655522316,9.012631423267473,0.5473295670238822,-0.9825435167643344,-1.314441711201608,696.0702195317823,332.0682568786732,637.6338999937146,downstairs
25.091819699499165,0.5622255562363007,0.34551280469666973,8.666334740573886,-2.157611819333415,-0.3872721544225892,0.25921203788352287,537.4738672175765,391.0414598862717,657.4878513468789,downstairs
25.141903171953256,1.0202618781555366,0.8205277198200525,8.726728656604509,1.1468879205799094,0.45493899914710517,-0.22228751567446056,740.4755031016999,364.93131122690187,620.2138622651852,downstairs
25.191986644407347,1.3225138514424528,0.36207104369138915,8.772379246734891,-1.1834035519544859,0.2749318661748139,1.0888235225622753,643.3699306406374,389.4531131946749,592.6979145404246,downstairs
25.242070116861438,0.6224238047825255,0.4614708817662721,9.150353657849108,0.31050371231616347,-0.2631574163832028,-0.5989140803694238,633.6888950719351,397.95040513238564,624.6464754664603,downstairs
25.292153589315525,0.8226670109152614,0.1837948090054447,10.209765210945989,-0.1203760743018241,-1.090001753434222,0.5370699168978997,610.757855736335,383.84492868429135,592.2748675970198,downstairs
25.342237061769616,0.08003232158333441,-0.3092450011297678,10.326925819252876,0.5144055361629865,1.5413640907989945,-1.18517816558562,757.8674967921744,452.13277113260995,645.961880266795,downstairs
25.392320534223707,-0.26141629902730834,-0.46828887772812794,10.931073695186631,0.3682350720654539,-1.7087296061580437,1.6994122973013397,671.3858237827137,396.56936306814544,609.5609478368684,downstairs
25.442404006677798,-0.6205098893059288,-0.29926926969328055,10.983439750637029,0.2745932793129111,-0.13168723763731097,0.359758852710602,652.0196518425333,433.97085144546645,719.9001805929279,downstairs
25.49248747913189,-0.8082958273514425,-0.8613749214905551,11.214831852104206,-1.1206834061982038,0.9474323170112515,0.5796292727690242,715.2404147452193,400.5163305770881,617.4324199103992,downstairs
25.542570951585976,-0.7536803202744035,-0.48172481582854093,10.72943660000635,-0.11011878885036583,-0.9323574691453785,2.093995714631155,717.2038041253401,416.8115442289455,644.5396250924147,downstairs
25.592654424040067,-1.004049648613218,-0.2962048863542016,10.231961292208522,1.0314661664904023,0.8142197563166218,-1.2164203697873317,721.8916771243671,381.71923423509367,588.6891712527006,downstairs
25.642737896494157,-0.4922293189870403,-0.315546717688374,9.874387347608742,-0.0970218084656776,-0.33081695552798884,0.04684666624958101,683.7353094446164,399.09155576093946,566.6343235617512,downstairs
25.69282136894825,-0.07733186580940384,-0.26446295936775843,9.625516124512286,-0.5331673333794672,0.6726664734791544,1.7586250103117922,731.8415553968986,330.25767054903616,625.6732266265199,downstairs
25.74290484140234,0.3509616272877544,0.4208696767306657,8.837319830550122,-0.7221721657368857,0.4063690800000352,-0.5504745891351431,714.0115702312596,408.85393597197327,626.0587359143009,downstairs
25.792988313856426,0.6420581956870026,0.42966859525201756,8.605020676684704,-0.6916784514543407,0.38763676060495106,-0.4654178110787766,680.7946142511737,405.65047897423017,590.1773927106831,downstairs
25.843071786310517,0.9441450007440899,0.5401599783108937,8.55735274024304,0.025112527409404995,0.1574861164783405,0.7243620419406543,695.4970186976927,376.388726075477,582.6505038838036,downstairs
25.893155258764608,0.9305654644095829,0.4914374987406758,9.017178095177218,-0.4024009201272474,0.957657333754695,0.891968287941053,653.3772924202664,446.8840345292865,671.2778120518634,downstairs
25.9432387312187,1.0696844212455825,0.18493699477417874,9.516087733954851,-0.5793367528908495,0.41285064139394756,-0.04124959085727464,703.9595265224197,403.3296548497448,604.932484462749,downstairs
25.99332220367279,0.668422029849157,0.0010991697833513392,9.903255972930545,-1.0927119195320756,-1.1603575861212265,-0.21408959483600393,795.0580449373982,428.9033002432903,670.1927595978887,downstairs
26.043405676126877,0.6003886706418884,-0.30320801307972367,10.492850797519939,-0.26521842070059803,-0.05113725573502998,1.7145563254474594,715.0490544513675,428.1738743386081,610.9879048432867,downstairs
26.093489148580968,-0.16471971010209446,-0.5276300607663664,10.850440439442599,0.542055922007863,0.3614326585268041,-1.3850783085658398,696.0675511039051,417.6031938572912,611.2858727055736,downstairs
26.14357262103506,-0.3514397993399841,-0.8053223683793362,11.151025022804157,0.25379233388939065,-0.802608078468722,0.748673288486092,656.4403070952992,399.4098917158092,614.3173780885064,downstairs
26.19365609348915,-0.4759030036930478,-0.48333849293194325,11.087122864828332,-0.06731451495107739,1.490076161543924,-0.35413731826608924,692.9549710549755,384.0541308149736,632.2477764065211,downstairs
26.24373956594324,-1.1505614835235816,-0.7171310742601866,11.284694119371203,-1.2497486139997165,-0.20123123609942906,0.6878918438148703,659.5520897699033,355.59696535487313,596.1749044252995,downstairs
26.293823038397328,-0.8811754010911236,-0.7596418725065623,10.57882965904244,0.11274540122166697,1.0189810916757416,-1.1557201414571663,632.3718446955759,388.3179388563886,649.2304880173687,downstairs
26.34390651085142,-0.5425164037290011,-0.4383587914769885,10.207367488706996,0.10685827307198636,-0.8559074373144455,-1.1324095490623638,719.5497075440807,443.36386445440655,523.3652301457093,downstairs
26.39398998330551,-0.5858838720862681,0.1367240651470507,9.167682863435363,-1.5434770935014825,-1.2614598974783982,-0.519851326565209,649.0810869994355,390.7470342908893,610.270390700547,downstairs
26.4440734557596,0.18233695285885507,-0.03765682368869805,8.930537690839694,1.0235867473136713,-0.7598124263320356,0.9065353834606216,636.1205692365039,412.59549175517947,657.5739459141136,downstairs
26.49415692821369,0.6192510464757268,0.8752990301176349,8.369576965073172,-0.6568170102392442,0.8384376818136898,-0.9788894780092671,679.9935570888963,451.6395019957524,638.2792679264277,downstairs
26.544240400667782,0.9656262959520825,0.3905381253861928,8.495003188875861,1.7959988632745272,-0.037932629432637435,-0.1081107110920165,666.6528413905932,334.04527524226665,663.0225803442131,downstairs
26.59432387312187,1.1720021680843145,0.438714240809188,8.519146879985119,0.19905325757181083,0.08585113526745239,-0.9809820211003789,704.3892213265277,357.36285410398875,698.5150911804905,downstairs
26.64440734557596,0.7498207403250835,0.42954927299986045,9.341721745463694,0.7790472585843171,1.274870258567083,-0.7285689191653745,657.3868780712876,334.3071597170233,677.3959270233286,downstairs
26.69449081803005,0.44809013975053796,0.04563807911348236,10.025844243675715,-0.17802433367388198,-1.2556487415128836,-0.32282716241952414,735.297873352426,415.5674304359365,646.2054003712811,downstairs
26.74457429048414,0.07578870074983234,-0.1807863417846283,10.365426076391161,-1.0291821292661367,-0.023991312942899603,-0.06230721691236785,676.3411063223627,401.15779335371167,572.1556132363289,downstairs
26.794657762938233,-0.28652698563713574,-0.5014160160085234,10.971437971260128,-0.5975164558566163,0.16569602946047834,0.703959343558914,677.3442473448482,384.6834494875771,548.7627412133497,downstairs
26.84474123539232,-0.32014089151386566,-0.42473136306342857,11.24949946871182,1.1149083106817348,0.08203331421638571,-0.05799929883474313,697.00612519244,347.0664929046194,605.1243623906695,downstairs
26.89482470784641,-0.5444136163250094,-0.6605668184199227,11.526397934011959,-0.1273762657133723,-0.21811650789978304,0.45367413786555105,689.6877792992711,377.4389724463529,610.7659822472548,downstairs
26.9449081803005,-0.7024973022942802,-0.5768619686910077,11.513658502350069,0.17811150030433828,1.0789908988719639,0.3700140760428295,771.2614446096154,378.46092279980826,635.3026193148523,downstairs
26.994991652754592,-0.5661705561941565,-0.28075290854067414,10.775355145048563,0.9871972446285826,0.07114384053800345,0.18705536291792618,683.9397851096861,396.6392138447816,640.6733673632983,downstairs
27.045075125208683,-0.897916194701922,-0.3831820804697616,10.048319229674584,0.25006671599519253,0.5814717874945354,-0.06285131819788432,591.7755364998529,355.9370478043281,562.9991676353009,downstairs
27.09515859766277,-0.07080416012679401,-0.1306993746589571,9.427422332795794,0.16682248501893465,0.16672862403651262,-0.04537020141718574,724.9757551547505,347.1074864529813,578.1944978068864,downstairs
27.14524207011686,-0.04968266102770248,-0.18419311524948745,9.004241506601026,-0.9313431568532888,0.7673639174974135,-0.8888254701147906,723.0484160745614,383.6548952003953,608.9211440093375,downstairs
27.195325542570952,0.6448420185327405,0.36509254421802667,8.768936182225195,0.17128258362953042,-0.5014509118056589,1.0946421475162773,705.9774762895909,403.6135963641317,573.7234561478294,downstairs
27.245409015025043,1.122546886562523,0.5167214491894947,8.563985325651567,-0.5982314969937018,1.0040556682850963,-0.7395810267803252,675.705871632754,409.8418134056439,688.8012065815323,downstairs
27.295492487479134,0.6806032673307684,0.5717352650661405,8.563131714817603,-0.7285711164551617,0.4458177828562656,-0.1697911659038532,711.6121786604144,419.6521837903116,572.8279741793424,downstairs
27.34557595993322,0.8897149941319353,0.5482453950588018,9.294527528596166,-0.05561156252720373,0.37562009438316735,0.08217828017422539,727.2858927747395,380.22209201235387,637.091311494596,downstairs
27.395659432387312,0.6215849885879954,0.09637842443370875,9.761137774145006,-0.7471318503166755,0.6134821458100052,-1.4093044241295551,680.6325679737049,371.55364371862856,653.6612392977638,downstairs
27.445742904841403,0.5034868152522716,-0.06963012455305409,10.439876114611812,-0.39726519906676466,0.21876431682542544,0.5977983726636619,735.1329815780882,425.7445871609539,587.4831633409106,downstairs
27.495826377295494,0.2999179884728323,-0.22382095134916963,10.58075291321542,-0.3862363622375748,1.3826677245097814,0.33416220605920394,651.7373430261163,437.1029113675197,618.8227827315119,downstairs
27.545909849749584,-0.0536742105504452,-0.6062108776137123,11.161844310594836,0.2943653109679713,1.3813393942641017,-0.5397147390631392,651.3557840838254,359.7582885816451,590.2613976162195,downstairs
27.59599332220367,-0.4648601733590643,-0.7071263427995369,11.460941983826288,-0.0016684199846199168,0.41478267942757174,0.36591784726385246,655.2468409634697,334.372896886592,557.9650229741262,downstairs
27.646076794657763,-0.8918507375287769,-0.7421198588689271,11.294923354775166,0.48230018900993016,0.27952060367743387,0.5659333056141981,689.789866106663,404.84791590957707,661.4365053122733,downstairs
27.696160267111853,-1.0481031232640192,-0.5452162105950411,11.26850197399164,0.535185399899486,-0.31030467513245563,0.1649239771960426,701.6670438938099,343.9425909841543,556.233578061629,downstairs
27.746243739565944,-0.5358160021237063,-0.49832310232886917,10.095433525784982,0.6134440073716683,0.45580808747052765,0.33089497918266636,663.7894692286442,340.3826728416144,558.4068269041803,downstairs
27.796327212020035,-0.1821525015442052,-0.06267293602068645,9.525649067416117,1.3694406585774783,0.07131969540539267,-0.6103793630662631,701.8787245854635,326.568517777019,602.1288157117135,downstairs
27.846410684474122,-0.18906625659347726,0.15654763604605193,9.034040798237918,-0.22051825744642922,-0.29044992445537443,0.34953245412113754,732.9848463235168,404.34917761200694,633.2794189638682,downstairs
27.896494156928213,0.5396663524925579,0.38420436882631087,8.829692724915972,-0.17642945561836035,0.5059687464585143,-0.24484503591163445,697.040588079566,422.828642014622,631.6581336223963,downstairs
27.946577629382304,0.5996038891870713,0.24267968040377824,8.881149972512167,0.7500982639211102,-0.3589193238961897,-0.1893289352926235,653.2451847445883,365.77067703150556,624.9395270985316,downstairs
27.996661101836395,0.8694034489449117,0.4041686447722677,8.706266783440947,0.5674009419426318,-1.128995512561557,-0.2201623558755207,676.3513513959551,315.47723445091884,633.4020981181251,downstairs
28.046744574290486,0.6143189097383085,0.5635251670449468,8.833525578898662,0.36406253882941836,0.4255119371327299,-0.44321126766979213,740.0576355702254,386.7285160310623,645.1272871564558,downstairs
28.096828046744577,0.7232859952314011,0.2668685885273981,9.85802471828969,0.607180527902408,0.39940089140524065,-0.45145448193422366,734.6391767819216,377.79947150959424,582.7653072051071,downstairs
28.146911519198664,0.28057397580149573,-0.3107391543915197,9.995081144984526,-0.5938197762321046,0.390678885343531,0.18167213997063342,615.1828753837376,394.32877062603865,527.8283492016623,downstairs
28.196994991652755,0.2996007240933203,-0.4934937444200866,10.653543979929388,-0.7641052789387385,0.5864218595934594,-1.2768118554408343,698.4631127815368,350.85939928776713,597.0614045228641,downstairs
28.247078464106846,-0.16428167832561869,-0.32705925825083004,10.781699632525992,0.800673780394814,-0.1481082551997287,0.0038136255457182117,627.6674854208948,391.1552725859964,567.1376754633932,downstairs
28.297161936560936,-0.7690640072780961,-0.5586673415332128,11.042470502316531,-0.7174639477480198,-0.6404574272259624,-0.8145120112519544,609.6232188944816,409.5247050279189,636.4961517919738,downstairs
28.347245409015027,-0.8888954470926439,-0.5304140102960189,11.094400486324657,0.11185955145578504,-0.25502700303233183,0.04498010922641468,694.6665614160684,461.29219314396084,639.1333353549575,downstairs
28.397328881469114,-0.9843178597335055,-0.853140468365809,10.928515567256259,-0.038990988341772774,0.14957355255339236,0.4216368344852219,671.853042667994,355.72492892235545,594.4378766633711,downstairs
28.447412353923205,-0.6103871782188529,-0.21665867107945036,10.574131791174873,0.625157017465155,-0.07410084134510102,0.35493009865852354,661.8003776977057,387.1243961611448,604.4386701112451,downstairs
28.497495826377296,-0.22847870403308806,-0.45715502856424145,9.7954716168683,0.30592109136682305,-0.10984831926771135,-0.6051477174727043,692.1524205003216,343.62413621087194,621.0901030716552,downstairs
28.547579298831387,-0.11658605495393291,0.08166881107175361,9.259406699718767,-0.409592431945559,0.15715968681075568,-0.32003800598487564,684.5844154837539,388.53335369783156,611.0019333864391,downstairs
28.597662771285478,0.2606918731370167,0.3389764898092404,8.57312432832112,1.004252862165118,0.15462607813709497,-0.30758730593962963,717.5936157615106,402.91100931222763,641.3690006583855,downstairs
28.647746243739565,0.4576729615284815,0.5496093884330893,8.351828702060386,0.35002078701342504,0.9936840576956608,-0.054516500452721425,640.3397467709863,381.27777506870603,623.4763085701114,downstairs
28.697829716193656,1.1033864504510886,0.2969244956616674,8.779603265106756,-0.10160394181936219,0.1255175597718039,0.26482584025177247,672.7694347603765,433.9580484272302,558.4154810514581,downstairs
28.747913188647747,0.9522264882060958,0.4034029601396982,8.96077619224858,-0.42739155579166843,0.04723972429186758,-0.8278037101780588,721.3374239827143,405.71513121772495,609.1004048333705,downstairs
28.797996661101838,0.861767884375812,0.5286654590796589,9.04240728987984,0.755649055836895,-0.5707159733087955,1.440073084768988,647.6190162936183,391.87728251644654,607.0187208142139,downstairs
28.84808013355593,0.6220921727780312,0.06269893757560797,9.892276719589812,-0.7235094388028915,0.02031761054824042,-0.5930314021637912,660.7015237549318,408.0539311368303,573.9052010008747,downstairs
28.898163606010016,0.14358325354797113,-0.31347219442246244,10.872347686619074,1.1711712175432147,-0.24445258610559487,0.8964597598307366,668.7405808631968,375.6545190766229,582.4293221654466,downstairs
28.948247078464107,-0.24350651409598545,-0.21380289239408895,10.60475944869654,-1.0897072712764253,-0.5833696615400825,1.8438788947052283,725.0639036194142,355.49658951134387,571.3773781617563,downstairs
28.998330550918197,-0.9088654443994992,-0.4867474335374847,11.39126667042091,1.036288870443875,0.7704393485545871,0.06285286968879035,684.8378199109541,381.0656559726589,614.4252815482769,downstairs
29.04841402337229,-0.5432748366280957,-0.7647304354882514,11.690339546108449,-0.834228045118055,0.0994217919574446,-0.14003489254760773,690.9987310523142,357.20047953853174,614.2661499893138,downstairs
29.09849749582638,-0.9033515121327198,-0.8961370468430176,11.35580961767125,0.07616088042954985,0.21863897588351275,0.06850502592541584,655.1299404121411,399.75238133220523,577.8068845569312,downstairs
29.148580968280466,-0.938458075813719,-0.512459129838994,10.7253669585666,-0.1681140756506107,0.7878833331272551,-1.871330677759896,850.3298736194448,387.5915608722265,610.820193625559,downstairs
29.198664440734557,-0.7673632864764927,-0.34980241412056273,10.478958927452197,-0.07607824986678483,0.35687436224284386,0.23944145051073307,710.0356698840043,359.8939834939219,557.3762898279006,downstairs
29.248747913188648,-0.21934444632514555,0.2771303248242006,9.448956147470359,0.6869324356981454,0.44610762579893404,0.452652107659505,679.8883402830926,381.2614594687812,578.9550320999169,downstairs
29.29883138564274,0.013855105785991306,0.3445850778175997,8.826216375925975,-0.665274659248078,0.19617546131488273,-0.23323330069803974,708.7812608604731,329.8869790313648,609.1554029615544,downstairs
29.34891485809683,0.7603735704921838,0.3109961971726168,8.762872074085573,1.0438619946374361,-0.6281102040264466,0.4903476187441956,647.5079503802609,403.3993546210755,692.2446520412267,downstairs
29.398998330550917,0.4171898656461132,0.4157898315414665,8.467350467530983,-0.11432822758794209,0.29251996692341165,-0.33682049283412707,677.3629200644074,401.2267326406048,569.1968325147279,downstairs
29.449081803005008,0.8712373116427335,0.37346169705517956,9.138163940184368,0.4905963185545843,0.5587793240030501,-0.1551635248911353,615.0802909249064,395.1749773399335,631.5133486043541,downstairs
29.4991652754591,0.5442886763873713,0.23825621001671665,9.091005017767396,1.5968192949525741,0.8191960849658443,-1.0286353620581508,604.8019438621172,399.72354641907907,577.0068325679241,downstairs
29.54924874791319,0.6906983465372708,0.17837601781181556,9.563801387900485,-0.06588348258464873,0.40299465231928744,0.14138926261886162,697.9634726845584,423.38379712027296,576.6163229652916,downstairs
29.59933222036728,0.28514551062781157,0.03051242966091862,10.468215943185902,0.2937170561213029,0.9532856703924778,0.9680706662035506,685.0618021888412,368.5166064193869,627.3876918650633,downstairs
29.64941569282137,-0.02797012867931957,-0.4805673799402251,11.00221886004983,0.724274753220183,0.07148425865311586,-0.5029432350737661,688.9007958537612,341.1681531929827,667.5188750890176,downstairs
29.69949916527546,-0.062428307967559896,-0.40022644733340007,11.235903469410596,-0.9087754541019385,-0.11119183931588392,0.3022848238879477,637.6535911713104,360.968732042266,641.772794002552,downstairs
29.74958263772955,-0.664470324732897,-0.5234554481674343,11.261187185259958,0.061753832434466166,-0.1240813345583453,0.687869611145118,659.4376833975554,365.10898856605587,655.3869974445881,downstairs
29.79966611018364,-0.9801325111724158,-0.662531021164074,10.762808123688671,-0.3285135538709936,0.23429757153971317,-0.17016600601472287,764.9218817978966,442.19141262081484,605.1258815919476,downstairs
29.84974958263773,-0.8224595981586433,-0.6021333309091288,10.82299674990083,-0.5650220522240017,-0.11623707021153025,-0.8725992507661356,683.5170013263007,359.61928041027386,677.6078773753898,downstairs
