timestamp,ax,ay,az,gx,gy,gz,mx,my,mz,label
0.0,0.0738378752079023,-0.018090771315219065,9.962418572030938,-0.25560965249695294,-0.32827558991551586,-0.7715152277269132,701.3471574658279,386.4867821716169,635.3899393380995,stand
0.05008347245409015,0.08675727156239993,-0.11754468945654653,9.892083868673872,-0.2785489929939243,0.2573324190940122,-0.324463945166235,730.5209222400799,402.86103643999184,614.5975690741734,stand
0.1001669449081803,0.08546528048372143,-0.05525446091466006,9.864142914309607,-0.19939209186773205,0.1867360945889349,0.18826867812988402,685.6461862780791,415.8901314455448,592.9383485223957,stand
0.15025041736227046,0.0910407103726554,-0.09603572419553001,9.927075640218085,0.06338889228324034,0.05449642132147628,0.052054852194518955,653.4636240218365,328.776159321398,596.3475214862328,stand
0.2003338898163606,0.10099957819313894,-0.034416814448357425,9.921854157236824,0.04597590240361086,-0.10644611968433294,0.12084385854220425,627.5609651676245,374.02424621302606,670.2198567859913,stand
0.25041736227045075,0.03767687611378547,-0.024927410546012684,9.861802080575085,-0.23824781990953253,-0.41343337446545153,0.42849946176632453,647.3659370968699,339.98632304158303,639.7096372018358,stand
0.3005008347245409,0.06594205567103964,-0.04049492666287352,9.946870689616524,-0.2632560737284279,-0.051164485452097966,-0.361100161436453,611.2963232019026,418.2817473485512,594.757805051112,stand
0.35058430717863104,0.07867447325142223,-0.09914381029828402,9.944017318051152,0.08498634539961653,0.24607101230867665,-0.12557032624946296,652.7879520151696,340.4356283065985,594.3892491668703,stand
0.4006677796327212,0.044572101435662155,-0.010380056221015635,9.978012531391471,-0.3348639430886621,0.4771187105988129,-0.1842234867240151,740.394539978232,362.18204579602013,532.610847847191,stand
0.4507512520868114,0.03422256934015425,-0.0739009203563197,9.925667267829432,-0.1971637152707575,0.11680782575717262,0.4758323932864409,624.5860645810901,363.92770678997647,639.8762446807616,stand
0.5008347245409015,0.08581102428863525,-0.07957182684189713,9.893905220646293,-0.42789234510052193,0.30111240410132195,0.08292314099028464,708.495768883804,341.4919345519311,660.2310699439473,stand
0.5509181969949917,0.13588275096955357,-0.07415955183833714,9.924626177308427,-0.1437251237350824,-0.22934860225889234,-0.011216528429432882,682.0759501476549,355.856722123106,692.9569099257394,stand
0.6010016694490818,0.03697950804934149,-0.039938000089331474,9.910041667861186,0.5179688983001848,-0.4534614465771775,-0.18883527485323845,677.6998741263651,376.5585067569475,636.7764869057504,stand
0.651085141903172,0.05431216518392692,-0.06775381320736455,9.904745697749451,-0.016060010466023747,-0.4626012395734824,-0.08531679358428891,705.9016888281001,310.93995334434766,588.1162584185279,stand
0.7011686143572621,0.12674944814377856,-0.05179746148221683,9.999970594607097,-0.233946683723855,-0.2279370485759569,-0.526888903763853,663.6709943545932,369.87247947542016,570.1279814944098,stand
0.7512520868113522,0.10281011018804011,-0.0812851694101959,9.903229550300129,-0.22442883266828556,-0.3218612528661078,0.1078282029108565,663.4426015307869,394.58932809296965,655.5065103248832,stand
0.8013355592654424,0.06097061390813387,-0.09682665478872213,9.91161327158307,0.4458108602445408,0.061157133942488194,-0.05127591315464443,686.1421503349086,425.21694038216987,595.6512088620957,stand
0.8514190317195326,0.06441986870692126,-0.06040978319269949,9.954729055433479,0.2586202644374285,0.04263692112107862,-0.1842731315600376,706.2466738180746,368.94999293551535,649.4543718945843,stand
0.9015025041736228,0.06097213697671962,-0.025456127234645055,9.878536363474685,0.3372080789046485,-0.24400314676515544,0.08838625589833543,762.7104294031722,351.35442220611145,565.5213882009144,stand
0.9515859766277128,0.032434446630905306,0.020803552851396734,9.934920218981398,0.03779856526980813,0.16087653497126525,-0.11515800433734756,670.4126773322733,389.30010386730885,578.8182611210099,stand
1.001669449081803,0.12100976311294656,-0.07573152189102336,9.93257425831773,-0.19299316633866515,0.3099402417768367,0.12239380778949084,633.952046870517,434.2965714699095,640.3189682746324,stand
1.0517529215358932,0.04352587890644545,-0.010057218868701527,9.92520042284211,0.17416942491683493,-0.7633251640580851,0.0433963868930585,647.1964695962384,391.5100350904674,662.5165161630744,stand
1.1018363939899833,0.06584719872944361,-0.059679526854665814,9.944512099477771,0.048123839197501087,-0.36223989504099136,0.21130187676425793,710.4338963183607,332.0931501193898,722.5786329686508,stand
1.1519198664440735,0.12664780879599613,-0.08079352144679097,9.966556322801887,0.29207750602761956,-0.08018122241562478,-0.09613482541742553,634.1719433956662,317.78642029549144,635.880194936517,stand
1.2020033388981637,0.09040391692013577,-0.08514903931986108,9.946280342671905,0.2072321160351071,0.17751126323668193,0.16195550239433196,687.8916039451553,372.9449975488251,678.2814269335109,stand
1.2520868113522539,0.10682592567853016,0.0030708101161139034,9.944956009543137,0.2226388328201663,0.10481891461962307,-0.24803371783664696,669.586079304929,415.8184502371218,753.921996140465,stand
1.302170283806344,0.052545945418243464,-0.046302012158323,9.9560580640431,0.09637975677459401,-0.31335810005483866,-0.06915990439462795,609.2564930203557,334.8803810661268,582.7073864824024,stand
1.352253756260434,0.06310585018109283,-0.08508880132398738,9.873627887900861,-0.23577321947545157,-0.027065032550917724,0.13644952698224844,686.4208004718511,435.4696256969261,601.2266292005081,stand
1.4023372287145242,0.1004598716424924,-0.06240434587128487,9.912961005551988,-0.3745480955375338,-0.027435934608017635,0.3165560335106314,650.7526514324885,400.73752592270404,580.7706300607476,stand
1.4524207011686143,0.06824871513483038,-0.04677965929184793,9.897441541649496,-0.17563180039794504,-0.00405476927073527,-0.2688457682980907,652.6322326668718,369.3632635129352,646.2712317044054,stand
1.5025041736227045,0.08480172594475133,-0.06419639351795453,9.981214121575015,0.2585370150749685,-0.07363898989434504,0.2474505978089974,661.0017574655246,327.59487110244095,666.8709899089853,stand
1.5525876460767947,0.12605453121187254,-0.023643334274890397,9.916495968007991,-0.10279363418428308,-0.004668738286728882,-0.19785308443006597,759.024520975906,414.0542031755653,627.1422941104568,stand
1.6026711185308848,0.0812574871790715,-0.06758204442530096,9.928461278085154,-0.3934824967163625,-0.2664762586264793,-0.1419079439490613,694.9372546420434,368.070936720582,545.6714535520829,stand
1.652754590984975,0.1412022216833595,-0.09725993018243373,9.846797332549308,-0.3242144797380768,-0.18147666627259768,0.23467202425871292,607.251696121355,443.09574547095167,610.0750931965603,stand
1.7028380634390652,0.06165851228500986,-0.110011662307295,9.92556312797163,-0.2389179324220363,-0.49788835578996327,0.4787599002208846,608.9369350268223,356.47376418716306,587.1981500013619,stand
1.7529215358931554,0.10011732296877716,-0.04731111548827685,9.894999948487326,-0.0952339303878501,0.3236169808060616,-0.04534856657490565,651.8991987669325,370.28142489046013,553.7354376343759,stand
1.8030050083472455,0.1197107084193749,-0.12880736636447881,9.985533795310252,0.016235758566298535,0.39707021641489004,-0.13011547215602376,681.5897533928687,419.0226836645914,607.7662550886752,stand
1.8530884808013357,0.10545454850944873,-0.12538186294330553,9.90637089482306,-0.22848669384789524,0.09683553133823147,-0.3458178571347195,748.331053352073,368.5779107683194,620.1152807363978,stand
1.9031719532554257,0.04737979223754607,-0.04376800123513498,9.954516318361122,-0.31008985381656623,-0.061917265980008934,0.021442420175102464,690.4643323820675,390.702537288646,600.3343435977106,stand
1.9532554257095158,0.11141357496692024,-0.008893459536051244,9.946079742301492,0.14006079746659664,-0.20318031966934155,-0.03728874819693965,579.4513585805923,401.83602745868876,599.8248090459908,stand
2.003338898163606,0.11321419798739302,-0.04661955188230747,9.933604487402796,-0.15490453994280676,-0.07315598858442347,-0.2109095729354113,595.0413697849754,362.5266018358595,590.3135061584078,stand
2.0534223706176964,0.10849647697194495,-0.08115844505072325,9.9032036598878,0.4095093644075381,0.2502586650771988,0.20318018368814283,700.2069544442762,347.251396189628,664.472070449241,stand
2.1035058430717863,0.06738153113546771,-0.06440203791874421,9.91282665852541,0.08739174623628543,-0.2575479175336589,0.3847992502546302,632.9184080026545,379.5408516263366,570.207913600711,stand
2.1535893155258763,0.08497804617144923,-0.0478250944791943,9.914843666009704,0.512002026898763,-0.48772666668686804,-0.35734940559818684,684.0436051233114,411.30210531822655,580.024922763495,stand
2.2036727879799667,0.10782470810555576,-0.025244337213663558,9.904385606198392,0.2673117898118728,0.34214450993189355,-0.21377547457497723,662.5613102635958,357.2691981849768,600.4089376602471,stand
2.2537562604340566,0.12905817189668045,-0.10782189248632733,9.910868785438726,0.08452966918461918,-0.18123999104810404,0.2110532184559226,624.0498947601468,419.3726733876978,624.0963599562302,stand
2.303839732888147,0.09042949957347375,-0.0389539526877538,9.883880593070723,-0.2734125055237974,-0.3855410667860892,0.3971461091172553,576.1569909117826,388.0315114554055,559.5457484404847,stand
2.353923205342237,0.06591530527673001,-0.07786690309866202,9.967622251781107,0.08925993427101707,0.3313783964286187,-0.25141990033049105,699.140652150673,439.6117422976856,624.1306497699564,stand
2.4040066777963274,0.08629268969467346,-0.0716551908469356,9.900695484750429,-0.03167824251797474,0.03829318226374753,0.19699921951203847,757.9692379762944,337.06002551808916,630.6250424687535,stand
2.4540901502504173,0.0804767460695837,-0.11862906470103642,9.932207825157525,0.11785686550663763,0.014788788816165311,-0.09104981595685614,689.9807962349144,434.36522032229846,583.5719805844327,stand
2.5041736227045077,0.07446514793558674,-0.09095835103270519,9.881296917328347,-0.32372235899120155,-0.041491614367708006,0.09573807950074342,678.4636930056214,417.6162478107678,544.5469867311272,stand
2.5542570951585977,0.061532290164816844,-0.048700068515486916,9.957814840158841,-0.1710835408771389,-0.014248611894552392,0.12962690446771102,591.5697063482642,412.9832045370133,591.4198350378813,stand
2.604340567612688,0.04791496373421897,-0.06476106923653888,9.916081768256216,-0.0014035715751406256,-0.07054740906620706,-0.3665736168956273,698.481158935236,386.45485400963264,639.1625635063572,stand
2.654424040066778,0.05725038522247011,-0.06477340560251918,9.91520305063852,0.4161230992725733,0.25158568783950924,0.2910161931881596,697.6652690045701,386.6068840467911,655.1303747658208,stand
2.704507512520868,0.08191052376434481,0.015076532674067777,9.891146501452363,0.1577115476784093,0.14800240198460513,-0.28457613598843484,729.4290755381808,346.51040242156574,645.7006645663593,stand
2.7545909849749584,0.08680282067589225,-0.07183990003870015,9.900686433236626,-0.3185958221912198,0.13446861628424236,-0.2975204778525115,661.0715824343148,394.2600207494751,640.3733852128088,stand
2.8046744574290483,0.07463314152248786,-0.05660893487492894,9.89511547293871,-0.5204574674385903,-0.34822424697658694,0.07786975105408202,646.4648034580896,382.53270833093944,670.2203068483813,stand
2.8547579298831387,0.06273465365740383,-0.08805652654329701,9.868213409548531,0.044347246559068375,-0.10799382285578323,-0.1668346747706063,675.0456670718628,399.8035789919618,652.8219365312285,stand
2.9048414023372287,0.0739043898989661,-0.0822851976578762,9.860700342755997,-0.17064888155034982,0.18804547589920514,0.3034130524859444,712.0960401243103,319.2250293849577,654.5964739473924,stand
2.954924874791319,0.08159125629199666,-0.06713724087538005,9.878036529882392,0.5363942740124347,0.45178956025714745,0.3451757683197339,698.1175606721113,475.5170576009401,654.7587880363843,stand
3.005008347245409,0.053088400119256314,-0.09167013276425542,9.889206233160527,-0.15206390223653227,0.023653593487309325,0.22171321327954338,637.5409521442907,365.47771097541784,623.9323154526828,stand
3.0550918196994994,0.08417032918711648,-0.05877686343197477,9.913717479840708,0.2514059673121461,0.49925173107703336,0.18945434082247978,609.1206137413799,335.3626370273782,672.6032534032717,stand
3.1051752921535893,0.09931926869608262,-0.05885946583555039,9.990663203419551,0.41820915971240963,-0.41437971430647413,-0.10843556232800868,583.5950681179601,458.3503546504609,692.1985724419745,stand
3.1552587646076797,0.144109002798527,-0.04371613242705926,9.917572551798825,-0.20203432877805264,-0.6421376974842715,-0.10326285459369307,729.7994003497962,379.3141168546756,614.9092483080211,stand
3.2053422370617697,0.12220311832363787,-0.06279940198800162,9.946055945143582,0.041329771530047056,-0.12582085417938235,0.2634176994136358,744.8289074686852,418.22494855818564,614.2763783128211,stand
3.2554257095158596,0.04646817815139922,-0.09696207785171645,9.957840589109889,0.1279052624997907,0.24105061616982243,0.027881486875021625,647.8830623827798,441.68226185990954,642.6852706402619,stand
3.30550918196995,0.10681524432721651,-0.0963461753039512,9.878542086415184,0.10162312570967878,-0.3658963443819302,-0.12147110270901622,687.0031903047945,393.9879506462338,621.6358155343308,stand
3.35559265442404,0.0909288565334614,-0.05948531384263403,9.939657586465872,0.020347055397274928,0.2270921395659153,-0.0642062963849634,682.7684491888708,413.96366686616346,609.9177277597263,stand
3.4056761268781304,0.06864007666128846,-0.046058126147018104,9.881837872192676,0.06708029902066542,-0.030997572451131848,0.18373220072839824,673.5897127143393,330.4819813022057,617.1641965393388,stand
3.4557595993322203,0.11544381965789952,-0.07094602751542564,9.951076947631744,0.10274212429557382,-0.022254304824333136,0.17187193695967948,684.5961385935962,384.5706135018768,556.0133933665376,stand
3.5058430717863107,0.07191255849899116,-0.07951032532615995,9.920519093627686,0.13270995385159487,0.2570483654463694,0.017927070629591587,616.5916285802514,456.2627548012506,661.6888668872454,stand
3.5559265442404007,0.07821808971982859,-0.04804346693042181,9.95179510641961,0.3532853102238762,0.4943345894364083,-0.2719617564563756,691.877017116912,311.98135903950816,633.7154523234495,stand
3.606010016694491,0.05559599367930694,-0.01577502509323323,9.915855088064284,-0.17850803805060728,0.016782892685366528,0.09069930532119597,662.2470079485978,389.75387600033304,648.3169946337217,stand
3.656093489148581,0.09307794643295134,-0.04758304422926764,9.915691598975586,0.3538453547841316,0.3654430817865761,-0.4137139192292187,683.8320754504367,381.50713884912886,707.8066354451358,stand
3.7061769616026714,0.06110222594125606,-0.03595317310784256,9.970877688766942,-0.15220515953317765,0.029988372413440254,-0.7729528773771737,756.8727911615322,340.1068818746448,518.2486896294604,stand
3.7562604340567614,0.09908548245846344,-0.07047071514860144,9.890901506213366,-0.07925545701725754,0.3065728242595193,-0.08425372192963618,698.5908078957788,437.4958556782673,588.9294016843021,stand
3.8063439065108513,0.10993593627758311,-0.06634672336914975,9.960495292834727,-0.2842219616938776,0.18377059088466607,-0.47796659265707025,591.1591575486271,318.6567949260484,604.4779145178917,stand
3.8564273789649417,0.061968563875911424,-0.0899248489755146,9.952732061877207,0.14695340778469956,0.26180508354212634,-0.014869069493153706,699.3976235645362,364.38210740931476,555.887177651769,stand
3.9065108514190316,0.0625131707455369,-0.07118943636609212,9.994068891403703,0.4393478525187045,0.1875668413873959,-0.2630061458132294,617.2643076930538,373.3145436584554,639.0740728118362,stand
3.956594323873122,0.08538924461492975,-0.03439634279449395,9.912705700063176,0.05886346572302226,0.006668147887432436,-0.10816235175447912,700.7130363158675,373.4163965505402,597.1116278767634,stand
4.006677796327212,0.10508099546546035,-0.06923781201642605,9.912838200872885,0.08053710485030492,0.33558605387527723,-0.23387210121498303,756.0379050794938,303.8254955385782,551.0570425537458,stand
4.056761268781302,0.12076024120703603,-0.060252654029668576,9.894871676407881,-0.15163680019591305,-0.33348603888843864,-0.037778503076989926,620.8682225631946,394.5235316865586,651.2209149608509,stand
4.106844741235393,0.10478175600947132,-0.001635069187776006,9.845463757010759,-0.35273360882433075,0.11477961787449356,-0.04864977732783807,719.1052168037533,367.01207356150144,622.0720310540154,stand
4.156928213689483,0.07210425243492419,-0.04362582021276397,9.879639710475328,0.2243246303723295,0.3800228630852158,-0.07555684977748515,720.3787837678923,421.65480683588436,558.3546326368114,stand
4.207011686143573,0.0601154300077784,-0.06201865109307621,9.942668540199055,-0.23277462842975763,-0.27256964274404105,0.18494495618883153,748.9835334722477,346.8317040505996,585.1823779077289,stand
4.257095158597663,0.07807991595233091,-0.07607606987569522,9.932778051236323,0.414668757891719,-0.08392690880178492,-0.27861542132561495,733.4231068395956,360.28260094737016,655.7030512482754,stand
4.307178631051753,0.1106026410777687,-0.06369344778591493,9.903105830827853,-0.5486189555376404,-0.28444257940053463,-0.02174528651061507,682.8000313005178,324.8708178284046,640.9876204572961,stand
4.357262103505843,0.14147036073804586,-0.10213686318198603,9.927423118855112,-0.2644333137372232,0.5478650527503706,0.32189338261931516,671.2038559577777,371.1120778448193,619.7480724493157,stand
4.407345575959933,0.10143475706610262,-0.0307422852135195,9.919483525793815,-0.06581209409900138,0.3581457037287039,-0.17330646575037298,723.5483609564034,360.81074788095634,624.8731529700053,stand
4.457429048414023,0.10445170566804075,-0.0789442257364774,9.93843477711686,-0.30789625075960625,0.07653548027834926,0.1483387479584448,749.7773021445115,314.393723964998,610.0555951749134,stand
4.507512520868113,0.05754828351463094,-0.0803338102109869,9.89711621044111,0.12779762963715102,0.23096877714476008,0.03387396506516778,728.9058666065314,409.21401520694576,673.7743868341652,stand
4.557595993322204,0.09822244857249372,-0.03864368666800609,9.904892261318373,-0.02473538466159192,-0.3759496937530844,0.30934963274687927,629.701432239824,396.596651722117,535.8361755296324,stand
4.607679465776294,0.04290118835422654,-0.11872961626412859,9.947176867595081,0.04833932375903876,0.18930250409559612,0.14716789958996848,654.9607310921322,413.2867396947038,605.6441217998265,stand
4.657762938230384,0.08193129567182897,-0.030098966542181377,9.852068496451569,0.06993397819261876,-0.09548840055993252,-0.4447193869288091,687.7924816512788,325.2317037197504,597.8530050496444,stand
4.707846410684474,0.09383161354629797,-0.06606176388157231,9.939349266074522,0.08603920704163569,0.050860748411731375,-0.010748313985402914,721.2611541660445,392.5525092918397,609.4015407485937,stand
4.757929883138565,0.03412386275145637,-0.04475090944814893,9.92976210873638,-0.27657785136419,-0.10589079185967644,-0.2836183760543094,675.606805643593,278.1048150236811,523.455609958377,stand
4.808013355592655,0.07615863657630013,-0.04413122749957933,9.89196084456622,0.12047689301480098,0.13330447766460754,0.26935151435154964,678.063946224227,320.2770600742067,622.8559641314102,stand
4.858096828046745,0.0318535316243558,-0.022670957104468807,9.942535387504202,-0.008652718382680547,0.010022673576516034,0.16775025717778977,669.5294650013825,371.34055136726346,616.0168875722898,stand
4.908180300500835,0.026450466132647087,-0.04532802438960058,9.923182041411115,-0.19659226224857282,0.05097621418816236,0.26931159966584023,629.0423497178242,384.4219741355245,584.591192892543,stand
4.958263772954925,0.09569237371405401,-0.06132061090112708,9.95222290616853,-0.5166583273795071,0.21628464505079126,-0.4065939200662974,657.6037781609239,350.9462847754364,657.2547419430142,stand
5.008347245409015,0.05550536862710315,-0.056990762631184244,9.937140240448704,-0.00855024919285034,0.00605510272685732,0.2203340368290926,666.8698710433957,389.8352588271481,688.5407722183742,stand
5.058430717863105,0.0871523932470732,-0.030771256222643022,9.935560844376626,0.0775863297640959,-0.10670917722254292,0.11759487301629645,770.521003507158,429.719597738796,631.2177693712224,stand
5.108514190317195,0.038067487531467374,-0.05475130581517232,9.915930320718656,0.145000136678761,-0.2462116894848863,0.1940387402370786,665.3917142669986,355.13956016122427,630.9193575738597,stand
5.158597662771285,0.02884828947227923,-0.05780057638468799,9.907872976496092,0.27857444634110995,-0.127444375530804,0.08694097630598119,734.5586650237391,356.00117077610435,692.3628567100486,stand
5.208681135225376,0.057111998258530125,-0.03523797997474011,9.955268504835256,0.11267961057513726,-0.12954918329440898,0.1831680033446458,676.9595253042028,398.66027053019883,600.2971585401945,stand
5.258764607679466,0.1051392855445,-0.09243579247904628,9.887368525526114,0.04428466342440572,0.3614448055452468,-0.11965769615470855,668.3529542151799,354.6536333243665,633.1625899340303,stand
5.308848080133556,0.05119092204860967,-0.0709092647838366,9.942823795972739,0.022225894111132957,-0.013342089541368602,0.25140740238642484,649.6101438985773,366.20499456899745,601.7160830765783,stand
5.358931552587646,0.07309707489472422,-0.03130076154868073,9.887405783365464,0.11349843440619431,-0.10588051759767605,0.08358227634373198,676.2052544355682,362.0568559760921,625.4506988623307,stand
5.409015025041736,0.10852520125558124,-0.08084323814593068,9.875705054939493,0.47804230733460296,0.08590988085987827,-0.0944588568825422,760.3399371488481,336.2928225803232,619.9992041704879,stand
5.459098497495827,0.09115406256613873,-0.06998098601444398,9.931445909630781,0.05362309875209412,-0.10456016328357619,-0.3912632339018196,650.4779854561232,330.6010567912376,624.2491803990622,stand
5.509181969949917,0.12150770666721705,-0.09189194284009367,9.909657823572182,0.3634283953352177,-0.4105580442391118,0.4715017783494338,642.020435901073,302.84500366441205,672.5289284662554,stand
5.559265442404007,0.0551028228222237,-0.05336244196714315,9.96947947093338,-0.009188069169291407,-0.23723471107511307,0.10011989886839023,706.0946434380635,370.30094751914294,658.8512230816336,stand
5.609348914858097,0.06579583148792803,-0.09989211494768538,9.954557859854194,0.10932909958445522,-0.04184867928853299,0.32270189454133047,693.7092448761205,356.02090184327716,648.8092227262697,stand
5.6594323873121875,0.1152951468526024,-0.042042292500668065,9.870269671660548,-0.2934987838963297,-0.20077021319984756,-0.2214872232345222,678.025278411586,384.7992640331882,609.5070490208584,stand
5.709515859766277,0.13214327626124486,-0.037886204314594066,9.945083140271777,0.16694043792716207,-0.24664246803805898,0.36616186205395707,699.2810738260703,355.58519595849106,593.2730214863554,stand
5.759599332220367,0.10672617741697878,-0.044223408429713645,9.920322868464009,-0.05614462866437062,0.3488014571220444,0.06404286019711154,755.2266771304635,375.2196498278627,626.6791031073458,stand
5.809682804674457,0.08861674383982862,-0.034326009269036735,9.937738669103892,-0.2286132816880109,0.44364034925840906,-0.4062900143659016,635.3675950470054,403.63118676633457,621.8628166967061,stand
5.859766277128548,0.07222768499921234,-0.11762903000711808,9.895793383290576,0.08060204335616586,-0.35019016231851174,-0.004204889108783613,778.735210548389,375.02596746385467,567.320944643259,stand
5.909849749582638,0.021580529944618156,-0.020470737390069473,9.97531767191234,-0.09453973480736447,0.17575162300635622,-0.0826174490114845,669.2607020197546,415.2464923553023,578.4011039421588,stand
5.959933222036728,0.06941217929159771,-0.013221310052806058,9.939208261425131,0.20261088006258077,0.16431120951909134,-0.24368637666410028,666.304949499621,437.17998918069395,623.619524424225,stand
6.010016694490818,0.10231782717628493,-0.04080667257757356,9.892496869882166,-0.10262065869139791,0.42438297348788506,0.10810169971792485,601.7100551578691,412.71650277851944,508.3008583382812,stand
6.060100166944908,0.10242715636754833,-0.048762868340192195,9.932578190125572,0.22309424670032846,0.27059333467163443,0.47066954749891515,762.0439339093635,335.00471069506074,641.5378110550688,stand
6.110183639398999,0.06402219535289287,-0.07572546704558945,9.894503864911666,0.31961479785530744,-0.2933107363652664,0.13049084610516323,676.0660670545819,370.81687898527287,623.0112214151071,stand
6.160267111853089,0.09777205617490514,-0.08411306157186704,9.916957132815286,0.26481020156714363,-0.08388425673109565,0.07792715948398912,690.5607780691563,331.2945366920285,606.2723381552504,stand
6.210350584307179,0.060927879496491,-0.04602849616997448,9.91556421682588,0.10396502066415345,-0.030266193231956066,-0.19033772723063958,659.7322314964648,430.7115870711438,547.4859869348268,stand
6.260434056761269,0.06995702759403194,-0.028601378406554363,9.921533756576267,-0.3595007411000388,-0.029361450689505922,0.06621755293258073,750.9444784042541,338.6039603145588,575.2066573602631,stand
6.3105175292153595,0.08992150882181772,-0.09344443841183425,9.926593524548325,0.05632513682943686,-0.07169817141103353,-0.20663555282708135,688.6146452814521,338.97042091760886,675.0835518421583,stand
6.360601001669449,0.07460914036456834,-0.05039578369352268,9.953238165699931,-0.3120431439722321,-0.020511532697335737,-0.11528625382257322,725.9998209866454,345.646165716997,557.6241462721131,stand
6.410684474123539,0.032041046005890764,-0.10020441343018566,9.904312632636302,-0.07077187971794058,-0.247788324108456,-0.08123586405818707,724.5794183321365,355.3549502691212,665.984481342876,stand
6.460767946577629,0.10649003819426761,-0.07035470750074395,9.907556175347247,0.050861769210298134,-0.2732221811078892,0.019910267863769045,625.2541015044962,421.4996916232884,582.1177622382266,stand
6.510851419031719,0.12127747251074535,-0.08186654584798916,9.945632772815658,0.06994587171612236,-0.19216965084066645,-0.02692717555339554,703.6956489686456,398.60145997173066,640.386671575475,stand
6.56093489148581,0.05449345521433963,-0.04114261451882535,9.914282674777564,-0.2730147541362722,0.548968619634244,0.1589191329863368,631.5186109409822,415.6253473972493,646.8150423265541,stand
6.6110183639399,0.08120026700346217,-0.014818172740777742,9.95835526258855,-0.10180362340161643,0.09114285144130334,0.19331427022628128,652.9085164295207,409.7345822348941,634.8103399047485,stand
6.66110183639399,0.024416840231160516,-0.03978244664892057,9.865855260689932,0.06255753066161526,0.3522659322384423,0.5998982180384355,719.2358810808031,384.2141647497235,618.7937807732054,stand
6.71118530884808,0.08309826265633503,-0.11169429936498355,9.918986917449493,0.0428714309997127,0.14234954643830175,0.23436638973260335,665.7292175011032,484.3802637177587,654.7704957834804,stand
6.761268781302171,0.10361601038845063,-0.06190914966001887,9.96147627226722,-0.015217771663466266,-0.5169899525085417,0.015033223910288133,692.1193242872175,398.79040015847755,633.5752790756551,stand
6.811352253756261,0.10566825761837098,-0.013563547230217646,9.901575560564453,-0.1292859607343261,-0.07241600346900463,0.4804348960019007,711.7141942941261,330.4961402094023,598.3764147035461,stand
6.861435726210351,0.08102323085135285,-0.025548358257132364,9.948575606119295,0.20702736614501543,0.5168107138729406,-0.055411901140800635,719.626177932287,415.6077824672294,645.47686190099,stand
6.911519198664441,0.058568290956856804,-0.06382125101664658,9.843828914156969,0.23827591936474926,-0.15925586951920206,-0.41735895591603334,645.7425012976003,379.20370761775575,570.46001039412,stand
6.961602671118531,0.0934734701440254,-0.013255483407908171,9.929776825869551,-0.3661485419055733,0.5728527159485179,0.3235183977842435,659.3241257727664,325.21554649967555,547.3710608166193,stand
7.011686143572621,0.09046005745965058,-0.1068466923186552,9.951008262065717,-0.012564666374257476,-0.07274068101087844,0.26879920460074624,619.7509132851701,345.61460830659735,611.234342069811,stand
7.061769616026711,0.05058090433536953,-0.08549813823610782,9.915524636639873,-0.1298401612871051,0.1724741274557844,-0.20636656367259207,797.5508119871129,408.16796136228066,664.5342269902786,stand
7.111853088480801,0.0775655218988412,-0.10744316217197475,9.945350465494037,-0.13716284476190072,0.03198117565973372,-0.08582799633043409,661.9201356905643,369.4599009001006,585.5691478225779,stand
7.161936560934891,0.06418474284061998,-0.011724721267770265,9.906219861185736,0.017307945747142343,0.16161733708924395,-0.03770803184332382,691.494449895067,357.84688069408986,584.7787790480734,stand
7.212020033388982,0.13263076108562816,-0.04411757197175922,9.93325650744446,0.2533145620149277,0.06305407365689045,0.3009725083904913,712.0166519892075,374.4214964187461,586.7916419657088,stand
7.262103505843072,0.10832594320532815,-0.08083606110743147,9.93152336714608,-0.03203363779003475,-0.021600065571873522,-0.012622467692283666,670.5009914534752,408.5759920868788,635.2310187588989,stand
7.312186978297162,0.04155769637569618,-0.011408763038182737,9.931990204166032,-0.4255401714764684,0.5832629338072403,0.17490407445882897,740.2297213082683,395.3666810059854,608.8442418410776,stand
7.362270450751252,0.10376160863986451,-0.1228575576264808,9.902660886011216,0.19334290585644373,0.07263646724357829,-0.24006750691648765,679.4675250392149,374.3500416824719,621.6470784250085,stand
7.412353923205343,0.0375198981178524,-0.09695995102722163,9.917282284680686,0.22347626931644127,0.2793393277920094,0.35356179428308454,641.3538539380987,432.9517100856018,598.9294909823457,stand
7.462437395659433,0.014686016249563283,-0.07429142297882314,9.857725078621728,0.4004706143533632,0.3063527108046814,-0.10832772149728818,634.974436265546,402.6250040912647,693.0343598719305,stand
7.512520868113523,0.1042518754637371,-0.11163594541832952,9.956195162241121,-0.190648175128279,-0.0885233119761867,-0.23061842363729282,679.3020360902345,397.98843534089525,623.3523272399785,stand
7.562604340567613,0.03369916988511138,-0.10727588116961333,9.942800047518737,0.03955788416543941,-0.10694393014679174,-0.14424815348341535,587.6620644410345,389.1790344091317,568.2791674626035,stand
7.612687813021703,0.06870212843375786,-0.07798184680983572,9.881387683266617,-0.20649274618219726,-0.3158916854165795,0.03962186459744711,599.6492426934445,387.04383368664287,602.9208791552378,stand
7.6627712854757934,0.06755466945470123,-0.060756484929634993,9.94900392178961,-0.42281829425765244,0.16430859449416818,0.39354908255048576,700.5062266068816,389.8720970179486,630.8068995526669,stand
7.712854757929883,0.07560973279150386,-0.07628301510900051,9.963941555959634,-0.017439379738474207,-0.2034777610035465,0.47751062949406753,666.9897905694979,356.15103801612844,605.0795998705693,stand
7.762938230383973,0.10397326115355456,-0.07153170158659163,9.881650427287347,-0.011253011468640954,-0.6427901490197648,0.17955575829780232,681.5325766201728,429.27454316201516,568.6905307295194,stand
7.813021702838063,0.06351080075063131,-0.049248541897775555,9.96125550696823,-0.5588007526066661,-0.0765745693056903,-0.5315379504404353,588.5572982892877,364.2257895329774,631.4414757373019,stand
7.863105175292154,0.08043861437683587,-0.0212891195392398,9.94607359795857,-0.014277631071242889,0.19066248634824753,-0.002219460064419308,716.777060424944,380.2781863796386,582.8460407375151,stand
7.913188647746244,0.01820027992858786,-0.0772896205858701,9.897520239165335,0.3051232547653355,-0.05204172348232352,0.06620697239243992,667.1998330770842,423.9638437657581,635.9994915110069,stand
7.963272120200334,0.061254085302713125,-0.04704820196818722,9.894415133775313,0.0702030879626661,0.5975943442112998,-0.174287469804521,674.9726432410433,327.1970824070334,664.5335108817734,stand
8.013355592654424,0.054427484669687665,-0.09041070304764323,9.94257259663432,0.21051742417897454,0.2166567473515439,0.4043232845427561,661.2950304908057,396.1408733967806,669.2182583329168,stand
8.063439065108515,0.07684431135310082,-0.03838790175400234,9.931643978601251,-0.16195704772540256,0.17850939537701185,0.24016460233701337,711.5848579337962,429.2340839532968,613.7433814650108,stand
8.113522537562604,0.06044116777260933,-0.02908626492737451,9.896443627641359,-0.11502147907649762,0.10609345445695517,0.02512728720291222,643.542963299024,406.83101497226465,627.3167380498468,stand
8.163606010016695,0.08128781216448745,-0.0734858210831045,9.895908870036841,0.12465145592223315,-0.11052872162685488,-0.08472724448097078,688.528521901818,410.9330195749846,649.8591747356453,stand
8.213689482470786,0.12272383468722312,-0.06806434527378315,9.951763829529524,-0.0740795200990891,-0.05865698983032281,-0.06073223642185165,656.4071325943622,385.29532269131647,611.6431923994195,stand
8.263772954924875,0.06649974098348314,-0.05100166139407808,9.903913489421766,-0.4722511088053624,-0.1848558769187524,0.04203843609904227,772.1550190295818,410.57625087332104,639.722098449576,stand
8.313856427378965,0.057061854549936356,-0.04126468299204346,9.942701955836041,0.16005103870375545,0.014159725369272456,-0.09044823789973401,681.7068955476244,363.34200414010985,577.287649594301,stand
8.363939899833055,0.05701214838783612,-0.027166310805062772,9.911196361210893,0.4360307389893297,0.1566792204112299,0.17598593868531223,645.945175224571,345.2476852691573,587.6719032089438,stand
8.414023372287145,0.08383042664256793,-0.049098760330087754,9.897966924387678,-0.2667161126149412,-0.3390412500960526,-0.13598695448149895,615.989829912796,364.8265471209017,640.8954486108003,stand
8.464106844741236,0.14924102039554488,-0.06429048893923864,9.93392400634298,-0.20317538098909535,-0.0326476315354749,0.2801118107085096,670.6159618419078,375.9460453527382,600.1511235658281,stand
8.514190317195325,0.04726629895667682,-0.08472126529941795,9.895071265681313,0.5170025326498325,0.22980770975689502,-0.018261861306905835,668.8275528703687,383.278081385255,578.925607488636,stand
8.564273789649416,0.1657400801748809,-0.053906956393229725,9.910749109104529,0.08917049194106506,0.09757267611308669,-0.12020042765753668,658.6940594283204,392.99211863156245,584.1922176705048,stand
8.614357262103505,0.08970102853398114,-0.031168882857314156,9.947601792153081,0.05200496293406706,0.1748778208936905,0.3132281148800906,738.8916614982174,385.21188840546097,589.7015373611218,stand
8.664440734557596,0.03489843185559017,-0.037756570668307954,9.980810261145077,-0.1266182341680856,0.10549126466461382,0.09578434935770998,728.0934582990321,365.2779526874238,559.3310065560828,stand
8.714524207011687,0.07272084030117305,-0.08122261062670244,9.91879533956634,-0.43021109443855843,0.18473582789508158,-0.25404059508966387,700.0081777208311,312.734461136622,660.6244588601131,stand
8.764607679465776,0.11356468722919502,-0.04037381713624616,9.918817767394973,-0.08578896610117835,-0.07886837885213531,-0.342395766790263,772.4403014745419,352.08295072943565,573.1865432304082,stand
8.814691151919867,0.06808400432533127,-0.09945417073810162,9.984667851312878,0.13925326831954465,-0.37922129429635265,0.23822687519189414,672.8770121693849,456.5503242557252,648.7704444103639,stand
8.864774624373958,0.11217641088488287,-0.047913770961817516,9.904925864067804,0.014571227353338335,0.0972106405722632,-0.07702053469084613,720.9871954537551,346.36397382708816,603.4808042165968,stand
8.914858096828047,0.12328277776492179,-0.032204103468077935,9.926261019230266,-0.23009542948928363,0.15746327998022638,0.1574425496064804,551.8648181633848,360.53892144662746,633.1723341318452,stand
8.964941569282137,0.07690333627813113,-0.08094049606558563,9.92038608369571,0.08316500392221454,0.6346057965452573,-0.052764411420033436,600.5589518016216,371.65022120721943,667.5830436399423,stand
9.015025041736227,0.05267812885573979,-0.04911247180489649,9.896805610089126,0.2355900195819998,-0.3977000324184082,0.004711244453923856,607.1223601401815,430.4298478961576,657.8790705467898,stand
9.065108514190317,0.10667558074572549,-0.029622897355642892,9.919538630892966,0.2634870361348405,0.005335095512209527,0.24287543455047053,725.0816920912125,352.8940655970772,610.0653146840536,stand
9.115191986644408,0.11149949628391267,-0.07577396963223088,9.914948991216056,-0.06073026461129029,-0.03177731453528827,0.19721957442173466,722.6697587816961,379.89449051425333,550.8174889986708,stand
9.165275459098497,0.035310555001567566,-0.05466345835253169,9.978306063451766,0.22043641121283974,0.5369578629453868,-0.3762564201832825,689.6368503406992,400.46724485710683,615.2663203997681,stand
9.215358931552588,0.06620364896828031,-0.023625620026203477,9.98424752283005,-0.25260015416044296,0.22082547227367338,0.1284302647174289,701.446683269982,402.05552766380066,643.3879589414267,stand
9.265442404006677,0.08014306208922035,-0.08320028987992586,9.92583006341762,0.6547215080073738,-0.2003971054581282,-0.4322504964079282,709.2673516043905,391.5877516081588,682.2145468238996,stand
9.315525876460768,0.10424510634541165,-0.03991534645075902,9.96169687589166,-0.7269739270109081,-0.1465164281827864,-0.36905012853075814,669.0735841968066,374.0861049353755,597.5441577958915,stand
9.365609348914859,0.13628374883079775,-0.10417128000340381,9.890600712495655,0.27330960378672203,-0.568310757917552,0.38994709767004176,691.0767361409288,388.22822975093874,660.8970593015312,stand
9.415692821368948,0.022526885888667546,-0.030927961207426906,9.910565838200702,-0.035795868671005746,-0.13825720924516313,0.12692271889553014,704.7080198173531,364.92778886187295,640.7115246141833,stand
9.465776293823039,0.06477005788935866,-0.08288743518383639,9.919315558340342,-0.21444805903726985,-0.017006324926756498,0.5288730342598206,666.7437629931824,338.76823120733786,665.8946211493052,stand
9.51585976627713,0.11134796626613352,-0.03323836201249815,9.943176759695428,-0.312108393204423,-0.23707632575144247,-0.06958888873399012,624.4128881213292,426.74770452695276,620.3369457898168,stand
9.565943238731219,0.019849221671108683,-0.06867658918713956,9.91491402293422,-0.07735084048549776,0.12471885442519448,-0.39594127222067993,601.8895050334575,366.9931875607157,614.0302998237343,stand
9.61602671118531,0.06381526995005429,-0.11547070618528378,9.895187388838064,-0.009169751354886277,0.02375008416238392,-0.32674884243746266,595.4334645689465,384.15063585008755,636.4630670073172,stand
9.666110183639399,0.0872050207707521,-0.08315526125645192,9.898080938049334,0.13662838311869321,0.09289683416531672,0.1479995601558294,681.8735663637159,403.5685445768493,621.726077155616,stand
9.71619365609349,0.059860594753099516,-0.062198008647888804,9.885762944904803,0.3694493642157238,0.526464231052655,0.23726765908325456,697.1614680621683,404.0916529852826,615.5524804774341,stand
9.76627712854758,0.07582050151124484,-0.09810193964804872,9.87911868988626,0.13800526724312345,0.11167265534500612,0.523707187445651,649.8025440540396,390.47792322695506,596.4104276923233,stand
9.81636060100167,0.0654436194386317,-0.07244414536518598,9.944729831527438,0.29315449651738174,-0.10990862839581074,-0.05634449184928436,674.3770569512509,421.01664234711086,576.5005559592388,stand
9.86644407345576,0.08529901389749733,-0.04327720127827146,9.935041304655678,-0.4195813775179499,0.2995564123336389,0.3308878628878753,644.1136178812033,407.9985906196203,627.7233530310543,stand
9.91652754590985,0.11479455187746818,-0.09750809153134174,9.924721813344567,0.5996747888230859,-0.46396322137050056,0.21385287522823562,696.194538173411,416.94710972955136,585.2404907885835,stand
9.96661101836394,0.10208044931273487,-0.05946789131914023,9.94310675353166,0.20051208540858945,0.35425227972991447,0.29290298080730504,636.8782006016474,414.1809501364234,719.5951858435301,stand
10.01669449081803,0.1325959185757456,-0.11175160257469333,9.89117110274358,-0.05172010552815862,-0.2760722047418809,-0.027447244633799637,710.9613789292667,365.5031454393281,593.9996518004642,stand
10.06677796327212,0.15028147551759835,-0.08403042194403229,9.937236410500596,0.36278441324716826,-0.07134134222744089,0.3102058104376651,794.7665537334756,360.22869286217946,647.5258057773207,stand
10.11686143572621,0.05245079798206963,-0.05278598831652992,9.953123457418101,0.10809573622188802,-0.20131059217421182,-0.09619188163748035,661.2104121435532,310.56647007648644,621.3527947744255,stand
10.1669449081803,0.058689273458077534,-0.01237894541070056,9.917134480125908,0.19021456327123687,0.09740942342414895,0.6111798667411438,636.56566688998,447.69247851603336,582.8199417596024,stand
10.21702838063439,0.11356309500023004,-0.03596239305974898,9.9097029734491,0.21516291042640556,-0.1232122474163972,-0.06382061186397411,700.6379781121681,433.43522476184023,657.0037943717061,stand
10.267111853088482,0.06153872456867433,-0.06937026039773506,9.938928742290067,-0.5150317651058471,0.38427452272945045,-0.28007392104674195,635.9826514734111,361.5672209166482,580.5354892839064,stand
10.31719532554257,0.0828383787886869,-0.11970050832867937,9.906648868911379,0.1268543650101,0.24915101754656768,-0.4303904932545301,685.9344685107549,444.6035291087983,646.7434641212691,stand
10.367278797996661,0.05413532325329898,-0.011126403397375514,9.900116670182053,-0.2383822550758088,-0.06252761166271112,0.40045077924203626,655.0046014861758,382.5591843042152,642.8271106934361,stand
10.417362270450752,0.0940089613142042,-0.03225930480360761,9.887634089604209,0.015592182033431606,0.21904280344715,0.02159300424768047,708.4341812107082,400.60005069253396,650.6216954799048,stand
10.467445742904841,0.12179152841183508,-0.09946613409811267,9.964323721714042,-0.04241230109076136,-0.04080931148291272,-0.28754746765719635,699.1369984084004,378.19527198766696,574.0757868287728,stand
10.517529215358932,0.06423243237237372,-0.037636802560392965,9.928436262013623,-0.255457867886437,-0.17544493438670736,-0.266770663258348,652.2502312102267,349.3558234786853,582.860307213987,stand
10.567612687813021,0.05649634143111294,-0.03360469980102489,9.951307486504328,0.2986086076220243,-0.19379218306919743,0.1908486385436652,676.3986531866996,434.85297232894504,614.0515291473031,stand
10.617696160267112,0.075808699950351,-0.02905345959204498,9.91346772672168,-0.007235001281781506,-0.30910272250793075,0.12465003253899735,708.7893319303317,414.44056027919396,618.0948487040953,stand
10.667779632721203,0.08795324939364564,-0.008468844273768386,9.923448422480552,-0.14601672612292385,-0.04123972918305132,-0.1929205325358091,633.3677644435413,314.74691448176367,608.6819211402768,stand
10.717863105175292,0.04861756995697093,-0.0674553739126661,9.937314997379788,-0.367036496627892,0.23414726887555637,0.09016066226662753,673.305549071833,352.22079216829496,607.6870391281592,stand
10.767946577629383,0.08492986445353568,-0.03218062561838768,9.935527783241609,-0.08934436278866252,0.22064143298553351,0.40726643178436867,596.9474591693092,394.31847891766745,676.5847332105333,stand
10.818030050083472,0.06525777420777655,-0.010377740868005567,9.93259700618683,0.1171742685006425,-0.05892084268089699,-0.0030750939005797723,704.4541277935036,415.0354723804218,624.7274353773319,stand
10.868113522537563,0.11573472379211068,-0.04130463903725443,9.906557995812557,0.005230837121431229,-0.20085885910061949,-0.13786014324769963,629.5721009727804,373.91551746767595,613.8500634780972,stand
10.918196994991654,0.09806546021933665,-0.036847601078601175,9.942243743054979,-0.21866398958144154,0.6441437895141773,-0.32254231306857994,653.4461245398417,417.7738624913561,673.558218522056,stand
10.968280467445743,0.06763324193927216,-0.08960357523031322,9.893144960129806,0.2052050598883951,0.2725243534858617,0.21689589582631053,714.248661745618,404.97326905091245,638.7353616485215,stand
11.018363939899833,0.06634000800284168,-0.06988427188658845,9.905011660325691,0.05213391503834935,-0.03903739804268516,0.03447583894517027,641.0715597857356,360.7610928852425,624.5882633005303,stand
11.068447412353924,0.09522461177834397,-0.07152513702828997,9.916714723450843,-0.2781659210978399,0.0028422504286681797,0.06998703107468823,720.8923288748563,351.1659204556367,591.3919957022364,stand
11.118530884808013,0.10934904273203498,-0.052432476184363704,9.887854495196377,-0.06523345820838236,-0.17429282395824894,-0.15295539777837883,636.1566543714885,332.9153940115261,634.3559958443752,stand
11.168614357262104,0.06910905733489218,-0.06315785901295122,9.828054679482456,-0.3548678033520791,-0.5354885762593614,-0.6292288908296119,709.5645930980045,379.53322805368236,607.2023971171319,stand
11.218697829716193,0.08099976238483049,-0.1538540763127071,9.96918208224322,-0.1729177978292084,0.26994943902601176,-0.07216189887878818,658.87213539023,396.25001908036415,648.8821849248161,stand
11.268781302170284,0.056679970927735135,-0.12275917969702595,9.928441252716205,0.07409295176449165,0.10112247381744835,-0.2675676395382809,777.3016261912405,378.184511711872,648.6248094880634,stand
11.318864774624375,0.10809822920591038,-0.024070897150069777,9.926513526966588,0.1236705297317921,0.1295149970426813,-0.09154041639384755,690.0524506680943,454.43854268881967,618.5664401900757,stand
11.368948247078464,0.07090784495526194,-0.11140506807833825,9.916188802607781,0.21711686221860824,-0.3775398611263378,0.41482666783508326,676.7590100485494,361.4103695589156,672.8710390578399,stand
11.419031719532555,0.08196166004766167,-0.1305485158514746,9.923546885884297,-0.18422367446029841,-0.20618133646428302,-0.30104994592317286,737.6276954512999,419.5648878645741,662.1555899675527,stand
11.469115191986644,0.10379558228924327,-0.0652257532943011,9.916886750853347,-0.09783191585785582,-0.701013619923244,-0.4327153945686762,726.3447196706346,322.1700328101157,639.3841121151291,stand
11.519198664440735,0.0756484828702294,-0.056676130537616755,9.878091602377808,0.14187551510677415,-0.2785200830588467,-0.17969971648092575,587.1632632049435,413.7708358916144,489.7317424808739,stand
11.569282136894826,0.07267358389905745,-0.1210812792382657,9.927339326066805,-0.07631778219807576,0.11243793786982759,0.29130605173910035,661.1225839505474,438.04382350511037,615.9022891115743,stand
11.619365609348915,0.11923593019992719,0.0006078614344626754,9.923871130918654,-0.27688029507383904,-0.4561871176649724,0.19096003315354418,728.9371468605854,399.63861939536645,617.1647177699768,stand
11.669449081803005,0.06970924871895136,-0.07069962885337014,9.93684211246483,0.8032515811568331,0.3547458233373028,-0.20427153317128147,631.8132236002637,402.3431745416845,625.2605914226801,stand
11.719532554257096,0.10412752883067523,-0.020723791648810504,9.968406780693982,-0.19709571451421043,-0.24716253592193546,-0.3548713927099642,682.6935759413066,445.28332687484794,648.5386223879733,stand
11.769616026711185,0.08409476576192598,-0.059197420969369446,9.939154125573253,0.1482330296737271,0.5017660558140045,0.2877457194133076,708.6024073398871,387.82351691752217,580.6108773302102,stand
11.819699499165276,0.075911263376527,-0.07489153529705689,9.92763387411564,0.396031546519432,-0.17371870155316557,0.4851876333860943,689.5834720866517,394.26106531427706,689.2589025413046,stand
11.869782971619365,0.07274789431420649,-0.0693496080410843,9.91198834827612,-0.010328058627248048,-0.12468300916924915,-0.08273042850033335,643.4866362085531,413.7908145440527,610.0284491245378,stand
11.919866444073456,0.07969661938720296,-0.024870624861877445,9.951229241972632,-0.32497333209118223,0.47872594711105537,-0.13233199275917118,619.4510449590235,422.1541796922798,683.1698473116567,stand
11.969949916527547,0.066230719532035,-0.026459564160946476,9.968253936985125,0.21122434631706358,-0.48503732310113945,0.07866850683113223,638.1559472898953,362.95504704462724,684.3406420161422,stand
12.020033388981636,0.09235159793677178,-0.08321731144380787,9.918936077557454,-0.07504900521889049,0.18441682429065553,0.015392292919203776,645.6285573906661,400.5136458687409,686.7706419725267,stand
12.070116861435727,0.0883892089876624,-0.12443875878428541,9.936342127629693,-0.5371982558560731,-0.321749262648962,0.11977348456047054,662.218789366395,420.966681651456,658.3363413947011,stand
12.120200333889816,0.10598515796439495,-0.02748540519567335,9.916870003416662,0.05685371062008859,0.021386805696047503,0.041190937812402226,756.8256512645074,381.95431959082293,634.343105185176,stand
12.170283806343907,0.14687059262989474,-0.028691030803973068,9.953359734132157,-0.5199602348245138,0.16331544826906044,-0.04610085854970692,693.9690561906538,369.670120134385,705.9661949453531,stand
12.220367278797998,0.09257997452340304,-0.09558097402218785,9.894449360508943,-0.11728908992602048,-0.14099972541039937,-0.11032769811168629,670.8698202394653,452.79059935604425,550.1300884930399,stand
12.270450751252087,0.05937628392979638,0.02463638619399776,9.899465877115336,-0.07526294004887917,-0.1327695527880624,-0.41320017220435623,723.0664382504225,406.9031655910528,576.0568837509925,stand
12.320534223706177,0.06614632023079087,-0.1002597700928955,9.89739831407163,0.046380187386090246,0.14249755638448872,0.03343328869084658,677.6984242183338,409.1889484542809,601.2417100829477,stand
12.370617696160267,0.09870729107595873,-0.05187835477482051,9.948086152227198,0.24479925303924302,-0.123077354446381,-0.13178858762716297,630.2214526843184,350.7575633748877,657.6312829912987,stand
12.420701168614357,0.08625173975424572,-0.05441572261493498,9.963813292296834,0.12064761306621294,0.19679879907149178,-0.15917480801162145,608.5368142407425,383.0597762578427,591.9718212849375,stand
12.470784641068448,0.12144138548528888,-0.08418466184161072,9.910893244616911,0.026583999872560927,-0.06258519625494707,-0.18319566480417904,638.8189122446977,425.69143334424484,596.6184004918146,stand
12.520868113522537,0.10490130012833344,-0.05375974456863986,9.825755341132497,-0.2512659768593493,0.15930254604909141,0.0611689255642528,741.2521839175125,373.569567029052,523.3193587054524,stand
12.570951585976628,0.06684563429480365,-0.03702395389570979,9.93453968719008,0.41860218365170254,0.07278579661485658,-0.11305705210900344,696.478505486593,462.0288145590215,579.5485748367335,stand
12.621035058430719,0.0005227688522089768,-0.04505912179350701,9.947860212581617,-0.6031248952820074,0.2542623704005612,0.128462755257509,607.8623424187052,385.43471007180625,612.7748528707541,stand
12.671118530884808,0.027965166720163505,-0.04168972456546308,9.910334602680388,-0.30193861930483656,-0.6528744020366379,0.13321415952559537,802.8359171662108,385.2993654442224,645.0668552779514,stand
12.721202003338899,0.11676844050889576,-0.04141182703427798,9.905045259436823,-0.1813822326561746,0.13960151896318526,0.02944716182794436,662.20009371927,392.4703680801917,619.0944320024817,stand
12.771285475792988,0.06447107497223417,-0.06469791827334727,9.902742237674328,-0.0020018138295546497,-0.365334189562386,-0.07316407263851678,736.3493631770074,352.8576699679042,659.4190143377888,stand
12.821368948247079,0.10807332926650685,-0.003279414513759682,9.907158020192538,-0.012506412420048085,0.0421114853919711,-0.37914264239032575,804.0826778837585,349.01038413688445,651.4818153659785,stand
12.87145242070117,0.11187232988967946,-0.08958071958750946,9.91400387932223,0.1519791040904582,0.24814470197207686,-0.07625479254519608,689.315600845542,395.7386014568598,651.9058387483827,stand
12.921535893155259,0.058082828585776826,-0.05426400483046387,9.928416110066472,0.12556864687519928,-0.3111814745186882,-0.39096634820920384,717.9444050527827,381.9151127675629,687.3873786027566,stand
12.97161936560935,0.0425656648332802,-0.10288446827796421,9.900833674075134,-0.012450331114487307,-0.097875243038432,-0.3751876932743177,656.614874708176,371.51721369349286,631.1379108621336,stand
13.021702838063439,0.059447401961151586,-0.09007963020713326,9.956035743533299,-0.27512951950102627,0.1495558973529777,-0.323242751044108,723.8119801435915,342.8577953233549,590.3829619192286,stand
13.07178631051753,0.10370085566275876,-0.028699815177071764,9.922780491239132,-0.0676011326363737,-0.04727873467877594,0.18045366670578167,705.2533641688759,384.750995224941,615.3596234674284,stand
13.12186978297162,0.12554552078722647,-0.021352251120592365,9.916632208346714,-0.2384884056861593,0.0023601513775674257,0.33791992027483286,693.6083806269306,368.44868458834776,588.7861004699743,stand
13.17195325542571,0.0967567013523421,-0.08185355869485844,9.945259050175366,-0.16349873570870382,-0.4916900325380514,-0.14859512493391225,746.0462614760486,434.22436219744645,588.8682061189386,stand
13.2220367278798,0.1347032693226855,-0.055232834345575466,9.902148070110105,0.3191558477331241,-0.19245294518740722,-0.5044042774041396,685.6569654111496,407.23771244264367,655.3940404226869,stand
13.272120200333891,0.09718035955192651,-0.06183725994073561,9.958265523187507,0.28768082571710285,-0.16807119155325126,0.06433780210904716,686.5585669668376,375.61033207692424,653.6148296656814,stand
13.32220367278798,0.11892466783663641,-0.10330241184674391,9.915506556445994,0.28843670890888434,-0.06111053257287021,0.08538320513185306,720.4399531552759,410.5664032353576,611.6030544585213,stand
13.37228714524207,0.050172500409013616,-0.02072731363122944,9.94662414179559,-0.3156770561832754,0.3927552065620115,0.41530726448045635,737.384395575878,325.5977845065951,552.9512742954089,stand
13.42237061769616,0.09150731327112195,-0.04713458684189903,9.946187160978123,0.18815634705534479,0.09290365787063534,0.3112236533872152,643.3380743477196,382.46817216137583,656.4454702136019,stand
13.47245409015025,0.06062920294249538,-0.04410487999531204,9.891897498949367,0.45163288954386305,0.44822266202619027,0.09049913087580151,651.0198094785604,337.5064573229757,585.7531005294124,stand
13.522537562604342,0.1656429227232193,-0.03953793868095848,9.868594766342708,-0.1287202069007498,-0.2539856860878473,-0.22117862579559205,700.4614983024903,376.22461923510633,650.3968777123755,stand
13.57262103505843,0.07453291966943312,-0.04433310873293108,9.912319667296662,0.03537967628859817,-0.01806310480748862,0.16091768528519418,679.4908880483697,330.1296337762259,640.3974770080611,stand
13.622704507512521,0.12922076753824385,-0.04368936816652652,9.902641707617622,-0.25892539091936945,-0.19692835995359476,-0.02382101462763275,702.8925471492379,390.6947751519483,647.8256578750816,stand
13.67278797996661,0.12140870919267288,-0.05864869088508898,9.982375946617292,-0.01313177325548746,0.2540615937047924,-0.23280679166696716,694.3424411072497,433.99642766325144,644.224884015756,stand
13.722871452420701,0.09015173739912337,-0.0707340171341395,9.84015609077472,-0.08004117195860176,0.4853210968189997,-0.12128726609928481,738.7533204928457,377.8482770785213,580.9692765785529,stand
13.772954924874792,0.06558747395595758,-0.048673730430856973,9.92602312558358,0.219966965253158,0.05209386847078151,0.0602525074085193,649.9152257252161,403.47547963877656,605.5152146242845,stand
13.823038397328881,0.12060828005322727,-0.0786263499758062,9.96112305344717,0.399927008646864,-0.10386477841683064,-0.34699977102531565,655.3394684599505,385.4939336151226,661.4733557586015,stand
13.873121869782972,0.04230790131261424,-0.10669607461065342,9.941879128968338,0.055518292191690986,0.09671129444461775,0.061913105310011714,618.2854997815566,476.7918205456068,688.139457525394,stand
13.923205342237061,0.12542024030256765,-0.08376987376987466,9.866276937816929,0.06419797667850406,-0.17205904211960113,-0.5559014663808823,720.5828352284867,408.1837091916627,619.4774382874991,stand
13.973288814691152,0.092505452897278,-0.06772279960589027,9.921784697355287,0.11221851747026447,-0.30091869875989513,-0.4132278697623851,681.5257139060526,398.6459283807274,622.6249020555764,stand
14.023372287145243,0.09935970567612629,-0.08533928855729202,9.88332449808727,0.05298975180443831,-0.14621329885938325,0.16467142980529959,576.1320503483457,369.104476891042,629.5422493761046,stand
14.073455759599332,0.07851109970933745,-0.09103426433844748,9.903029123201327,0.14800190553709153,0.07876037532789226,0.3298663989473375,646.8644738873737,415.13002501914207,605.8669595787995,stand
14.123539232053423,0.14478409369749687,-0.02211591473077501,9.877161317128179,-0.07950035325985752,-0.058123566384130285,0.5049417709866899,686.0204364284123,361.37167898460234,653.6315458402845,stand
14.173622704507514,0.11441543496548204,0.0036159425106338516,9.91970181579768,-0.2834194268442341,0.1350465788629209,-0.4660205366863902,748.0558305270671,321.8774169579806,634.4820546868292,stand
14.223706176961603,0.11421513226505735,-0.0653097935313776,9.869193671220708,0.3099485938326503,-0.1879943214794777,-0.0448899035790854,788.2097402415784,312.0647532321505,569.8332082917593,stand
14.273789649415694,0.08428254229763742,-0.014833690364610588,9.931658111863346,-0.000929934403268584,0.07859579230987063,-0.11269712018094043,673.3847646335576,361.83670423925565,700.7580574333238,stand
14.323873121869783,0.1356403808474604,-0.053607488357733026,9.932301592821457,-0.4706226478526166,-0.0754117971379162,-0.10915734440454537,655.1113145105769,357.1278996965654,556.6254400431037,stand
14.373956594323873,0.05600232598619834,-0.04172298259298884,9.887995944411813,-0.05160818576839521,0.10353317130087007,0.013344491321183797,689.6071029954386,366.19658779408417,593.7761169721048,stand
14.424040066777964,0.030391458543413685,-0.029574396320053074,9.865405991015932,0.0837527080316506,-0.05554466012478185,-0.15384699595132548,660.13747175146,375.74666008474236,665.5694756121437,stand
14.474123539232053,0.10037454180682089,-0.03908981732170323,9.886040942005435,-0.30284200944745693,0.0026380542959266767,-0.2300435697792908,620.4833128851733,379.2812632533205,686.6954781754473,stand
14.524207011686144,0.028222207847225345,-0.07506392683374954,9.880599037766373,-0.30820454206567466,0.4777840217792817,-0.26399717985587096,640.1916711121631,446.6724022665611,530.074476636983,stand
14.574290484140233,0.05061318848230283,-0.06035171790509679,9.891808935384265,0.5263031436916538,-0.14308894742929767,-0.2310566250499784,673.508560146561,363.59632360682986,583.8032646907636,stand
14.624373956594324,0.09984844133918364,-0.05719932719078445,9.93286476439379,-0.37196371893328384,-0.06778345489911536,-0.07498961983719313,706.8239370144311,376.08817671195646,651.7425190993549,stand
14.674457429048415,0.04253280569301846,-0.045599294375921674,9.924787345314131,0.21804864711110833,-0.1751329850351527,-0.18510367433161407,661.4495224768323,407.5631840034058,741.4676248402612,stand
14.724540901502504,0.05011878690449071,-0.07778671366873006,9.940377304337373,0.0020886159130324372,-0.2737010737752817,0.45711061231843625,698.975588149669,438.8352391069991,472.3463292555316,stand
14.774624373956595,0.12796533117108824,-0.08009062239879806,9.987219514529022,0.016935804683379945,0.07491626606865001,0.47909155118455016,743.186106170136,380.74121573999673,589.7340997385656,stand
14.824707846410686,0.08310782160945547,-0.11159333742260982,9.910141935897634,0.21006388008784485,-0.005776395366746921,0.1077005034645693,804.2449282912361,384.46632214995657,673.8586210337045,stand
14.874791318864775,0.057956811546649875,-0.06773250983269248,9.937295914856998,-0.026774161273851505,0.07199823807758747,-0.4354264785792368,711.881272811234,435.35352895447147,609.0934316835653,stand
14.924874791318866,0.09832568027801407,-0.11751816013317691,9.984657832040714,-0.27652927313480874,-0.15597504171038046,-0.2588386655740256,626.0360713746579,402.5366905807711,588.4377332002814,stand
14.974958263772955,0.08874532867513392,-0.024543622668476407,9.896294081107785,-0.12451098503814066,0.03176240196001722,0.021041662392266104,642.5096347910958,425.13613092184767,676.5020593216221,stand
15.025041736227045,0.08878525168189447,-0.09384864071040859,9.897037561546139,0.06460030180827657,0.21780473056000565,0.08338955837234995,606.8574522917518,396.5380402454798,628.8154355453572,stand
15.075125208681136,0.10642369722161282,-0.1051070623433235,9.862727462006923,-0.3371282058921343,0.18464706198538827,-0.07844605745145239,803.0507356218695,415.5205639514691,656.4786334977541,stand
15.125208681135225,0.11147486841899623,-0.08516695125848023,9.918083368073528,0.38402493605134685,-0.0027186700431996408,-0.10000355860886255,683.7506638531188,337.49971337035186,617.6351188460817,stand
15.175292153589316,0.07127435184445237,-0.11400397778571522,9.9431699050264,0.07774979855238819,-0.05712778563959,0.19285824720476985,702.1102549316174,404.0863085220686,636.5736425379681,stand
15.225375626043405,0.05040158958353993,-0.022055583041986328,9.964794103519425,-0.0235857618858439,0.4393939505009363,0.2758577968338042,725.6591139998621,395.33941682783444,702.2790223589399,stand
15.275459098497496,0.14452617883380936,-0.04557990882835801,9.885736323817502,0.2199372124966769,0.33322996063362553,0.10579915721919055,795.5658110945183,372.78478629990155,658.9920317897365,stand
15.325542570951587,0.16338949575153067,-0.09534750741953726,9.964979248720468,-0.19468564534884802,-0.23283800168814206,-0.012268776076269952,651.5213488245769,344.2391105059297,680.9979723960474,stand
15.375626043405676,0.10559452387362298,-0.05788036536673281,9.902426399431072,-0.39104532381690926,0.07957585553024493,0.2976939028789091,702.5087178269549,330.23603091468505,596.3241773425996,stand
15.425709515859767,0.01084940236600579,-0.0893058449723151,9.913275926391588,0.10122226542793318,-0.10354868862143629,0.1865868057312052,607.6970990526336,364.0738850344233,617.3850214192902,stand
15.475792988313858,0.0947486094535133,-0.03799583406550425,9.988693218761256,0.07681272559418041,-0.42392720812531415,0.16009384023195802,663.9967052812187,449.4299683820383,680.1240195445135,stand
15.525876460767947,0.07692283484815671,-0.018488007092911415,9.950329758659079,0.2132048631033608,-0.13374963233116874,-0.11611448462025224,623.722203827904,346.7154818778499,630.0172437359774,stand
15.575959933222038,0.034938484953809856,-0.09194730104428794,9.938498137314776,0.31732060875855195,0.281847862936944,-0.20594391620345154,663.6743215564312,322.6173985046721,559.8390345727488,stand
15.626043405676127,0.050580584514934926,-0.03678567590591693,9.940118235709653,0.10138717814878848,0.013887920047181214,-0.5255056493188704,689.9645926903855,365.5932812848766,610.5012777490851,stand
15.676126878130217,0.06551228508905571,-0.08261498654996777,9.888271443268279,-0.33593798486832255,-0.3633680996333663,-0.05092495384497743,701.0182666630134,459.2618293820507,630.6229789032074,stand
15.726210350584308,0.07237940048671554,-0.059435872388395934,9.898796468688362,0.2442271578170873,-0.02379929078404666,0.029417233867211765,626.7325018632228,371.4590887764614,656.4206274872472,stand
15.776293823038397,0.1231141722402734,-0.07664666591260591,9.917774142325355,0.2894121040328479,0.4439760197365333,-0.19736917931828146,665.4808836764446,364.67709014081095,743.020218897043,stand
15.826377295492488,0.07717176390952318,-0.0874163850286011,9.879228392965494,-0.15185028901649014,-0.4141016895699978,-0.16651198403855008,783.9294592880922,343.1991625482075,546.3435834808663,stand
15.876460767946577,0.048708901963154826,-0.012366231566944497,9.915634290724839,-0.44989719555752505,0.11482675017093716,-0.16583280096950448,697.2828388432348,394.12042718788564,725.2882292498771,stand
15.926544240400668,0.08721867705193259,-0.04014644169790069,9.941729139053932,-0.19070116336558987,-0.07691478041907249,0.4530213801982303,601.761819596641,415.83571141276616,579.3891749083302,stand
15.976627712854759,0.12089198917484076,-0.07231143405986057,9.91031824481432,0.29668607599089525,-0.26450944271839866,-0.31662068476037103,696.1165996103664,407.999739223579,655.9940122335034,stand
16.026711185308848,0.069917583201996,-0.0741199956925165,9.960529586513347,-0.09533280103008643,-0.04525223559005624,0.15003349206187624,654.0354716371838,355.75962420619186,628.8644143661976,stand
16.07679465776294,0.10473105061426799,-0.06445780679968868,9.920331585538573,-0.5139555879828352,0.07286541730151788,0.14481466580128372,718.4892002140012,343.8654748490253,578.075385360962,stand
16.12687813021703,0.08193680115197374,-0.04393917886433191,9.944898143981863,0.04682294637237709,0.19685500708338652,-0.28882494140369236,669.122275355708,415.1075349868165,603.1559291597503,stand
16.17696160267112,0.12236977881727205,-0.053208334094042554,9.867256185608953,0.06970265935690588,-0.08744834627053254,0.25092939449099416,614.1280275205061,419.7448509769767,619.9230149277911,stand
16.227045075125208,0.04706465141927807,-0.028015604369828875,9.93738318669781,0.06815093174087793,-0.06572543702433588,0.1513721637653224,725.988413291119,365.3032186069501,630.6726760289348,stand
16.2771285475793,0.07973256683924292,-0.03121687595447319,9.957228784319499,0.5910318068729854,-0.4321520979397989,-0.08956537846275608,668.6385283261621,318.577841631602,680.3769674628187,stand
16.32721202003339,0.0889359491723401,-0.07836597140509878,9.934176662126266,0.25303833378475143,0.5469380590436396,0.14518292416448297,716.5632191054186,404.6300956816813,601.7620340083411,stand
16.37729549248748,0.08958103991077437,-0.037310973552021856,9.946812388459083,0.22411973325028073,-0.08065796365486151,-0.39051626118908594,728.3208956091709,378.24821204138584,624.0331851307144,stand
16.42737896494157,0.09420455765147003,-0.12915464554702985,9.89075290373587,-0.21377222153435302,0.037589044501078084,-0.30556715622328706,649.4169444217399,337.7437716011745,654.7942812098098,stand
16.47746243739566,0.09166295641005771,-0.12182119057300159,9.902439000936134,-0.17258634132005454,0.09720490013429668,-0.31390088263116156,736.6871853533559,343.5853233741233,645.5427090565732,stand
16.52754590984975,0.05543839116818576,-0.05781364952789678,9.924541320430185,0.33384200967252553,-0.14242548031368268,-0.3069571802862485,738.0668667835859,401.56996098550246,656.5140195260747,stand
16.57762938230384,0.03131967753377554,-0.0770544323006988,9.905965877398216,-0.0280284535189001,-0.10400071316434109,-0.16467782563791486,609.635192839396,417.7629015545115,634.750377353737,stand
16.62771285475793,0.1304381990809213,-0.06849967347469671,9.953790806042145,-0.1321763729784678,-0.10284283133491838,-0.08732893684499499,668.1221437623442,366.4597864634725,597.1108172699477,stand
16.67779632721202,0.12854242472023797,-0.009504485831790588,9.911973651270166,-0.10058597435173425,0.4096737488742778,0.10689940322785461,613.1573070518923,294.5869178833755,661.030462135705,stand
16.72787979966611,0.06894817284948565,-0.06675665030130311,9.921296126496465,0.16990072957050487,0.1294959652999991,0.14875761877382881,601.4328324616788,401.63126504636483,628.6026348500475,stand
16.7779632721202,0.016940340615808222,-0.11578517981384735,9.871297808739115,0.37231962642811106,-0.262098148308263,0.03853171206647188,665.6899039253378,369.34213462674563,698.4970911658983,stand
16.82804674457429,0.15916645604952584,-0.04097953279069427,9.92645662754657,-0.43959855620831906,-0.11700382056416518,-0.07841207258056658,698.5408745408721,425.4039407305865,625.2008693988744,stand
16.87813021702838,0.12188116598944762,-0.04440065679762171,9.9169690902179,-0.3284912551121895,0.02297094694568937,-0.0833826822237793,641.2081547610941,376.0071617568175,577.7285983387035,stand
16.928213689482472,0.07805519201343565,-0.05993554590666943,9.96202554336863,-0.2920913858549093,-0.03827129808692816,-0.047967650130957405,686.89705894268,340.4718485972518,590.4804190162332,stand
16.97829716193656,0.11783530259876643,-0.09024668639376812,9.933254797205763,0.10136864867552249,0.03830518479713266,0.2869612756566326,687.6860842365903,356.53138527653766,591.416224803168,stand
17.02838063439065,0.08618399505182671,-0.042904262841665944,9.922660768822588,-0.1381967352219862,0.011024966865719629,0.11795742834661457,673.7049296924249,315.67242022202885,646.3020372305701,stand
17.07846410684474,0.10714921045085009,-0.05252156350027647,9.857445860998377,-0.20815935147103157,0.20582031277385693,0.1149909262873776,668.7098565291628,337.15587747310695,671.1904781711585,stand
17.128547579298832,0.0826191279817849,-0.05895970843123084,9.87902551436948,0.5788627601349212,-0.22027167964883848,-0.24620918554976448,714.8335911661804,351.9776410957736,609.8156703704142,stand
17.178631051752923,0.1274339756811141,-0.054478243859220656,9.928446650927976,-0.2841587285206135,-0.15367852536575433,0.2799709738389169,778.8486961244712,488.86361615348903,663.9016552866898,stand
17.22871452420701,0.03984344777153852,-0.05173722485588768,9.87044806241803,-0.5116206829930172,-0.2368030432796042,-0.14491635549485904,667.3729744392739,460.75364153221767,693.6356752627502,stand
17.2787979966611,0.10268817904725097,-0.06607483944445167,9.86820871813684,-0.2708610127174828,-0.07470232577306089,-0.4157046196594017,700.7439020608118,460.60551077045864,584.5834551058897,stand
17.328881469115192,0.05327216317837191,-0.11239949954428266,9.914562409499819,0.5178926311144865,-0.37551293596925894,0.06123478424772376,582.9989152149124,395.5765344712952,659.3101590141291,stand
17.378964941569283,0.10730051610428867,0.016024836885754207,9.905693531156848,0.5037934357069644,-0.05185507527787722,0.30005497584000124,642.2139916377467,376.7535698706268,567.7733539730359,stand
17.429048414023374,0.09420879301364814,-0.04890380270219768,9.82317847240449,0.0018138565333899541,-0.12187583703689957,-0.17852930070914425,632.6629298099423,341.72304528155973,639.4244505978592,stand
17.479131886477465,0.044891186528467596,-0.020753550175394424,9.909987197643856,0.015782701156651674,0.09887064125956584,0.042098009356054726,790.3125903578693,417.40951293516736,714.3415684483117,stand
17.529215358931552,0.09540107681731663,-0.03900863569049024,9.917258792262441,0.5045949854488476,-0.30307185270128784,0.19906015496974888,699.8144232735957,432.3878567369468,627.6563006578585,stand
17.579298831385643,0.08401414395908563,-0.06595316251298924,9.914234334999463,-0.014125977409054696,0.3204229586133524,0.18337465252160887,650.8442164780103,377.3089042577885,649.464927712601,stand
17.629382303839733,0.043505516786494364,-0.04170601241534995,9.876912458414623,-0.09107251070061433,0.574908095414536,-0.3711193795950188,670.4751461504706,389.6002967609371,618.7567035249441,stand
17.679465776293824,0.10120093554822858,-0.06893017512389649,9.928016732883153,-0.052785199123414325,-0.06264835723170452,0.18777706380162887,730.1389032163443,391.9448265008261,672.0316728114158,stand
17.729549248747915,0.07211200940004514,-0.05878183565492287,9.931421173319087,0.1281921344233961,-0.04887801728019494,0.50723722892225,783.6724544102891,418.9292689947842,596.1792810407037,stand
17.779632721202002,0.046051488761374985,-0.05890632814728946,9.876583248153802,-0.5260999815688701,0.3986169553085213,-0.2644950464011159,659.3759495796515,419.4814436531091,610.3750560222575,stand
17.829716193656093,0.05937145080544689,-0.053821910381384994,9.92596097855083,-0.23964525629382846,-0.004814401261281379,0.09649016087445311,683.9334832167889,429.50011057204927,656.0462962778477,stand
17.879799666110184,0.09960058118621497,-0.11553749484519815,9.884428756668035,0.3593489878748736,0.2841612141567902,-0.34246034951498855,791.7954538874925,452.30882386052735,627.220575351725,stand
17.929883138564275,0.0391280276667329,-0.06777723871137274,9.903286615250796,-0.40135549533258624,-0.0603995603682999,-0.24702746547003582,695.9200068105846,312.2289778259234,641.0346018035697,stand
17.979966611018366,0.06049113156750244,-0.07539478685998172,9.88549871526187,-0.45024468147901314,0.08457875007326182,-0.4348453363379873,674.471551776633,369.01795259587794,640.6448658454918,stand
18.030050083472453,0.07775702675478978,-0.06861018783590676,9.901157644415004,0.18059054779047942,0.20941197139350548,0.1301039775625111,648.3091279998177,405.1360285550963,657.9213032864992,stand
18.080133555926544,0.11723553721011307,-0.08436834660699433,9.9444400575012,0.04965722669733192,-0.06693209937897793,0.023052085665057544,714.1493615151569,404.9075029286509,543.0351612460452,stand
18.130217028380635,0.024965127175422076,-0.006027816716683697,9.912197715162746,-0.10416019592339387,0.056502685029476175,0.33046904867786453,785.5102455538645,348.9328161117614,599.023611844213,stand
18.180300500834726,0.02250297222085401,-0.09515736039224734,9.886928752384904,0.3688185606240429,0.14699324840595374,-0.41184126861698406,676.5307753608694,438.3884232530636,691.1056222153852,stand
18.230383973288816,0.09057706691195624,-0.08167893112870146,9.960759546835174,0.1140458807117638,-0.042227320761081016,-0.08034025063634642,726.2808145768587,465.00522816449177,593.2209391390196,stand
18.280467445742904,0.040870002028235645,-0.12541420734138242,9.932951636704338,0.1011506878934415,-0.33504521610875737,0.059278397873424336,672.6318434166412,393.3174135832609,631.4346463455884,stand
18.330550918196995,0.06662504397918634,-0.05274324128061345,9.976434769622307,-0.4522061849334763,0.3628093022666994,-0.09455797115115516,692.4537222619624,349.37292662230874,726.1975798736506,stand
18.380634390651085,0.06609538674987121,-0.09627603511403181,9.912334731811319,-0.207100365112722,-0.22757137934474347,0.3038142130594721,659.914581850892,414.56102853495145,682.9536676399325,stand
18.430717863105176,0.11941401260912513,-0.0987025011450412,9.911855337369241,0.16813507914037695,0.27896474691062695,0.33363250292027097,668.8996919944259,345.18813296033903,642.1908516423779,stand
18.480801335559267,0.10537525678237525,-0.057628304557357575,9.898218118881973,0.09722754181416024,-0.35301614313593893,0.2122848064883031,717.4925623162391,332.0313915304789,622.3097208206301,stand
18.530884808013354,0.05517806779839762,-0.0445785895927096,9.928638322566462,0.21632473414626846,-0.22189910444539626,0.18097801581366538,663.8664268939111,388.31405065939003,620.7837907409873,stand
18.580968280467445,0.13390771298273474,-0.03751768486134796,9.961633057180515,0.07487056274087202,0.07850721571037107,-0.23230428332094197,599.1268564659601,367.70917369368277,576.6992501652139,stand
18.631051752921536,0.09896983184129893,-0.059047673039744016,9.953580927953594,0.7244145262874874,0.01526655490018969,0.10338902254331635,716.0603996582521,460.24663748417015,604.8228398487487,stand
18.681135225375627,0.07373344408778737,-0.0030011270611978863,9.906853575759401,0.17377014020624412,0.25261431334666073,-0.14792910987816763,701.0716665018073,352.67870996548646,619.6912480068253,stand
18.731218697829718,0.07092129564454794,-0.10908735810464107,9.941650129846241,-0.1401339810135512,-0.01288905816403003,0.21501245408359715,724.0186833620705,454.21842109689,531.4100048481741,stand
18.781302170283805,0.1440590669853788,-0.07620748413920377,9.97333210843233,-0.1265388857326098,0.06202906997956315,0.35133065227343563,637.5238466393415,361.5604629072043,571.6150044408649,stand
18.831385642737896,0.03923368657879451,-0.043535928950830804,9.884680853485529,-0.27831395004049586,0.4311422347195225,-0.028370955506229145,647.0113311045274,362.26555444561996,580.6933717553015,stand
18.881469115191987,0.07545468380351077,-0.05154292006924434,9.905826721151186,0.1798395964923589,-0.4274479663300247,0.2970500058223099,598.1523832722336,391.35165988745797,585.2901862481684,stand
18.931552587646078,0.08802683775115547,-0.0513255702865362,9.974982882799797,-0.5103982118433059,-0.3349387843998735,0.05855480316271514,687.0229692973292,362.27620781567765,649.4731014906284,stand
18.98163606010017,0.07705169300908331,-0.04560255241264853,9.882460987777238,-0.0653168675594351,-0.4062540879972317,-0.00599376396629785,620.6351996331787,332.6113943190805,595.0982306318215,stand
19.03171953255426,0.10065547769765966,-0.03998304250325837,9.930983651745967,0.06229543075559125,-0.08189905853819936,-0.24720756128984012,668.0849889987468,357.38601491638383,712.2638547888671,stand
19.081803005008346,0.050758536093094817,-0.08408867308817818,9.906599637257646,0.5195952984012988,-0.585560410707805,-0.006069860197662877,658.4456732714561,370.496339660511,634.4362982334993,stand
19.131886477462437,0.12192926641936538,-0.0196532058740427,9.90666147756128,-0.11600536581947113,0.061470055085880146,-0.2658030712082744,619.4140095209286,363.4598668183417,639.3471955439328,stand
19.181969949916528,0.05030839498880986,-0.09882039734411485,9.901010553607026,0.046718257533019045,-0.2700715340122486,0.10592031185552478,732.8181341931853,380.48962868458653,555.0223285314755,stand
19.23205342237062,0.039571399595811275,-0.09673950470319614,9.946608562300417,0.2344408485106941,0.008815502394435229,0.2972265668297942,781.7875795759423,413.6097350019787,647.8157698923239,stand
19.28213689482471,0.14552302686625868,-0.08781213386638209,9.917584032761289,0.2745780690047108,0.17705770093564524,-0.13571832061444078,617.599562642918,415.2883677362061,634.9321754558174,stand
19.332220367278797,0.08351710557143698,-0.016814149659107436,9.93145762790733,-0.00013868597181421985,0.12851799867797292,0.41008956669572244,743.1793382513143,354.03986292762005,643.305188964501,stand
19.382303839732888,0.06590494155462773,0.02735433453985031,9.92014978469437,-0.09597621304288424,-0.3028260065388594,-0.32518501077051365,769.9554075937731,402.8823906333412,576.4651430529576,stand
19.43238731218698,0.05775926471502665,-0.034386516601515496,9.867703428487234,-0.533214708571804,0.36084939888872974,-0.26404326334194067,714.8014265200288,372.50020335166005,568.2374386172794,stand
19.48247078464107,0.0632532665363211,-0.08896048909341102,9.910133201980726,0.00904956763879718,-0.3320829132530996,-0.26134222017822356,700.5461783971725,386.8067663994768,602.4104406963455,stand
19.53255425709516,0.12295443286403701,-0.060413497513372064,9.921559116691567,0.020913937656419135,-0.05225294115007032,-0.05124075758946295,745.914933005198,362.58742548688593,655.6122252585698,stand
19.582637729549248,0.10150960103938357,-0.08586555875701912,9.912992193432459,0.10886289100941755,-0.3267731390030963,-0.17942150876192925,777.5146598312765,351.1583928976355,637.5976202846953,stand
19.63272120200334,0.07301317053355902,-0.05869937952726591,9.93438038742096,0.3709003542129017,0.32292009854073583,-0.48706618919076355,695.1375271802804,397.6673470039221,615.2054933893842,stand
19.68280467445743,0.04435346241951648,-0.09756073227318829,9.945767516839837,0.08951510176549056,-0.1374122468700292,-0.35383704379935327,745.7979541101029,341.2990815825639,641.333079423299,stand
19.73288814691152,0.026275828247987035,-0.009052247675410921,9.874749523370054,-0.0011791988402962534,-0.2529862160648924,0.1921060438926698,717.2699714883322,388.15693212519017,669.8913366744906,stand
19.78297161936561,0.10563818510289899,-0.06865361997776499,9.908823659775468,-0.277081928680093,-0.27716220188388313,0.058358802811211016,709.7545838501192,350.4154351282894,651.4365689515431,stand
19.8330550918197,0.07596903375313302,-0.047442709540189656,9.908210626308927,0.09434151281224556,0.20771894599954463,-0.039369278580222114,724.484314528103,375.8005789298579,636.9746211222421,stand
19.88313856427379,0.106536233005331,-0.07441187533013707,9.963589699435216,-0.15798273678589275,-0.008644569637791302,-0.3632664818974713,755.3105107008066,393.09860007348743,562.1480177364388,stand
19.93322203672788,0.0602697645133245,-0.04246072729753601,9.937050961786097,-0.42639134786051136,-0.47889192625493365,-0.34681150618369977,695.9089539851022,383.17468325022014,657.0770497719686,stand
19.98330550918197,0.09323904397647506,-0.07848654861374371,9.973275638473897,0.07552933637622979,0.4797670354334717,-0.32650281634426453,724.0028084995355,439.02563833348654,600.3713685754267,stand
20.03338898163606,0.06703255044482598,-0.08666972997616004,9.956893586914427,-0.228424297504059,0.23551604569178103,-0.11661664916803766,650.137790418359,310.15152593607735,612.1320686034576,stand
20.08347245409015,0.02981382921318606,-0.04732092848996506,9.888736959459173,0.6952549828132167,0.1373215859528333,0.15723386647103182,701.0648406355477,428.83753742983004,588.7952943596054,stand
20.13355592654424,0.10162171277203531,-0.04513456210341708,9.908032422952191,0.18862723227180986,-0.41987533332168125,-0.37157021136061824,702.8473407994692,409.0056991765144,665.1667529421054,stand
20.18363939899833,0.054410018282148837,-0.09977347360938488,9.898855186055867,0.9528550090291864,0.07853957002079175,0.3184710106469477,729.2348264340936,393.6359605223931,592.4698120847072,stand
20.23372287145242,0.13120183757038034,-0.10408743437030836,9.87409136776597,0.15530059693314355,0.1621744898526237,-0.027338106570629416,701.7867282185647,341.41650153629536,650.0886859247763,stand
20.283806343906512,0.06576000510275101,-0.09621014016125476,9.867483776953533,0.04618667735377287,-0.21002035702589247,0.30698888676623737,719.985148826401,388.5940075959113,613.1072359334954,stand
20.3338898163606,0.08909953387141425,-0.015535759828959592,9.9630786039053,0.3225608310910804,0.3769979475122097,-0.2607797441616089,691.1458977508133,336.8978831051693,611.0255764788599,stand
20.38397328881469,0.053033096613794545,-0.07658686465640611,9.894057805498942,-0.014012219769881085,0.3845186301234211,-0.2937161234864177,669.4602891199454,333.44970526602106,576.4953345705303,stand
20.43405676126878,0.10790594808102802,-0.06900536417716602,9.930018421916534,-0.1112187905472512,-0.026986026991867154,0.17477285705898757,660.9096866243178,313.8293093084866,622.5952222068696,stand
20.484140233722872,0.11416565047133202,-0.06430266732868559,9.88237522952432,-0.2633546628798242,-0.05963586464366847,0.014644320754195613,690.8238724196552,391.15316942536765,679.6879094425285,stand
20.534223706176963,0.08351714762564406,-0.006707839403341485,9.931078054219102,0.1454903062536489,-0.08159603216884348,-0.2825047336208994,681.365021898276,401.419292856741,597.5201399812349,stand
20.584307178631054,0.08680832184447719,-0.011805691558617187,9.996142469835704,0.11099369909414067,0.28994350334828906,0.08798355353373427,707.0848370563745,386.8698267978535,549.4518088757891,stand
20.63439065108514,0.07824292389875474,0.0011057271912294914,9.914124904383154,-0.16217337544259536,0.11095074012090285,0.09042218227550172,659.2663656902754,360.72786546341024,626.1955093240502,stand
20.684474123539232,0.11592074061394589,-0.08462459742633378,9.910565938490569,-0.3186872546071373,0.4725620949756948,-0.07290386696174996,724.6952308031855,383.63815635523906,576.1236151511332,stand
20.734557595993323,0.09300654639296256,-0.06278079537077824,9.937261793357543,-0.5026542277786199,0.17081377800017328,-0.16824108480744362,620.2886199949194,371.6500207591457,600.2347209622178,stand
20.784641068447414,0.0830364327750576,-0.02425462686766721,9.935877146845153,-0.4334022414172889,0.3673178474848047,0.28765450319503977,680.0233074108187,342.39097440602745,654.0542340065083,stand
20.834724540901504,0.07544115702438095,-0.06398312527039972,9.918289590524147,0.0011423663444368951,-0.2479854405658601,-0.23142328429685532,680.6793183062466,419.8608561830459,608.7065076674384,stand
20.884808013355592,0.07350686583479277,-0.03842045391802605,9.90725361480831,-0.009385251124244414,0.0508292329813916,-0.08791316940835049,668.6316797552854,378.5415211643762,592.5864788885582,stand
20.934891485809683,0.09231629116545798,-0.049346150635531216,9.89787567178929,-0.45438396415209203,0.29983626547262915,-0.006785830817730876,645.3516953647205,393.49365194996824,631.8350078314901,stand
20.984974958263773,0.1276343419823309,-0.05565046816529029,9.892162346656901,0.09567262739798105,-0.1801848072127788,0.07498455228629901,632.4766919539012,404.77648797753716,665.4991377476158,stand
21.035058430717864,0.13813397840681313,-0.04511383318636878,9.930545112124557,0.09200183952143703,-0.2307352576067923,0.2157875758941429,665.9534500633015,446.6271509007621,684.6315858735785,stand
21.085141903171955,0.11436193118115565,-0.08087852384544672,9.877385172202278,0.29456473325868654,-0.03979208200162516,-0.29501002318561337,657.7425315713813,393.62245769273443,593.1434453513853,stand
21.135225375626042,0.1159498155069075,-0.03267144987341242,10.00187111017896,-0.28971253012976894,0.20890075582582487,0.3504144792406046,631.0165910017522,411.2541765404119,676.6261364054309,stand
21.185308848080133,0.11926509820467535,-0.08129804122679954,9.930182552585967,0.13517130070639838,0.06702378749075706,0.07997054160267464,631.9166519227276,342.56256955040124,564.0757050968252,stand
21.235392320534224,0.10463810687513542,-0.07643325038562516,9.9376280837809,0.5006812480763627,-0.005751807512174711,-0.07983840819884279,704.8261959295195,340.29266057030577,582.8338222124257,stand
21.285475792988315,0.06108404179143541,-0.07500333004330179,9.950971263050786,-0.3087191432882189,-0.04329945494285527,-0.008879515719014124,741.391612309811,388.31240561451284,633.8542351621951,stand
21.335559265442406,0.06925790253538709,-0.03838528478389944,9.937080641848462,-0.03188319270840423,0.40888215889673585,-0.5358975313656501,687.735818604817,325.5388858642474,628.2867974096088,stand
21.385642737896493,0.11171433666005388,-0.04034878638699701,9.857779156182731,0.239120800424637,0.009392163663968585,0.323506076701952,635.1423623277208,391.6679108188924,638.414621709772,stand
21.435726210350584,0.12152219798728386,-0.08541413353256885,9.877472112824353,-0.12202760258445497,0.19771753546463183,-0.09446708386120152,752.7920612549168,359.22937121502105,603.703734789477,stand
21.485809682804675,0.06852039021264042,-0.0611198278630176,9.85501912462354,0.22700259010173174,0.18570739178466927,-0.4080186333047057,660.1737714228165,383.3309987940954,639.7055196079112,stand
21.535893155258766,0.05472644811754986,-0.09263565556964722,9.943967514271497,-0.17741424857942628,0.11723649952164375,0.010396211666750413,658.7441357617294,300.48458411876635,575.6545987665852,stand
21.585976627712856,0.05347903063932,-0.11167036297540073,9.940347586460913,0.2511745100788512,0.15242623790828638,0.2570107316997638,790.5750528050636,406.4615011227124,593.958200574958,stand
21.636060100166944,0.10273385333349387,-0.09021551305883643,9.927725074437392,-0.17796130199597138,0.5113024311818962,-0.03025674143318738,645.6573048682035,315.71503842134484,588.4278331955827,stand
21.686143572621035,0.0322198854918343,-0.08282621381562635,9.955910819071946,-0.3731294193078277,0.11488942772154088,-0.06998555254103342,677.0271555798877,429.5248468795427,617.7039330897715,stand
21.736227045075125,0.03586709733717559,-0.04767085204476694,9.852424399900134,-0.015927508376889388,0.19019002515363603,-0.13125304847714403,684.3527410456053,413.0856578777921,668.1620596536932,stand
21.786310517529216,0.12476977003715796,-0.04285649867348041,9.930991933995665,0.07540268199853305,-0.3674708765382501,0.006933375008430968,659.3100274439854,377.7831998676626,577.0552728071484,stand
21.836393989983307,0.08177464620615588,-0.08789532273745429,9.961912239952014,-0.6231283257619223,-0.15306893660888488,0.11315960613264951,687.5004800722638,346.02200867437483,647.2813166555213,stand
21.886477462437398,0.05931556698208658,-0.0015714402621619175,9.94736322486744,0.01939886829732011,0.17456957600762799,-0.14015035112534865,693.2081698134127,376.51375618919667,620.4927230689698,stand
21.936560934891485,0.042847644058773796,-0.04935038668679956,9.948638766642064,0.07852241772102383,0.0914259715214015,-0.3928820577610935,635.4625713383227,441.2723976930672,615.2510936906057,stand
21.986644407345576,0.1615610631550342,-0.03372938032638937,9.912404493742432,-0.2605739943358377,-0.3871822662831659,-0.16270288592618332,711.5421191091683,413.8898036198305,572.2108866017488,stand
22.036727879799667,0.10100091361364726,-0.06982530904807026,9.911098857592973,-0.1350311961984157,-0.019805858651131634,0.06923208132697221,707.4778498614619,351.2876981461906,680.6634073425955,stand
22.086811352253758,0.12065587744902562,-0.11094194472423341,9.933025530839846,-0.1679267930146395,0.3063719839727794,0.13976424016354955,614.8293723794698,323.04372733954426,703.3638247529191,stand
22.13689482470785,0.042880272907924885,-0.1431333774837295,9.983301883243362,0.19385023114971223,0.3112183792249341,0.380877350198641,718.0626723057388,422.5169182130471,628.8894253003318,stand
22.186978297161936,0.06224310290420704,-0.08220740647847297,9.893415401502503,0.1648624160325128,0.23797061299179254,-0.032412429075326876,725.149888253687,351.85902967305014,559.7145281546789,stand
22.237061769616027,0.0644355355794056,-0.014777999160012184,9.950484249854398,0.13058416282591678,-0.1610744923011861,-0.6483418338527706,687.934250454664,393.5117420394009,600.1143834356785,stand
22.287145242070117,0.11694429298319421,-0.019116565962952872,9.965738156372165,0.3515828909940853,0.6668016883662091,-0.012823016439790872,659.044799765006,370.0789844101432,569.7630586408152,stand
22.33722871452421,0.05610912926696226,-0.09108161566838816,9.9315622299737,-0.00044103525124797213,0.12192272980990532,-0.08148125466422078,621.5219970701261,371.6124680875034,643.4931579053506,stand
22.3873121869783,0.07963314862975505,-0.04579646119410507,9.91984333461662,-0.15921415627694505,0.1576756494728516,0.0009004117238975134,662.8515306608745,369.11542384964673,650.114177814441,stand
22.437395659432386,0.0936531950387074,-0.060254287659773205,9.918806511091384,-0.04412850893596812,0.1442535931033109,-0.10750997887236709,708.8405939630422,362.46087318286396,639.0591380563816,stand
22.487479131886477,0.04138509932570604,-0.04021611632104055,9.913736111913254,-0.33467705030712364,-0.0906863500687881,-0.3632594946145386,685.6471817408379,346.2943639051202,675.2417558724898,stand
22.537562604340568,0.037878446050920285,-0.07253148431041186,9.946363431051369,-0.4203570152448383,-0.019512841760776212,-0.01852040836339685,685.0392708908988,423.13791404128125,573.4670890111453,stand
22.58764607679466,0.09330448733587991,-0.06276369812935927,9.957356737090523,0.058291036340887246,-0.30264928289007603,0.03346344719750577,672.4808857052502,353.7072752520212,710.5042350595036,stand
22.63772954924875,0.15171899995676685,-0.038406389453777647,9.920371354088012,0.4170157791648259,-0.2799763121380329,0.09054652674718022,730.2495686389076,356.4628441366827,572.8475805351404,stand
22.687813021702837,0.07731952406070203,-0.035273148102291166,9.920688777021798,0.26320962790570357,0.24296604008004485,0.37491514061028225,648.1160802012786,406.3309993870006,619.5935833454851,stand
22.737896494156928,0.0633815456304772,-0.03276497594275137,9.902598030187095,0.26495692736307586,-0.0536874356321711,0.12604267222384388,734.3099691085597,404.2692484318722,720.8704159584703,stand
22.78797996661102,0.1027056781468141,-0.042890958169449295,9.932301595515263,0.185116903263872,0.09255110577881463,-0.49356113666766493,733.2808364780957,354.9791909597597,622.038979483176,stand
22.83806343906511,0.01571698619134028,-0.0846014197618613,9.877692593537367,0.36310262624365885,0.18347297935606732,0.17190942353434174,783.9951062430825,382.06154859249824,650.1546506684349,stand
22.8881469115192,0.06941508307630835,-0.058670710748808766,9.91438646846135,-0.12460480478753135,0.003360821922862238,-0.23016097405301328,640.3149962593803,347.8547333259348,665.7350853684691,stand
22.938230383973288,0.10858135863904268,-0.09385576571433366,9.892406449862547,0.10455936417110338,0.1311221986605238,0.12468831175648865,648.47159000226,383.6363357435026,624.828018494699,stand
22.98831385642738,0.07997377091638726,-0.05383116689434094,9.943398813814735,-0.12547135665696338,-0.7260980619087651,0.3288609824205511,636.9575908721747,381.4694792125892,579.2559505765371,stand
23.03839732888147,0.08516435616568185,-0.01760807270816086,9.930616297621656,0.33328412948627245,-0.2703635374541889,0.40267530551523567,674.1651778897913,450.40327106799646,659.1004983232519,stand
23.08848080133556,0.0709388372647568,-0.054826946308132535,9.891667729883451,-0.03119503689460889,-0.34880472564348597,0.08949560833867931,628.2979720568514,366.63012736363265,571.8910552150328,stand
23.13856427378965,0.08758638558924756,-0.052055515005523995,9.925959912872523,0.15271167337612232,-0.16360504023785763,0.18872300105759376,675.5142718330729,448.9421317245991,567.0363023663588,stand
23.18864774624374,0.0632424894067626,-0.09709757041593367,9.86227671234193,0.18046182834918134,-0.3281668053566297,-0.11315955156758747,613.3487763958534,389.72006388600784,588.063125252853,stand
23.23873121869783,0.08596856352544044,-0.03232951767524886,9.888278524680487,-0.1189989413511659,-0.14588065089051422,-0.31661122131395625,676.0077247610278,391.6639757545686,619.4258231260178,stand
23.28881469115192,0.11428776768698073,-0.06927461609548309,9.945981379346856,0.07303478167404938,-0.11800558323026418,0.27635952484759174,679.2961064669802,376.1683641551923,635.1560741565855,stand
23.33889816360601,0.053659057095042276,-0.11068251742849401,9.916154292622997,0.39098578753804286,-0.0928265169976998,0.12970223820780746,708.8134674234021,476.26022627209386,685.7680583687571,stand
23.3889816360601,0.13421729808220115,-0.09349047982670583,9.901974795633599,0.2681775510829854,-0.49371008310562825,-0.40856161418161663,749.2873338765532,359.32313659795904,645.3956589758404,stand
23.439065108514193,0.08706308909600464,-0.04217229972563287,9.980370068348673,-0.08005538240983705,-0.044748898104153105,-0.04128510035990462,633.0980230857433,380.41958355897765,651.0444909667553,stand
23.48914858096828,0.06777007891755976,-0.11607297279214138,9.833378498312998,-0.18707602678711568,-0.12611259754121745,-0.2495868345660941,705.199209635065,392.853767035865,607.8113612049802,stand
23.53923205342237,0.11946162101418828,-0.05526855080152057,9.89706019366458,0.21455724494724002,-0.08763030413598581,-0.3950070033195814,691.8395039279268,375.8946027755689,559.8162592805429,stand
23.58931552587646,0.11670062126231583,-0.076706027558504,9.897244125146194,0.3187675922229959,-0.06860912250951201,-0.6283243603815315,788.6514265006332,371.50413319748606,526.6502457762043,stand
23.639398998330552,0.0371128386324386,-0.09404629795136552,9.890370122802878,-0.20742763646202594,0.2904429176055024,0.6431087499119934,656.1298192359801,382.5669437325153,611.0966283795192,stand
23.689482470784643,0.0819574763957847,-0.032890771850459966,9.958241886790187,0.5992039418803127,0.1530307689246396,0.18497701937848254,701.3826431258251,358.4328960645163,636.6229824282976,stand
23.73956594323873,0.06716898785092182,-0.05652647541436952,9.958608226354755,-0.06880388231359068,0.21214013653217773,0.5144454264543227,737.0696054705994,374.8305934638412,609.1604655772665,stand
23.78964941569282,0.1049947203740658,-0.0904676984908855,9.899179134186078,-0.3365749956270441,0.20058221688577932,-0.34045792903053024,663.0985243013255,453.59206806049804,605.9752414983561,stand
23.839732888146912,0.06033927818060558,-0.08133896412111168,9.854292168775647,-0.038072181083201796,-0.4394416942412967,0.37639935032859817,639.8465345517944,435.80994675908585,649.6485877623536,stand
23.889816360601003,0.06016507540259515,-0.0386711674869796,9.909684841275583,-0.15225962683502872,0.2520571622981436,0.09260375267339804,740.2274406127417,350.0090059338151,587.3125641452837,stand
23.939899833055094,0.05866265786338101,-0.06106347954060121,9.898990179998394,0.22177760199673344,0.34261054585475104,-0.20118377943859345,611.9758433859603,387.62868231536174,630.608017215081,stand
23.98998330550918,0.048582819869151216,-0.07367641490025938,9.951999461869917,-0.19810933251245239,0.012936940171352192,0.016639472668119788,698.0262501529473,384.8854310470373,583.1844963834448,stand
24.040066777963272,0.03977490356035012,-0.08298672391800208,9.901241075562806,0.6132494275298829,-0.10211574084964661,0.12767732651654015,751.2152239556517,471.5229132525757,651.3617148287289,stand
24.090150250417363,0.08043797276835381,-0.05768832693368917,9.9843592704945,0.06808073571704432,0.02472693915971378,0.06828368644441239,665.5813764838275,383.23469505343195,595.7725663049468,stand
24.140233722871454,0.08955268931854543,-0.062067357115078554,9.925446018342674,-0.18819102389203013,0.06638599677688353,-0.14560424356923857,660.1279394327306,346.57781851752884,587.567659953485,stand
24.190317195325544,0.10105812261315794,-0.06108188537040448,9.947455896099749,-0.14043415188597413,0.032210449752039946,0.070805552555879,708.1228901391074,390.8044110017263,580.7300467971263,stand
24.24040066777963,0.12520317296236858,-0.085669442860177,9.992865479095551,0.07656379814440843,0.16119048400979832,-0.03149236230273745,612.5877789856511,442.0456434701433,543.4007253545118,stand
24.290484140233723,0.055915171241128506,-0.08148586608326926,9.915855668773135,-0.19187139239297174,-0.14765995079284253,-0.1947454850094797,620.9460552415079,341.4044280189471,650.808207785495,stand
24.340567612687813,0.0760927149291975,-0.03720729005040055,9.93610772018052,0.29879131527491776,0.3692310342376483,0.3821612732786047,675.1579215513059,359.1773043580172,584.798454436128,stand
24.390651085141904,0.11824849032443861,-0.07617364000182579,9.937119523961272,0.08495805007377864,0.08747149331538182,0.057641000224806865,664.1248445403263,406.04743252871253,561.6055621874223,stand
24.440734557595995,0.10985133120112962,-0.09104302463249923,9.923087558265586,0.22476961366303716,0.23757704701678156,-0.051809057324889364,621.3560263032603,364.87029558633157,570.2005855008351,stand
24.490818030050082,0.07119343772593632,-0.06652318728572795,9.885713564557532,-0.26326333752520853,0.24409105317699042,-0.28542922574096413,714.0396508295086,384.10060360371244,671.0736939211438,stand
24.540901502504173,0.03199092840159831,-0.07315577628708374,9.949849883952682,0.23402309153848877,0.018610142939906087,0.21694784895194547,593.397575273209,381.43167550424255,643.6299177269531,stand
24.590984974958264,0.14856292239409166,-0.05343224975249608,9.983387912496067,0.016942974611175936,-0.15232045373559727,0.172816337626055,783.9435621421005,405.83545519135663,608.3093677911659,stand
24.641068447412355,0.08332668835195194,-0.05467764138942953,9.965285672463857,-0.45285117700774974,0.4251645659875944,-0.3015565724824756,696.8370364093515,337.3776567147972,690.5198243779927,stand
24.691151919866446,0.06961431193256834,-0.09153210738103243,9.92178268182674,0.1846914006792015,0.04396441683751678,0.02404147651633754,797.1091316509754,424.3075557765207,687.3018583403568,stand
24.741235392320533,0.01810703330987072,-0.061082667978199494,9.942760764202792,-0.21688057558425022,-0.13984601627939156,0.30430136297134136,721.9688400047835,411.9267730355774,614.2513452875514,stand
24.791318864774624,0.06323137831597746,-0.051470951368162196,9.966562296194088,0.10996534788190507,-0.25336925572879804,-0.13184319018270427,694.2980751281005,412.93648455690357,640.7876394781124,stand
24.841402337228715,-0.0073172153111689675,-0.07871054597233354,9.95731983544241,0.2648641027235344,0.26056911732905724,-0.09220083593852829,613.7213168216138,409.2547740233737,662.5879080684606,stand
24.891485809682806,0.11255874998746782,-0.10338002842339222,9.872733374815668,-0.5928367199094737,0.1835425247289559,0.1757794944261,703.4768274905061,361.5337374371863,668.8588586951757,stand
24.941569282136896,0.07976273094053732,-0.10065268865082552,9.87530024048241,-0.19987333658650977,-0.5897201684262373,0.07979499690747544,634.5480373774028,391.5785611646165,631.8794232165918,stand
24.991652754590987,0.1364993146859582,-0.09626937852311546,9.941530046726657,0.13160695647109588,0.012749239327232749,0.09444295998169809,710.175960703639,297.56277557764605,592.1571866460306,stand
25.041736227045075,0.06067473604296457,-0.07673168360563432,9.885229824596877,0.20881652217035554,-0.3207532255419523,0.00974358233231245,727.1644987673926,430.7695574352302,613.207406923837,stand
25.091819699499165,0.084549807460627,-0.07763850979110212,9.93341845640455,-0.25763703239154767,-0.15782020371274377,-0.1678055512234637,688.1016068793618,372.29298041408344,597.6746595541838,stand
25.141903171953256,0.07130309372339698,-0.08489227901615942,9.944619986324183,0.23455919295698294,-0.5641216763001691,-0.1591966618626396,714.1106707351182,375.8456308458365,606.4944266000068,stand
25.191986644407347,0.08406382153966521,-0.04457268339754934,9.95663521004416,-0.099474599437758,-0.3058985602496334,0.016668076184567362,680.0257700702064,410.9402491720513,644.7751303981165,stand
25.242070116861438,0.10421137724662373,-0.06839205987235807,9.919955791926359,-0.04812861482913171,-0.21128197481539723,-0.1499054319129236,701.4883442070152,398.35089116979935,596.2103356414618,stand
25.292153589315525,0.06072785827537696,-0.0642255716994764,9.92856154833054,-0.20642252220621646,0.07183112244770383,0.24394993891633932,595.8300835340804,372.76170691115595,588.7513695386369,stand
25.342237061769616,0.12541478067737005,-0.039960377455766014,9.909468247333079,0.1294901898553314,0.566927289910257,-0.0991462855644239,655.697768993965,331.9593983618929,670.9908237053713,stand
25.392320534223707,0.09625779854671793,-0.04287863405388982,9.973681637701198,-0.33364851645381094,0.0540876420218474,0.18054590008922927,638.2859413956681,458.1892518835748,583.3039801675261,stand
25.442404006677798,0.10389186604699209,-0.0844528995312343,9.945800369110769,-0.34055211681486797,-0.3041339645962881,-0.07088696511117616,672.6779219855921,379.0355971991021,639.3127561610178,stand
25.49248747913189,0.11266676135678039,-0.06063899028155086,9.871535933956077,-0.0879688364407333,-0.2943699184017881,0.659039253430966,718.3703613162558,352.29242544053653,640.9844866551182,stand
25.542570951585976,0.06199521829225904,-0.1474539310688422,9.969669703180434,-0.24399796048548905,-0.03356099813348248,0.07312734174053602,636.454285866774,377.8603660809683,691.6204380167263,stand
25.592654424040067,0.11277509728907673,0.012650555005330646,9.875800572296551,-0.16510908477321726,-0.22576693645823892,-0.10320453662511477,603.5202233265009,381.7908697549057,651.6291811674859,stand
25.642737896494157,0.05614310267172504,-0.03880863077250291,9.914543929632783,-0.0893158175872465,0.03438759317531276,-0.32941594860125756,673.372715959321,345.7462587654499,593.4829644360179,stand
25.69282136894825,0.13819440685770365,-0.06885251007865417,9.92619034903117,-0.11925551775890511,0.22435911304186862,0.07689794633662704,720.1711914480876,479.2447074003238,662.4238737243296,stand
25.74290484140234,0.0959992602958396,-0.048752804830548724,9.937110615916577,-0.08250025734817001,-0.15645422009055057,0.09006495004036874,646.6232953471524,393.6084142062732,578.462855766777,stand
25.792988313856426,0.08547404020946722,-0.07069189204901481,9.92776716628551,0.35521065823807774,0.05130101474905163,0.04291785903917226,689.8754982059386,380.1998722608788,629.5151820082423,stand
25.843071786310517,0.11338342057154488,-0.04208577957658155,9.945710896623888,0.18576154984453938,0.263377537515104,0.07707452176587436,813.124107013526,398.20839010622296,646.7757258053228,stand
25.893155258764608,0.11753497756514586,-0.027972521160158977,9.938307659887084,-0.313366114804365,-0.045392998602596,0.1309514799589416,654.7889204367916,374.6797620460454,651.1071563492216,stand
25.9432387312187,0.11706647078041284,-0.04073760446192859,9.889126608926443,-0.1515745525503731,0.19425964376658925,-0.07781738902726341,720.8354378324611,340.5734381233353,586.6561551017585,stand
25.99332220367279,0.026580316434193334,-0.07071363406361662,9.954592104402396,-0.36040593111214153,0.0013654205561193092,-0.3358526649538596,648.3313610750936,337.6779123568718,634.7867263078034,stand
26.043405676126877,0.09669403465360668,-0.13293490920793954,9.922423005030867,-0.15969814744426955,0.312514715424582,-0.17435108670644012,655.6437767053764,373.15021783083074,630.7170083823748,stand
26.093489148580968,0.06207084233052859,-0.04361579743384397,9.929521473375281,0.26014020774563373,-0.10270277691111382,0.28190643381193475,707.3971274930997,404.17663837847255,601.4010793864938,stand
26.14357262103506,0.057876596396657744,0.030891051883427362,9.952798342143021,0.3693326311664783,-0.059229811937043075,0.1562835434320875,711.243472369703,402.71279884217586,596.4152757043046,stand
26.19365609348915,0.059679888883614286,-0.04604770419791817,9.900736558509147,0.05187128858821207,0.06169686646627049,-0.20460159493064053,714.9843495377615,364.1909669452582,681.556226874783,stand
26.24373956594324,0.0668977708901857,-0.09177398079886337,9.901591542661002,-0.08410164323029409,0.44640956097678947,0.2690852793615429,682.2332735654558,376.88532053129313,622.7876446157699,stand
26.293823038397328,0.06914321294247398,-0.10389722514958812,9.881289196565747,-0.1748352979448736,0.21078493045020574,-0.05303307141250602,639.7176584314641,394.3967616768466,642.7960510016835,stand
26.34390651085142,0.08002154616055665,-0.08211219060898851,9.901123390313245,-0.26377962663260324,0.04723349759748072,0.25971287375533286,667.0429970974429,384.5366468891012,664.0039545650887,stand
26.39398998330551,0.06881738372839365,-0.0878638165833092,9.9485783107919,0.0047787977309201105,-0.022765337951620133,-0.043789277569154246,654.4667737414874,282.55380947453483,616.1784512619591,stand
26.4440734557596,0.0840411193159726,-0.07942057343452964,9.913478422169502,-0.025336979292867944,0.3203080184379699,-0.23483821691870194,673.1570621575854,330.2358923693748,582.5243001197148,stand
26.49415692821369,0.11388523851507462,-0.06407057455229571,9.935321083373758,-0.15386181805507365,0.1467638574302635,-0.399532640526422,638.8726216877063,408.8404910022607,632.9295392096601,stand
26.544240400667782,0.07547291427834199,-0.023289596327553716,9.886744419271462,0.2372758366942567,0.07257270449378334,-0.08959801140771807,728.3459950705626,367.71315310196195,656.48531916436,stand
26.59432387312187,0.03234543242542892,-0.09853243697033323,9.86771867034611,0.25441055940107754,-0.13693639011616557,-0.0552115725570918,698.6628870706495,340.41372160887903,646.9696561428327,stand
26.64440734557596,0.08073015427240272,-0.0817832873395589,9.839125257616162,0.002210614715048673,0.06533905794777103,-0.0057884665500997036,645.0083641679663,403.2116295038154,584.170490784139,stand
26.69449081803005,0.04783987610868372,-0.11751599518994418,9.939227151872426,0.3716616855461711,0.08824057828647304,-0.207229531649008,725.641988914606,365.4939927618031,674.5100114933392,stand
26.74457429048414,0.05218609343219306,-0.07637002909479769,9.916798915561897,-0.18994300831525454,-0.4220698582339823,0.11107244587496731,695.8538619859804,416.94597916681965,623.1136931157793,stand
26.794657762938233,0.04488338009386606,-0.010537389544458639,9.9135442527946,-0.17902510735625615,-0.15387512424018937,0.24633542346205353,712.1719204123175,366.538487599892,623.0742790375092,stand
26.84474123539232,0.0728784875269482,-0.07078671143851371,9.919632570489346,-0.020427743484333027,0.2195852526783903,-0.1703750114142673,623.3750421534484,325.9718450691952,668.5843056191895,stand
26.89482470784641,0.01275185952595942,-0.08847628263058033,9.92586977880105,-0.06662345239858215,-0.24652369913410002,0.16856444433503345,645.7597243899331,398.6327651951429,640.7528900782802,stand
26.9449081803005,0.12605608543171043,-0.026719838701224442,9.939071404556277,0.3827183770992304,0.4889339355554446,-0.5050711263189149,653.6111941691981,359.500374981607,580.1782545557683,stand
26.994991652754592,0.04920493228039923,-0.06379187517964263,9.9248720907004,0.37746782862346684,0.5809321064974479,0.07321136532883873,628.0269806792576,399.3708340298332,609.490545671375,stand
27.045075125208683,0.11804138273738793,-0.0475845415394713,9.892071761783434,-0.155781464723725,0.13955165171256792,0.3164698854148414,685.3115033410777,374.9553058171242,706.7491119887285,stand
27.09515859766277,0.11173466772895066,-0.05870263421022695,9.896604848695544,-0.1541256541283403,-0.1922162434387653,0.061210682523809436,676.1888172556189,435.06383760317317,575.2781341036764,stand
27.14524207011686,0.10008526904280374,-0.077137211733557,9.936891683526387,-0.1997491471450075,0.06152484611293578,0.01278182037097494,708.8821966236255,362.7246398558398,656.3892820813866,stand
27.195325542570952,0.062191706263212604,-0.03308210957332138,9.950094565331222,0.004224399296419101,-0.6009460118189631,-0.0492746524312598,628.706250585743,369.70824499605766,681.3586193340602,stand
27.245409015025043,0.09535287777039182,-0.048453870381544716,9.941571890519574,-0.5338183974321463,0.06848129248506363,0.06557639941515314,594.881925954626,326.2382890694263,690.1861714805641,stand
27.295492487479134,0.10917533060623469,-0.06633898805800273,9.91998090352016,0.3049598295360683,-0.2767135248433056,-0.3038744460498089,693.8126287035116,382.1922324018058,683.408320884014,stand
27.34557595993322,0.09895591998037975,-0.09405214613137942,9.930333593061594,-0.0769931907298748,0.5753394727491327,0.1280199545762525,671.255477318718,337.3724280255688,581.1593278030768,stand
27.395659432387312,0.06919121630031688,-0.023637867401486594,9.934077934512322,0.10610799952809484,0.07868148470365646,0.08477942085650776,637.2705695813971,348.7077088571056,667.0823382661357,stand
27.445742904841403,0.054335675898843985,-0.056007943822292613,9.929352863652376,-0.11931764942756949,-0.1032188375484112,-0.1184245931694402,708.3944745522352,350.452145830948,676.9827033012124,stand
27.495826377295494,0.06347237132013614,-0.04237718320596718,9.94814027790927,0.055654091046961285,0.15515095136944212,-0.014056760050018184,647.8900307005509,385.75496802819475,593.828233753839,stand
27.545909849749584,0.04588794039074616,-0.0589871044689259,9.881178941209035,0.45167395954010753,-0.19149458310083894,-0.07950308910566392,646.5019474243749,346.3271573278096,651.4417465624153,stand
27.59599332220367,0.1317108110988548,-0.05126363952385922,9.899766526489882,-0.09864832770463182,-0.27137560823120344,0.2393864890616494,659.2260746584869,401.2425857105121,635.8186695285758,stand
27.646076794657763,0.11316055808009925,-0.10801283838926404,9.899309261448767,-0.23571541098076257,-0.2995253223811135,-0.08937640985538815,622.4229915314849,395.97894031852826,625.8592080074772,stand
27.696160267111853,0.0796259786192066,-0.08582288505990456,9.935079099961264,0.18264604458745418,-0.30322116797716475,0.043272625778832625,676.9406263145577,345.1025821818824,597.5524454031879,stand
27.746243739565944,0.14257488048359582,-0.12029366312892925,9.929556839805198,-0.028931758726275902,-0.1489359230912253,-0.10884041865753621,705.4700785221169,294.14796503353523,577.8892146204025,stand
27.796327212020035,0.09401587584818706,-0.05832883919413473,9.925407564946346,-0.029571408838537743,-0.09956885942431279,-0.24601910853323425,639.7876187598484,399.76087624254023,671.1521646925153,stand
27.846410684474122,0.06605106013175861,-0.029212634342591713,9.94756830345407,-0.06987548918354348,-0.4726122423765035,-0.06240542501936782,715.6032981381258,376.5970892143276,666.7547803225185,stand
27.896494156928213,0.11068859591756051,-0.03757225558186006,9.89421036851781,0.2951845471518679,0.023322614865575284,-0.15380863816487342,620.4632948112304,401.04900204352475,569.7112291995306,stand
27.946577629382304,0.03646706253497709,-0.07634753305595009,9.958966475030785,0.4667674497079629,0.35698891193049265,-0.3360804964349806,732.0729010321047,375.54763186547024,567.1731619217222,stand
27.996661101836395,0.09596618642554214,-0.046092324168673905,9.935685605727212,0.36672544206318036,0.5290765368072854,0.06359718424929388,573.6887660045732,348.05782665729714,655.709111318883,stand
28.046744574290486,0.07651059673002204,-0.06255187282338903,9.905919615805523,0.24185773276622402,0.4227301174297666,-0.632916364625003,661.8466299021504,392.95164130941475,562.5385650364562,stand
28.096828046744577,0.05188232077450815,-0.07686174129921365,9.97843250150959,0.11897874628162336,-0.10131325405928261,-0.5051514272926474,650.1556508247238,357.9068512094947,588.8050204196329,stand
28.146911519198664,0.07142486074773385,-0.0596477656193906,9.918149819403165,-0.010325084248538313,-0.18336151822260321,-0.16103545253361357,670.9830055995634,331.8599775085127,652.5039383174042,stand
28.196994991652755,0.055996681322991196,-0.007410428069480619,9.912770155172428,-0.012134878008166587,-0.005643332202972557,0.31104931185154355,655.9379585852872,426.0682568729899,646.4332086508574,stand
28.247078464106846,0.13473416447537093,-0.03110725655597179,9.876439455966839,-0.0448417084317661,-0.38174040167829554,0.014212103123964325,689.249679732441,500.6349568908454,649.305592608727,stand
28.297161936560936,0.0860235766181987,-0.09936652603151588,9.937813803714327,0.01901859268323618,-0.32226879141292675,0.04624909738716488,678.445355778889,384.37258146509447,652.1352235720822,stand
28.347245409015027,0.08565712529817003,-0.09269821157613212,9.931921550750705,-0.03210620424256173,0.023162024762150638,-0.058893321232236236,691.7468177206774,412.69519587918376,674.2080734951584,stand
28.397328881469114,0.0681556500218832,-0.036845580428567386,9.906391564198996,0.24956959650194344,-0.01517548034788276,-0.40334474664706943,731.4420547732761,393.94283269320886,591.1781320432726,stand
28.447412353923205,0.08192772555919013,-0.059618854150137596,9.947199840953793,0.0751723275528256,0.030664691066461944,-0.5923809274270455,642.5768163965572,330.0315126124011,605.576692503567,stand
28.497495826377296,0.06801646733195447,-0.07833289194007403,9.863338900732439,0.3925910256449241,-0.1315213268800188,0.10625661348323598,657.6529817032911,407.71878213948736,605.3822964494602,stand
28.547579298831387,0.10323949627604656,-0.04325688470406573,9.887695349732995,0.3473140331860053,0.33641627065977964,-0.19157411038527777,691.8453198078864,341.41634201483646,648.9706790763148,stand
28.597662771285478,0.07263212076857277,-0.04440162805257884,9.927040125309938,-0.12672301855557666,-0.26871552409004945,-0.01568076379504205,646.0268559342306,374.4828334436737,560.3818448163818,stand
28.647746243739565,0.10942042257272638,-0.04013161187994538,9.980562131927309,0.19893134545254398,-0.20592550099290202,0.00576937879548818,628.6232797334295,373.33106070800073,631.512854044306,stand
28.697829716193656,0.13040531588019955,-0.049786779794598425,9.951523117527902,-0.22419387475371746,-0.0942371684048197,0.18420205777660148,719.9198879166312,431.47724730008434,685.437976024056,stand
28.747913188647747,0.10102667777574556,-0.085764274489259,9.904997257210145,0.04449854656764321,0.2580688458622963,0.2275361402713545,683.863670918571,356.72514059626667,532.2883999455669,stand
28.797996661101838,0.09022603659668366,-0.0957447002142118,9.864172687795401,-0.074000993357767,-0.5251089321579712,0.05162233400557569,701.6249507985801,440.4999426574615,616.6756097202879,stand
28.84808013355593,0.04864444451834099,-0.05449890086197357,9.92190286382781,0.1884179264960411,0.3789293150332962,-0.002591506217583748,668.772748224838,382.44767570744426,640.1631817592224,stand
28.898163606010016,0.0744356606911522,-0.014152009392050614,9.916639713837549,0.11559538315624572,-0.5295925784139867,-0.24061661372620394,626.9752933768757,362.669804808954,623.2832835614212,stand
28.948247078464107,0.02440779291381457,-0.0690583285552529,9.878864061997728,0.20099372770197466,-0.32068377906645273,0.13716792082116053,680.618934726226,356.4383901541166,633.1062459379947,stand
28.998330550918197,0.1275062494347372,-0.046942612841954265,9.885520369063942,0.20734996351658966,-0.12564464849386392,-0.07700055899933403,681.4990103748529,326.4713298557828,605.653038756267,stand
29.04841402337229,0.08683306766493562,-0.12197735907040705,9.881920683683571,0.11289734939307398,-0.41655478966359666,0.03510417834907236,677.5673700904715,413.87990045327894,682.772135672945,stand
29.09849749582638,0.08573192887189512,-0.10512848498209644,9.882702779854116,0.20871925670068375,-0.3199176210905869,-0.13619407276891118,644.9638220213089,328.90664102095013,560.5847135157605,stand
29.148580968280466,0.08228858228613864,-0.042631115787407955,9.832626575064332,0.028352546522338092,0.21952768178320423,0.10752527321708599,699.0600998742227,341.7940351545977,650.9959103895638,stand
29.198664440734557,0.05959206704002705,-0.08871605856054833,9.910343244127972,0.16087931553558493,-0.6098439076250067,-0.5345718265746796,740.9283366584509,361.13227835990995,584.2569550842362,stand
29.248747913188648,0.12595886945511153,-0.042351379453438164,9.931412611405023,0.21912299768474913,0.04692796214537835,0.17168219720535707,679.9226078723084,387.3527604848675,569.7547753987619,stand
29.29883138564274,0.11875778942106098,-0.07567558441109748,9.907453875906848,-0.07731502707802447,-0.16411018703850447,0.08526120315746834,702.0534505620583,336.2854312353855,520.56088980264,stand
29.34891485809683,0.0847330501697502,-0.0834422384324417,9.895159690467288,-0.0005028198643258174,-0.008654492325233402,0.10351333442879483,593.3688217683366,405.5737077206944,631.0342410422146,stand
29.398998330550917,0.10375992619321736,-0.05140538152046356,9.904454779237634,0.24550713510606123,0.08106776307363703,0.284338590978593,632.3776693493911,383.4741615139646,679.9443136333945,stand
29.449081803005008,0.016467737261754004,-0.010030473186519902,9.944180244470763,-0.362972390455315,0.17072154858885302,0.07665794655911322,668.1361197768853,353.63756124312687,654.2157682615523,stand
29.4991652754591,0.05537415378723978,-0.06451199245241233,9.895197984736411,0.25331221144212984,-0.7358727370323752,0.17330444826102898,709.3554677283576,381.8602889245511,654.4505510911118,stand
29.54924874791319,0.08753727208478615,-0.045142548760415194,9.899771810691153,-0.2396608551073,0.18929282327657063,-0.1448082550333121,727.0244163293681,370.92303185675644,644.6585014445385,stand
29.59933222036728,0.07940397262877534,-0.02920937720200373,9.844961081407325,0.26137244193537107,0.050080731950038045,0.09888693332941281,749.7290222420025,401.43830686387685,720.4761261085954,stand
29.64941569282137,0.15550416537693307,-0.05136301000401422,9.913490865167612,-0.28778502553594865,-0.045085391679199886,-0.4118420372157511,712.9064587856554,377.85640394785383,576.463442096609,stand
29.69949916527546,0.10254354353266648,-0.06314739149583765,9.958506173818886,0.2867485544003383,-0.13335997843895772,-0.2487390135256629,697.7549459294605,372.8642233639306,555.3735851178129,stand
29.74958263772955,0.08639620395736733,-0.06752765618915074,9.908788113881524,0.10724319449406153,0.20419569817967945,0.17375370518550737,705.0660083881309,369.3921162311703,605.5613288014624,stand
29.79966611018364,0.07825458764697782,-0.0708938583050417,9.87128091756983,-0.08813426706348201,-0.6566372583400781,-0.4934621213931851,635.5565439411424,362.5165583588116,649.5494037160348,stand
29.84974958263773,0.10352718826430338,-0.022253939360035543,9.948740358023214,-0.13909982546414745,-0.06908410452707188,-0.12082062566662177,678.5018253857796,338.55849609658924,555.8216356865711,stand
29.899833055091822,0.04728370997580561,-0.06435502255016266,9.930458336299374,0.09307369420243247,-0.013357894804499193,0.1574461303578451,804.2794978182375,392.5613591523101,596.6036476623707,stand
29.94991652754591,0.08244473965561849,-0.016851275506952486,9.929024099898035,0.013568786400546248,0.06577216556638046,0.26778754056308024,704.2958141518884,504.9881120729873,581.4350961156806,stand
30.0,0.00831068503990455,-0.03805746876382357,9.931508876134748,0.11402212998804401,-0.2711384093909685,-0.15715961562817274,717.1427864947583,388.2190574891274,660.2739818996066,stand
