timestamp,ax,ay,az,gx,gy,gz,mx,my,mz,label
0.0,0.15947283588673972,0.22745041851128361,11.478676680184156,0.9932532859020251,-0.16406801023921525,0.0057901491293710725,692.8734430365869,379.9648782074731,566.0171143175119,upstairs
0.05008347245409015,0.7112985292172372,0.6210144830400957,11.669858898483522,1.8146747259058476,-0.6261461077908934,1.3499520131871028,584.1494166208167,456.57896117416,529.1446659307571,upstairs
0.1001669449081803,1.1225262517099988,0.653312703640299,11.43241965386075,-0.05699016715191587,-0.4360756104186916,0.6662323513266977,654.5562500896581,332.29304567846964,672.7886569056113,upstairs
0.15025041736227046,0.978301996555831,0.7495106304566861,11.095678212792603,-1.4171307898187293,0.3297328599382191,-0.8530185918993399,635.8932304633952,369.58562819560814,630.3474101926802,upstairs
0.2003338898163606,0.8174072296803802,0.3373705027050542,10.212555054557585,0.754356773210962,-1.27926935665231,0.7284451622308665,725.4292134355035,359.63368968192435,651.4187710774947,upstairs
0.25041736227045075,0.41285420465375805,0.05318594861255006,9.246147723871095,-0.33498524399288204,-0.8408427192244451,0.05566545911768925,663.2155330546051,425.963113037351,623.6391875740368,upstairs
0.3005008347245409,0.043405005510628855,-0.040371378732162955,8.904707769336062,-0.15101152462955575,-0.6902492620636339,0.25185260093380935,663.5939713169834,352.22459339012573,643.4966647200002,upstairs
0.35058430717863104,-0.2209647976035229,-0.48773170847667036,8.790486720898413,-0.17486377142912649,-0.28112620915605097,-1.5287406116250724,699.7333277388736,430.6273780153188,626.3333607318602,upstairs
0.4006677796327212,-0.41364175861229135,-0.8290124544705844,8.223986717799944,0.2319565415296199,0.6212539065938231,0.5733509747207226,704.2228821746468,370.9980502967383,541.7960365183476,upstairs
0.4507512520868114,-1.100743882113022,-0.93466276855806,8.648084659434847,0.42295790341144096,-0.08367266502623741,1.7879558678206746,690.4759000471784,370.7655848262026,614.0423704004545,upstairs
0.5008347245409015,-0.5118007391746353,-0.6940054151854,9.375298486968468,-0.144236800877263,0.370804717322978,-0.381941500512481,606.8986646279834,425.52575497580057,592.2652732006334,upstairs
0.5509181969949917,-0.6534737693012289,-0.2730175604446854,9.990043102283138,0.2639160576609708,0.07669918822933817,-1.0208859096365068,710.6532859435325,409.14897887892386,553.2944198461288,upstairs
0.6010016694490818,-0.41500565828479147,0.1642125574435631,10.895267952106725,-0.4960348227128829,-0.49957795683832623,0.287314599834804,713.6626564971349,366.8059092740717,565.1564203927464,upstairs
0.651085141903172,0.4002501402046689,0.5454584813404939,11.210574251701436,0.7012093123230719,0.1972391757638739,0.19304352163494248,781.7497947645661,328.88739834994277,612.3690508563532,upstairs
0.7011686143572621,0.8889706424135965,0.3566121268972929,11.473481858124567,-0.5649377306544409,0.39459354140069386,0.7924897979490011,730.3306717773196,332.85540415359173,688.240688102368,upstairs
0.7512520868113522,0.8508410897212705,0.33582401711438936,11.675020453368758,1.463424332420249,-0.5852034036728786,0.9678897234877402,692.3002011295505,367.39445030685425,639.7867445480534,upstairs
0.8013355592654424,1.1511087404314126,0.37205806148800447,10.797241859054232,-0.622615381139581,-0.3162301472524632,-0.3755100454101205,646.7108535137203,436.45754215678664,640.75044008885,upstairs
0.8514190317195326,1.041599489653858,0.17424616557680492,9.772582836687018,-0.6576343031512499,0.4900703956154175,-0.09321420478693387,641.291288719092,402.671670133842,539.0879429442475,upstairs
0.9015025041736228,0.4007971871477234,-0.3664833942354007,9.206033960035183,0.3817290995363323,0.8437300661298647,0.3363783890173178,609.5188833676156,362.40572968953376,635.5481463517027,upstairs
0.9515859766277128,0.04374352723916995,-0.3108936649120985,8.715642872947408,0.21797153084285167,0.11994901679605856,0.16318104369071978,671.4849649104461,409.54310050796306,625.7235165486173,upstairs
1.001669449081803,-0.36180191970336417,-0.6327166866981877,8.339226298627004,0.8805249062201096,0.6067968852279821,-0.1435906302294949,731.4264033571031,407.173757016155,739.7242751810184,upstairs
1.0517529215358932,-0.8897202138798067,-0.6495097966565602,8.60576739577427,0.1722824792450778,-0.037652274181905844,0.5366018644262631,766.7348522707241,423.20547033831616,619.9869550499503,upstairs
1.1018363939899833,-1.0805282759272399,-0.9371226213697006,8.987405591768384,0.5088274684997236,0.44503151802445745,-0.7429029176820445,727.4882443052185,365.112740475326,607.1457122136233,upstairs
1.1519198664440735,-0.8290553927111894,-0.4980385524892254,9.861650303747135,0.4791211512324834,0.7509978030286477,0.4353987137877997,731.9859913003725,423.7809377336296,666.1349560650688,upstairs
1.2020033388981637,-0.568455989016945,0.07750660878666066,10.42385715310282,0.6453705115853092,-0.18251839711098441,0.34343556000651143,680.2315878508682,416.2625768237847,633.6348009983406,upstairs
1.2520868113522539,0.5296595127076954,0.8929718755045979,11.030125338451086,0.5143690077232157,1.587265410604567,-0.4418414016395233,708.5967397264671,379.0220941304475,587.4439260168132,upstairs
1.302170283806344,0.3917018830989387,0.24934304324175727,10.98358983923807,-0.2906917367302832,0.14145224430052622,0.1358477334987797,618.5171054176311,382.13603714602175,641.0459709217604,upstairs
1.352253756260434,1.0217057924015231,0.8313882917832922,11.311835962249027,0.2479251261021967,0.05681704465347763,0.057082285230998064,665.4168576848338,387.1574020792033,642.8337518413502,upstairs
1.4023372287145242,0.6969755879250488,0.172924613427149,11.06908987101822,-0.2672526132315393,-1.0216321713682162,-0.0818830352204381,662.7673988550991,342.9213309621523,609.1521532210285,upstairs
1.4524207011686143,0.9993553821492874,0.381126081035643,10.51409698191042,0.22108516383868113,0.13424013109353036,0.28701388555390533,649.7677611435131,352.86570276455285,627.1308441589002,upstairs
1.5025041736227045,0.739077573244394,0.24721368232053703,9.100901325423067,0.4284626901894036,1.5982060131161775,-0.7580727494883481,701.6956691367935,454.63074240618664,661.634178446944,upstairs
1.5525876460767947,0.15890123892067765,-0.14743429869528882,8.84918225978589,1.1719928957523085,-0.41478975980527527,-0.41314455584120613,684.0173186323011,421.01907512733885,674.6800496226969,upstairs
1.6026711185308848,-0.5340852387133161,-0.6038325907253759,8.618002117929509,-0.423293838614617,0.8913289244965382,-0.06698662488368841,740.4408312092904,384.7695689985121,576.3555158947156,upstairs
1.652754590984975,-0.7300263839080797,-0.8133360140880652,7.944579402023312,0.8199622832237328,-0.47747983212964573,1.4830155349152447,663.8326259092295,391.967088878114,584.9897124390461,upstairs
1.7028380634390652,-0.5909698931656421,-0.33289750848506133,8.508483784246307,-0.029305178483340615,0.10108971456833801,0.3410753993492718,668.8905430649337,395.63185286616124,636.3189368244946,upstairs
1.7529215358931554,-0.8109801691040559,-0.4250707287427628,9.660128506422271,0.4122808196035588,-0.6613621171863023,0.32680720879623615,656.7901194691575,417.43816657942983,663.3823468238411,upstairs
1.8030050083472455,-0.3493301489127773,-0.22383521176664653,9.882344415911176,0.39956875973997513,-0.7006324854783355,0.04126314257242298,665.8073046456483,369.4973648566301,622.8616426617215,upstairs
1.8530884808013357,-0.07669361163909648,0.0098386489479175,11.233021473417056,-0.21714564331217961,0.10672917958681136,-0.4139870568420708,689.0301206379526,360.6849051797672,588.9224860210226,upstairs
1.9031719532554257,0.33349849798029946,0.36735859580966557,11.374267931635847,0.6471498946701807,-0.42546176936070823,-0.5421058074548414,647.2267973240496,365.22751420079146,624.7073934360692,upstairs
1.9532554257095158,0.9076844861207238,0.6357609087027709,11.296517104015866,1.9260409304243271,0.3065408079074804,0.34325066500705703,721.4881159304114,390.04713897886813,585.3243916963224,upstairs
2.003338898163606,0.8616582122633916,0.7700053758396401,11.380993665695287,-0.1688390738447055,-0.42829991748131985,0.3867161030331748,636.2114283020857,399.2089712591861,609.7501979130976,upstairs
2.0534223706176964,1.225606482574733,0.48645234311061997,10.805742717095056,1.2780913904529883,-0.14360143413981266,-0.004730840318613295,657.2361316928536,384.4398816942991,662.1011820391494,upstairs
2.1035058430717863,1.1237771051759269,0.2936148654532026,9.901243542885318,0.8262567447600223,0.15959991958431666,-0.5379466865565545,641.8889286605942,399.5024862425898,676.0525761167823,upstairs
2.1535893155258763,0.7930091213934435,-0.3397508221894859,9.124538634723375,1.2746210121345591,-0.056853876459731986,-0.5439455891969461,679.7558485385009,376.7967594618698,647.9062033988083,upstairs
2.2036727879799667,-0.31075311597853644,-0.39912384031978304,8.39038580139623,-0.7935447898926896,-1.4378389583498343,0.21832441402439892,719.849324647549,378.58464059577733,550.3351065969434,upstairs
2.2537562604340566,-0.550236009320354,-0.6344674004395559,8.722472448400287,0.3419572963009666,-0.32027943024020694,1.3868976758531428,706.9929389890112,437.93618203176334,616.5024352727766,upstairs
2.303839732888147,-0.8144779575121271,-1.0216828471817043,8.477261372718571,0.5278288059356613,0.02721772676576846,0.2330939136617032,664.6726030784852,350.6121897448228,653.1307798161571,upstairs
2.353923205342237,-1.1635073917480994,-0.9908922104073823,9.054382742655717,0.43678063343011286,0.5409148004794917,-0.9916328976938115,642.3617708601373,389.4972078384731,533.3254632112526,upstairs
2.4040066777963274,-0.8569366257402967,-0.11709809193930515,9.475125738609426,1.135331361237985,1.3778264496135617,-0.6348513800678871,671.5900272487053,355.64505314133964,604.6129306607631,upstairs
2.4540901502504173,-0.48832287533257596,-0.0691167587620974,10.463088195917916,-0.16966100020501196,-0.2758437651909161,0.6964933853648635,600.2203148739654,360.62977636867026,705.0720601266726,upstairs
2.5041736227045077,0.308619915368246,0.35551555191022055,11.348540436108022,0.005183421790135156,-0.30598793879024844,-0.10777579493331832,709.517587813332,340.47294029524886,556.6974668224798,upstairs
2.5542570951585977,0.4474234260664703,0.5609440431346657,11.4681375715179,-0.17887926479178076,0.532317245654626,-0.49023103890331865,772.3662835177367,325.92020537343245,642.9074787951523,upstairs
2.604340567612688,1.193848241954928,0.5820059907370427,11.327722311267175,0.8640646869205274,-0.1526095809884132,-1.4109425292452484,669.9559960089929,397.2989026526359,599.2133581489265,upstairs
2.654424040066778,1.0800222160931607,0.21733506390021,10.563162742948375,-0.6728694726046092,-0.32175228431224007,1.6342723966778119,701.684216477278,415.271965105564,613.0778539197197,upstairs
2.704507512520868,1.0984068233208255,0.13326516279504427,10.19923425446041,0.24620179812648565,-0.06486452079911875,0.12854428111726407,673.0935311876534,389.1159653771727,615.464229505437,upstairs
2.7545909849749584,0.6924638240072994,0.15914510613308339,9.45009039551037,-0.7423045435435917,0.5945951404199901,-0.4635293652574919,705.8237572759512,324.025808817084,639.5718447556967,upstairs
2.8046744574290483,-0.06391343525270683,-0.5361717685437548,8.488888359688024,-0.22192785449003752,-1.3639636940729651,-0.4915821688853392,728.1411048249439,443.28724557951136,628.2483625415689,upstairs
2.8547579298831387,-0.32877717928944156,-0.6621811451837378,8.320937856882722,1.894289785734803,-0.8671310777494116,-0.5089111488472536,685.8872540896205,388.9953142859494,551.6641768458866,upstairs
2.9048414023372287,-0.5513190446054966,-0.6086301276120907,8.25937611571762,-0.0015054966466389822,-0.44740166660923514,-0.11791641784989919,743.5549229844128,381.7487630681747,626.9482332422948,upstairs
2.954924874791319,-1.031123886441992,-0.4810663852324057,8.682415201118388,0.48009858565450453,-0.07592383487659113,0.5838689708069857,712.3484334061673,387.5761240660925,592.6803711828882,upstairs
3.005008347245409,-0.6041385690871176,-0.724313051127562,9.346826055341479,-0.5494709841930571,-1.124703338272775,-0.5011126942293813,736.0560901932248,450.18902395235557,619.5673196757463,upstairs
3.0550918196994994,-0.7207271652022151,-0.25876392903085293,10.082163556026702,-0.055785729306721384,0.902554749940702,-0.5668745122520379,722.8194992252509,398.5404766253378,613.3018635187397,upstairs
3.1051752921535893,0.08148850202140283,0.0639361304824122,11.070330774854614,0.040322955435965535,-1.1656751161243153,1.1888429847536468,767.9334000369342,443.1476212618343,624.4813471287079,upstairs
3.1552587646076797,-0.0556026153440345,0.2698006991742898,11.340116422553761,-0.8210953315003197,0.1819949765720593,-0.1106812291572525,678.8137572800085,331.87368209472913,651.4379901442318,upstairs
3.2053422370617697,0.7359744967665424,0.64785595261251,11.323336164178084,-0.7374092563500332,-0.750030478926419,-0.23566133446142176,655.0801750610084,421.95268618382744,674.8344311364276,upstairs
3.2554257095158596,1.0666060962953496,0.9509730267336598,11.433229542847297,0.5114332872323467,-1.3609748703999622,0.28754855632959353,681.6697170511743,359.75766766833425,701.8772995705797,upstairs
3.30550918196995,0.8151292018074852,0.3737460841511061,10.49122876927282,1.050177599029795,0.31939932194283055,0.592206179673735,724.826937008968,336.6714211424392,638.9898492274588,upstairs
3.35559265442404,0.7411116789706267,0.003964799374768485,9.955216115946797,0.11840152491866299,-1.0679047165928448,0.28668362225477945,725.1961923382422,439.4547283812127,631.6743627895505,upstairs
3.4056761268781304,0.40160318455815663,-0.17338180684124213,9.082677955924174,0.004519134227941744,-1.4121077037489111,1.545155641637078,750.5243666430847,351.7365873799545,601.4232662631729,upstairs
3.4557595993322203,-0.2781473184574928,-0.40065044177184833,8.647897796396666,-0.62849245850063,0.05591093020367143,-0.670664019265797,731.6866457129973,407.99112787590406,542.7126216466683,upstairs
3.5058430717863107,-0.39593212140718953,-0.8235184409589116,8.272318157506215,0.04628362843164392,-0.013011214510236435,1.136389766367963,666.3434588647133,394.10959429929596,612.9569848406925,upstairs
3.5559265442404007,-0.7524965417122088,-0.43835000606421376,8.668294362058353,0.3591123435899262,0.023368047501875946,0.11043645271522702,706.8074735407201,383.1349124634484,694.3325235531095,upstairs
3.606010016694491,-0.9542330280532475,-0.4019377716691242,8.801834176486004,-0.46745407196410893,1.6047808070665175,-2.1087127523735782,746.0897219949464,420.23759998145243,596.2943041091842,upstairs
3.656093489148581,-0.8630299524549433,-0.42171277110263083,10.183797445051246,0.6491377860403358,0.8341422293479788,0.80449921335984,703.435348162105,371.63360584617715,713.6931021167336,upstairs
3.7061769616026714,0.19491537610952975,0.1701633842975967,10.610294761485259,1.2043502622125855,0.6430666408755061,0.45836932345225606,575.4158648106919,346.63436302530255,658.2418125287934,upstairs
3.7562604340567614,0.33395098681541063,0.22178353376466747,11.328806887049469,1.388498909620354,-0.5630257196358918,-0.9829899190550779,734.2858026139476,363.13900683474856,681.1630069694528,upstairs
3.8063439065108513,0.4740217189494382,0.28039767206847854,11.526083921560156,-0.41186480399516945,0.06356614021354709,-0.9206112988160721,693.3748751611702,411.9949468092931,627.39258453451,upstairs
3.8564273789649417,0.907142722415091,0.7679525266465768,11.49623148632575,-0.642210408957568,0.05990217544042006,0.8739392112709958,714.7774664849497,488.8005705420844,590.1838565942904,upstairs
3.9065108514190316,1.0104281010113252,0.04228496596621528,10.881910553612345,-0.11000976962524468,-0.2842339201881245,-0.5682002495238563,627.6401806560935,388.75736957480353,616.6480272007723,upstairs
3.956594323873122,0.8855953222616234,0.3223416191054877,10.421561667912773,-0.837662870852178,-0.4952973059050437,0.5496164964238631,709.1461417801501,373.99946979810136,607.3218965176767,upstairs
4.006677796327212,0.5796474075862246,-0.0535361664774814,9.558184095407466,0.96021012265791,-0.07125376167000586,-0.11002916923856776,651.5073700142088,394.39728609443677,668.0958067997943,upstairs
4.056761268781302,0.11236844388291134,-0.555989465940413,8.971991123779706,-0.7028725531170278,0.1380819763024806,-0.814014731712601,743.033247553022,424.4280006653422,583.7438404233178,upstairs
4.106844741235393,-0.5110032919290807,-0.6644173056763687,8.518198247981221,-0.7748013032622739,0.713238356851778,-0.23608351116492043,665.2380231524803,478.56620187403973,674.6259674895406,upstairs
4.156928213689483,-0.5539944525501427,-0.7048148238524738,8.492007876596077,-0.6622477098480107,0.4539953178565237,-1.0354554548383854,634.6578969287133,434.67882473052566,570.7414403760877,upstairs
4.207011686143573,-1.1357753392263692,-1.0387965353918978,8.760913707614232,0.5926193817133731,-0.5430161560349932,0.9124380158568894,746.1875025716939,369.62590881686543,574.8324259769214,upstairs
4.257095158597663,-0.9186099988753615,-0.4759751951599832,9.657236748301822,0.22459219274978576,1.6339823284567254,0.7639838631794518,681.9948488952556,410.97846341902186,662.0700919516585,upstairs
4.307178631051753,-0.5097767467760213,-0.39320191617385214,10.269419829955911,0.46504426074220917,-0.251565456188512,0.6914887976911076,702.9476420268593,385.8297042710319,617.6512734160658,upstairs
4.357262103505843,-0.40374214911026113,0.07161077400929433,10.489307170180314,-0.3602348908984717,-0.3933098309075141,-0.684891829906923,655.2454279127885,391.18610495706974,616.5823421246419,upstairs
4.407345575959933,0.49141077805046257,0.5984913337200493,11.790899497971907,-0.4687115164374963,0.6655579604657434,-0.6633603866261762,729.4732475989796,328.29351941163094,654.6779026304831,upstairs
4.457429048414023,1.1319079324220727,0.5121056509631527,11.607065543234919,-0.15759016279309365,0.3006955884151346,0.6888736103404098,690.8784259993249,367.566634190771,662.4862508984932,upstairs
4.507512520868113,0.5523901512652529,0.44030065307195393,11.016954561249037,-0.3256056427980791,0.6209821070711014,-1.2627252284904842,717.7383058635128,316.3708077930546,622.2130986981683,upstairs
4.557595993322204,1.2278803570630612,0.5214116559387638,9.95394248895999,-0.08210852349925436,0.7526438757286678,-0.04050132403017145,705.8468967873214,409.6195933791588,633.8014669820004,upstairs
4.607679465776294,1.0032572518456684,0.22028223971413813,9.768342727222182,-0.5013669943841863,1.516892709894039,1.485188453001257,680.990860311282,366.57847039413855,622.7106389544005,upstairs
4.657762938230384,0.8011380149987021,-0.26513772891710785,8.956424946660512,-0.5935369393453331,0.27057107867507985,-0.09789952632846308,702.135643997511,409.51970827638047,647.7376241169652,upstairs
4.707846410684474,-0.4015008713434938,-0.7302417114446518,8.329412303014573,-1.118289918312933,-0.25783119519481956,-0.6408280411745829,673.7429972360943,414.5508580980769,611.1115957851024,upstairs
4.757929883138565,-0.6585666952696311,-0.9991247849069009,8.44220432994043,0.10641008905243511,-0.812241558636415,1.052762995268027,672.5070004239766,363.2716148804627,624.2386135473748,upstairs
4.808013355592655,-0.3936261221475198,-0.6514589406631064,8.639648799707937,-0.6459010261546735,-0.3772605664036092,0.8266811015760127,644.8697077239586,404.29979016487425,625.2514640352161,upstairs
4.858096828046745,-0.8940499053762574,-0.5835828829029757,9.055326914895298,0.03875895281270812,0.3148143189112842,0.20514726852275963,668.4019014325943,363.37524272025473,635.4570572725677,upstairs
4.908180300500835,-0.3958262228089212,-0.5589910325905261,9.801728991698727,-0.6008377634603885,0.7784140718445718,0.11076676501969825,766.279950352968,341.5658442870481,575.6938876556084,upstairs
4.958263772954925,-0.38277051383785776,0.3645109701031482,10.938760490741016,-0.691249753318225,-1.1185659027859136,0.2961281530622127,608.0380395263461,341.60848910924034,733.0207350764915,upstairs
5.008347245409015,0.38558080928814864,-0.28241410829855296,11.036016666254055,0.22292068558506736,-0.6037129531525702,0.008561536536688725,688.1427091069443,315.7064620023573,636.6374718330221,upstairs
5.058430717863105,0.926714046524575,0.6594718646521229,11.308385331293382,-0.19073549102627127,-0.24158692508998947,-0.9171834048470556,676.3254315213101,383.5782250077309,713.4561563194283,upstairs
5.108514190317195,1.0186393241954976,0.46583887550837305,11.374512713991392,0.06577034317425814,-0.2598953397077873,0.2876747869080412,717.9076406902569,384.6995613397481,629.1099910136505,upstairs
5.158597662771285,1.0541879815293125,0.5550469780752822,10.723340826261602,-0.8971897119533454,-0.19315190313625064,1.1768103994223014,648.5079043560069,356.26202154411146,555.7179332699552,upstairs
5.208681135225376,0.7142317651552372,0.6575576295862613,10.402427831916588,-1.3618015918718591,0.847189534595273,-0.5501249563600369,712.0797081465874,438.8528712309163,636.1892484875085,upstairs
5.258764607679466,0.9275879971045343,-0.43647798723647496,9.622748108120241,0.43124763175341974,-1.336051699100435,0.403131955738284,710.610714264311,395.9965391586639,598.8906229417566,upstairs
5.308848080133556,0.3476941347695618,-0.13780312665532007,8.69557804139676,-0.07774259397996508,-0.7186864266642975,-0.6849128315674622,722.4522598566826,416.2899069821178,631.842250186152,upstairs
5.358931552587646,-0.5955030937106449,-0.4111411894121903,8.501464514605459,-0.21205389614300318,-0.19366870106890582,-1.052143407158222,644.9941371224261,380.4349685269851,633.5331420780254,upstairs
5.409015025041736,-0.8803896910082937,-0.7538698182280541,8.11138175757556,-0.5263365526310464,-0.6634330684882424,-0.6783914733716639,684.1989540411462,463.1380820939612,699.662170631366,upstairs
5.459098497495827,-1.0100246878925794,-0.7446083491111299,8.923387343815063,-0.7625585221097994,-0.643799274723899,-0.11002313062125509,763.197768215842,408.83965833422275,571.693355928204,upstairs
5.509181969949917,-0.9962321513500131,-0.46123967538592625,9.262677083985457,0.5318275505016271,0.07717116930063614,0.15487539508245934,644.5762382920293,390.0055033826029,614.7618206199609,upstairs
5.559265442404007,-0.8222577152595177,-0.33983540497362136,10.717003794397357,0.5396226965896236,-0.41605952167315774,0.6937851739136854,652.7679575029733,438.7118345094193,620.0304382608737,upstairs
5.609348914858097,0.16513056865942627,0.46463586539140905,10.98602320002941,-0.36120327746090075,-1.5948861759769795,-0.3843009576754367,663.6707562422577,422.5857310973671,631.5371531303051,upstairs
5.6594323873121875,0.6931169797768456,0.4316037487448488,11.343121747934548,-0.5060970175032764,0.1287090512896373,0.2615676152359126,700.1624821352591,441.9741982193517,601.4526624206334,upstairs
5.709515859766277,0.9312157702441876,0.3972765549783776,11.310210000645556,0.08970744869904337,-0.12395522613812648,1.181150824850802,733.0218462288201,366.52626426022994,562.106906239122,upstairs
5.759599332220367,0.6317740192251448,0.7992878676940542,11.29074695795055,0.7214235529640559,-0.47053074913437193,0.8151984730539172,724.0733915170886,438.4437747062259,612.0878228793068,upstairs
5.809682804674457,0.9362320681823625,0.3394651620176651,10.72412229191831,-0.4310812992101392,-0.11542595905656208,0.005679185821453858,636.8139335845118,326.8251814760469,625.287853888847,upstairs
5.859766277128548,0.9056616805167559,-0.007419544263606165,9.6515605147543,-0.3381075032694691,-1.0822409321342137,-0.03604761016078904,753.3730909500284,403.6503892777232,659.382808857619,upstairs
5.909849749582638,0.5739212857762961,-0.3076533685844785,8.600395912733447,-0.03946648288905284,0.20952808707461837,0.11848623720520779,692.7343216416426,438.01905464344657,503.7916647562079,upstairs
5.959933222036728,0.10397945201503443,-0.6406148997228573,7.959044406366907,0.2551214602342711,-0.7242131520727594,1.4963544935276367,704.5397818673931,415.588330012161,620.8600652520134,upstairs
6.010016694490818,-0.8723563410209396,-0.7133176811196198,8.036737794842836,0.9137186478126613,-0.0040430349496969,0.6901305190090278,640.3720986840684,483.8307968354794,581.7696145104303,upstairs
6.060100166944908,-0.8638955628602518,-0.6474433117741503,8.86641067815981,-0.33351785532349587,0.05806928190829079,-0.6621624645282814,771.7026341507391,359.68402151008183,658.0805680693475,upstairs
6.110183639398999,-0.8899292017872763,-0.4174369697601677,9.065723077827885,1.1644149227603136,-0.3873807882891381,-0.46745855318168233,723.5812034165293,374.359493106617,653.7792774543134,upstairs
6.160267111853089,-0.5584974723214952,-0.17140331153469235,9.877900909294572,0.6740783525755687,0.10882758847512587,0.09727769538024134,706.3457129842404,376.06020256269187,519.2704718565574,upstairs
6.210350584307179,-0.45743206024664124,-0.29172726434612517,10.478495161782403,1.5131709647070761,-0.9609769595398816,-0.547578962147268,663.22544377413,382.50308839985274,588.2686483080981,upstairs
6.260434056761269,0.2633802807749222,0.526979897609136,11.309771008887468,1.3269457856831186,-0.20369454651787866,0.1550307212887442,641.1378020985152,318.2189425508498,627.9162492512247,upstairs
6.3105175292153595,0.6262554785511288,0.6332279666813991,11.316885602377422,-0.22875825603922004,-0.669892301934536,-0.12410168621062898,679.102766137143,423.5974534413181,628.6393700580894,upstairs
6.360601001669449,0.8068670635445364,0.8151895124796675,11.657320437248309,0.5401790861944897,-0.6129929926398116,-0.1562069567981187,638.4113550951963,410.5562407932646,683.0419072622207,upstairs
6.410684474123539,1.3289253132905543,0.3931886382364001,10.97464056843245,-0.2985820068423039,0.24559763536841,-0.27555586416219346,685.7339385570451,378.1788783610141,662.5077261898805,upstairs
6.460767946577629,1.1699683266882515,0.3872050314524695,10.26936511518221,-1.3320224745911777,0.13488656227580348,0.5143071894548582,713.1856712642991,408.2715076310274,635.2146855547646,upstairs
6.510851419031719,0.7542901301898283,-0.21198023612445777,9.463981641445447,-0.4022193160050912,0.799440104281131,0.38126995444327744,637.9491994171669,391.49478350916394,637.4699448446274,upstairs
6.56093489148581,0.1386855628413882,-0.24306477698570136,8.836263001245987,-1.3085687188273947,0.17950954339501254,-0.23367790343173364,572.6289786400803,464.82772496698385,625.2466129506529,upstairs
6.6110183639399,-0.2866076671214547,-0.2977032675832747,8.15073964614997,0.7800210529838134,-0.8359035273005915,-0.039604929910438444,657.8765287053172,357.8731049462228,661.2619776721123,upstairs
6.66110183639399,-0.7447715025310835,-0.5501863447104676,8.118691509956525,0.3653239858903368,-0.30045999297034565,0.5031379500371073,635.8221152999307,392.60700513214164,630.1762567439971,upstairs
6.71118530884808,-0.9086676790383117,-0.8705113504846502,8.955098227645973,-0.21859851569316485,-0.20852702242613685,-1.0432780404065676,752.6468147643021,343.2262866034701,657.8827998152724,upstairs
6.761268781302171,-0.48402033229744507,-0.5052971356062412,9.441057624214533,-0.8067391087457086,-1.0818151861030383,0.8718041202863401,704.8350785178167,410.7584484375333,588.855314318558,upstairs
6.811352253756261,-0.3861384906499008,-0.08767397009281583,10.034935456968247,0.3512637989992742,-0.5765360334086571,0.6822160196040186,648.7433873319949,384.24743372427287,587.7024542338634,upstairs
6.861435726210351,-0.46478337136975817,0.12673010752335287,10.761587373282426,-1.628841205407448,0.41251745414798785,0.6428318141231255,615.1740638366259,307.1515014745934,645.3551813283166,upstairs
6.911519198664441,0.7855472341192541,0.14397164969476217,11.830238423853682,-1.5009623666684124,0.4633812944571965,-0.4825448185080131,767.5402988986464,445.7376469024849,551.9320532040211,upstairs
6.961602671118531,0.594828050193899,0.8582801804462123,11.563312554885032,-0.6889254002233728,-0.12939506273092385,-0.11428157876117745,682.9983637423678,428.53451560282707,623.5318406494295,upstairs
7.011686143572621,0.8618529450446742,0.6643089286741721,10.973486709326698,0.49325332463023414,0.3752033240884557,-0.2176185734334002,740.2608042819924,513.6404427830023,648.3110868167194,upstairs
7.061769616026711,0.9708488570464548,0.6463133894679065,10.562464337207828,0.12056385513262208,0.6013496885390242,-0.524394971864228,733.4482989971553,408.8288767963257,668.9987691449536,upstairs
7.111853088480801,0.7144317205779653,-0.05088074776593832,9.468219872645587,-0.06856464999720983,-0.8273174154395105,-0.2593529943843764,627.5693761547236,402.9263443291253,617.3167125853612,upstairs
7.161936560934891,0.24732948994745757,-0.13367042038405924,8.84448398491132,-0.3165636085832133,-0.29110420110976865,0.7738479114548902,673.4158371174098,352.7579803765341,611.8343072893146,upstairs
7.212020033388982,0.2243860899358327,-0.48284370635181256,8.476584326068096,0.10445677087791708,-1.677589463208399,0.12708481385254422,678.3160051329869,371.7597597229578,580.6903397208446,upstairs
7.262103505843072,-0.7987840800270306,-0.6955082970245896,8.430628869297168,0.4254812075939468,0.9108144755709692,-0.6431857061470896,646.3709867773943,399.020944318859,631.5507209085916,upstairs
7.312186978297162,-0.7413617254611152,-0.6439872878844808,8.633164011710319,-1.1681027268407795,1.1811941037650606,0.7302078855897086,673.4388738649317,301.0290534968746,504.13243881586425,upstairs
7.362270450751252,-0.9515417860431573,-0.8377751036002952,8.95847472388692,0.33574331533738594,0.4067864973085726,-0.03812239279803712,728.9756401493612,398.7851599127036,694.510879505484,upstairs
7.412353923205343,-0.6505443777879613,-0.12161291567364485,9.96286906091482,0.6628436966001442,0.33415611116034866,-0.5805376544066368,752.6955927251821,369.7101768267685,573.8359147504475,upstairs
7.462437395659433,-0.46748076376507924,-0.290435495131493,10.664370819773811,0.41122121740233375,-0.5473970762366355,0.38086064337658865,605.2854369299603,386.5428351400784,666.907405565778,upstairs
7.512520868113523,-0.05211676579710696,0.5704135498851242,11.110038466933712,-0.6861086041490688,-0.7880987398490751,1.0038656558897214,731.9332887828959,431.5236380973395,554.1202252647319,upstairs
7.562604340567613,0.4405587790585778,0.7599330903356658,11.407193326096044,-0.4913043688217802,0.8013777260292718,0.27816344398330445,690.1214434644345,360.9911046969621,620.6053021737346,upstairs
7.612687813021703,1.05007297809472,1.2386316733320795,11.20437716078995,0.6080274764960899,-0.05141038143019443,-0.8686475498666153,636.8585895478774,421.0900347632645,650.868821303349,upstairs
7.6627712854757934,1.203385674255665,0.3850094563008067,11.027725077076632,-0.8986122883229563,0.5554330318604107,0.40302728282469313,694.7340410229267,377.6151426769841,538.6682111889079,upstairs
7.712854757929883,0.9430254387385522,0.20555285284070224,10.10329265371198,0.9968078086622323,1.821241486009749,0.12198995836662022,710.6166136448732,389.7833674269459,685.8839971066026,upstairs
7.762938230383973,0.3436789876673227,-0.08149154646275956,9.25781340684848,-0.9470294812314406,0.5704054969282929,1.2951100640156594,769.556179703059,368.29242649891523,581.2716116200103,upstairs
7.813021702838063,0.0077218191109995615,-0.3631654461481526,8.744334837143178,0.23413730969692084,-0.314929570792658,-1.0093452471504982,593.3947697859031,346.60887750031304,620.6247817963729,upstairs
7.863105175292154,-0.6755296832307106,-0.761810286580914,8.248717623107257,-0.17916192320225113,0.7740904025067793,-0.3987073148440432,683.4631335744714,395.1102021603492,650.0250667544568,upstairs
7.913188647746244,-1.0737815595187068,-0.6772075488683937,8.585069720111292,-1.374975173818814,0.37233645184895825,-0.8186474972393276,693.0752506888707,388.6642138236554,577.9853680892816,upstairs
7.963272120200334,-1.263817766222871,-0.6272564778814822,8.864820680719431,-1.3428566005454479,-0.09902683335350534,-0.024167592062533536,754.1148190883099,420.00864109301455,572.0542541338675,upstairs
8.013355592654424,-0.6617814182538369,-0.23713063539287008,9.6557168928467,0.4353941056313458,0.06348948135324023,-0.04721685470270567,714.4700879076377,425.3391625550488,618.959639950114,upstairs
8.063439065108515,-0.21985638767889504,-0.06024308967744492,10.592397320987004,0.6943194735703452,1.9075021417721867,0.2572982752084392,682.0554988533669,451.22726502557543,647.5018811366343,upstairs
8.113522537562604,0.2832139262672555,-0.28886506963404435,11.210809676524407,0.6672314604908112,0.25539528000282297,0.7568256183485854,688.6102852830554,387.7261989760815,594.915242551865,upstairs
8.163606010016695,0.7399862215392025,0.5645195635165023,11.47995738836385,-0.7128429982403022,0.7811170423190821,-0.12371040128099779,659.283404289257,357.0376042870897,576.2347208641929,upstairs
8.213689482470786,0.7794951757738476,0.7171137090240856,11.11595059415599,-0.7370347954556297,-0.31232777043700155,-0.24766506563705248,694.1315283183513,381.51399335632925,651.2988032540951,upstairs
8.263772954924875,0.7594374954217138,0.8162555733101449,11.151322644073439,-0.3474216304169625,0.18418317081425936,-0.12018515105883637,719.8866574375679,438.87813973981804,651.7725337068472,upstairs
8.313856427378965,0.7533575794854473,0.2442924517402732,10.3341445033193,-0.49551187155311466,0.35515716305377826,0.5256576010151865,713.4271210923191,419.68150014355786,534.1552817000672,upstairs
8.363939899833055,0.6902682810526961,0.3177643715418001,9.667597615744517,-0.7007217070524268,0.0953926606497367,0.7952154685761562,621.0666892468275,347.6476158055418,605.0336975907284,upstairs
8.414023372287145,0.6166696397673217,-0.13704627049648482,8.892916124959402,-0.11479505950319355,-0.748428110203998,-1.1037854996081173,691.3148867309529,369.0262172689053,547.9297944080695,upstairs
8.464106844741236,-0.3089592099036041,-0.15593593371546827,8.416563637232422,-0.7768043200628055,0.5735667565103642,-1.1068546717715881,745.1474876491088,329.7329534276647,627.8612153064577,upstairs
8.514190317195325,-0.35902893098312133,-0.9910483982549716,8.128338485154048,-1.1533701675207346,1.1493441810729417,0.4252518983186679,736.8992083805012,383.6956239353647,615.3300785043934,upstairs
8.564273789649416,-1.0727436820990341,-0.8012013655753045,8.54246380632772,0.5180456697069489,-0.5268457668314953,1.5614651375163622,589.5040723898384,336.22581819711615,699.0555005941151,upstairs
8.614357262103505,-0.8185355581842653,-0.8624367217377136,9.217057060154474,-0.4982104713838618,0.33038839667212616,0.14385781103635914,757.0084705262785,345.5548108884234,616.9306780488764,upstairs
8.664440734557596,-0.6633125068488334,0.006380594105034665,10.072751426704144,-0.6878873880398315,-0.04933411497313659,-0.3531537762586933,730.2124457647826,336.13225027351564,592.9956027967156,upstairs
8.714524207011687,-0.6979262644349585,0.025857151019589075,10.802633666382363,0.06726361032474007,-0.827647331463751,-0.19489089055712056,690.5780168459859,348.94756453515765,712.0905654503019,upstairs
8.764607679465776,0.4629297833884,0.48523117006105493,11.210886054806679,0.30825035966188263,0.14516915620202994,0.8875140895709928,653.4988716902038,373.8419413611118,723.2114172533157,upstairs
8.814691151919867,0.871423459880166,0.7833723297768298,11.80223029369256,0.6285852624071488,0.308956045853801,0.8411254408259069,664.2565084161843,363.8198199609804,714.2732809914603,upstairs
8.864774624373958,0.9703635648942197,0.5555590782622057,11.469258921058143,0.9439429998014391,-0.6768481463607197,-1.6359443384272052,657.2403384509713,330.1732550965231,615.3507257460609,upstairs
8.914858096828047,0.8013039883511507,0.6555490158921062,10.710687126736895,-0.5395166671443395,1.0074249956520145,-0.21102395184594758,670.4180259841447,384.7812028718911,623.973922385369,upstairs
8.964941569282137,0.9526275327599778,0.0074672059428522175,9.910638446888774,-0.44514979277853073,0.17857251693722548,-0.2466390436424065,673.480266250146,414.80542251349067,570.9336834543326,upstairs
9.015025041736227,0.32613793919917855,-0.13831605204455438,9.600315661411466,0.012764625122846754,0.24243899122261453,-0.8408635070134445,686.6250534679988,388.24712079158655,682.0998648865151,upstairs
9.065108514190317,0.19722907148165558,-0.05888694134733152,8.59929058539975,-0.7164692147580717,-0.5041110876990158,1.0510044058893602,662.1513229036443,317.12055449771964,688.559482318635,upstairs
9.115191986644408,-0.5833888946282427,-0.21998859448245478,8.853671188931543,0.8323608876387689,0.5786852542773879,-0.20253043413617525,643.8678180823208,391.85322425944287,576.9363119883612,upstairs
9.165275459098497,-0.6795406859025298,-0.8138023433458688,8.551866483756058,-0.09614421474771337,-1.0502246180725552,-1.415368340377695,730.204009166843,373.181989150443,616.8106357106866,upstairs
9.215358931552588,-0.9748446879678409,-0.5917491666038066,8.994979004074041,-0.2195956238083838,-0.6600713485626423,0.2867891749103657,711.0341466710125,388.11917701109377,657.7741427326022,upstairs
9.265442404006677,-0.7845201011623203,-0.3541395754125363,9.587170687608413,0.7913199383603531,0.46855566633610335,-0.8424777409477303,766.9399112878355,430.29428364326833,570.7694146483509,upstairs
9.315525876460768,-0.3905678485562319,-0.07692384438480182,10.679663167266785,0.39694839936133547,0.03279671254231463,-0.6423931162654021,640.2228513106345,393.8843219534494,635.7311204404899,upstairs
9.365609348914859,0.03712673121415509,0.005745474181851007,11.160755162393373,-0.465442695659891,0.5362993646710656,1.2395684654025787,722.864178929445,424.8861435310275,566.4563078005629,upstairs
9.415692821368948,0.6789856808348504,0.4914191333199193,11.693852756445875,-0.079869321290277,0.4317370199165491,0.12783522628990981,690.0255334356528,357.90890105459727,575.5296036909097,upstairs
9.465776293823039,1.1240276575067145,0.7371302211349324,11.618656220410202,1.185286732865287,0.10316199732550693,-0.21875759397969063,664.1118095788988,411.86457348497873,620.5346440954827,upstairs
9.51585976627713,0.9333626214670913,0.44505732635095147,11.260927791197055,-0.26526771215727046,0.32516860272279613,-0.426459221849804,699.2123678074847,387.7925175807817,588.7981573420927,upstairs
9.565943238731219,0.8756917245132573,0.3849782871768273,10.920131482923303,-0.6927999495157151,0.5659723790241538,0.4156311066137717,638.3407775149986,381.3383302841614,512.0874995145581,upstairs
9.61602671118531,0.47764791119388506,-0.11206010230410637,9.541970114008786,1.8762192078893176,-0.284912639520514,0.34219926852480864,667.988301825041,277.86075684705804,631.0816678360612,upstairs
9.666110183639399,0.6176244872713889,-0.2544674954545294,9.090677273085308,-0.3791260266616147,-0.02117201768859567,-0.6569781546637835,687.3672422429497,360.6990070471872,634.8917364561207,upstairs
9.71619365609349,-0.26360439075932446,-0.3549859257941606,8.567197041813428,-0.06437514118647561,-0.5435692066585166,-0.5413145605771592,727.9795193525666,383.30156362372907,676.9761037989484,upstairs
9.76627712854758,-0.3550108624876935,-0.5562941115457734,8.408295782010226,0.6912548884989276,-0.49832193560948773,1.0966042765882238,690.6125311083381,429.154148667823,651.3257006530663,upstairs
9.81636060100167,-0.7535123827415718,-0.8395391826025138,8.441165255110551,-0.6657611136649255,-0.3333772993618517,-0.13452191991932244,705.4741375749597,360.8090845952113,549.7957190678698,upstairs
9.86644407345576,-0.7893283690589804,-0.3839279092038246,9.171970269161067,0.055270276810016825,-0.822365301228022,-0.3076103976708183,688.5374766950752,374.0680651982091,662.0730107848725,upstairs
9.91652754590985,-1.117000048218229,-0.2416326921475298,9.918084772357107,0.22412994451809048,0.7876869672247044,0.8284399317093442,637.2304891937498,369.15855025539946,610.9233618588339,upstairs
9.96661101836394,-0.32151805833704244,-0.07215768794250081,10.403717129290055,0.6960978181492258,-1.3699994803976085,-1.3527975037006907,697.7796137353216,361.38240790013464,597.5411984281093,upstairs
10.01669449081803,0.22338229529941467,0.42668382878115574,11.12263123432658,-0.08320974568061842,0.9403833623787281,1.3661584312060755,727.5684387632816,382.57695511202763,633.6888392534084,upstairs
10.06677796327212,0.5004123553968509,0.6327196833085533,11.531671722065076,-0.03926484445400252,0.7749290474353052,0.225583581608176,788.2914773284957,360.4264588899332,523.6919219945429,upstairs
10.11686143572621,1.1210315052601658,0.8911549585401526,11.261484299357742,1.2110477799497814,-0.06778089428804462,-0.8695207414694337,743.5356600983235,386.91086730137584,655.96366472611,upstairs
10.1669449081803,1.0269002403457859,0.5208062230782955,10.65524506621919,-0.8480813489287029,0.964104373275262,0.6059723132179156,697.4461446118027,416.94792469327535,641.1536220490422,upstairs
10.21702838063439,0.67039016854725,0.3762163472879863,10.03720427076862,-0.6724596754371233,1.2259877387301326,1.1723456390770792,665.1007866328096,413.02913233395645,619.4249037937382,upstairs
10.267111853088482,0.356621366158331,-0.6444215604811527,9.148556116749761,1.2652002095298165,-1.0766261782479751,-0.41289510717999933,673.3444340007437,390.0139986499441,586.4932317835364,upstairs
10.31719532554257,0.36946490883263666,-0.6945160046717846,8.820880914048915,-0.3010193548525056,1.6198398783936439,-0.7900719885805826,729.8213961069805,392.41647360832576,638.1493014804253,upstairs
10.367278797996661,-0.2795351662989622,-0.6368100095345548,8.05052754355641,0.6413059083005421,0.4842291279115664,-0.5529685058620017,748.4663964981073,361.5283250312465,537.1180340197504,upstairs
10.417362270450752,-0.4691325013130622,-0.6326171579596451,8.292884128110481,-0.6861078293312366,1.2252681682910456,1.0931597095359227,697.4583184684257,369.5990300734151,627.2107909250752,upstairs
10.467445742904841,-1.2290353672995984,-0.6435751223894068,9.361170747466181,-1.0169921833421656,1.2529635031881883,-0.2127069660890974,687.7997472757877,394.22422183533007,589.724323519422,upstairs
10.517529215358932,-0.9114914727837914,-0.3204760296307574,9.511528414883507,-0.8434193868662864,-0.3385764840024858,-0.9268537962045361,684.1331547365082,385.0884750611593,551.4020009627349,upstairs
10.567612687813021,-0.7863163056075871,0.04821864768621506,10.315625017444326,-2.069937484704341,0.24442916030647757,-1.5811891440311407,601.3448395042113,351.7729359972729,563.9550070593698,upstairs
10.617696160267112,-0.1896114957420817,0.254329868407626,11.284492671474638,0.398416083842757,-1.2491202748611736,-1.011037105624387,652.4560595468284,410.70956605643613,545.952756269855,upstairs
10.667779632721203,0.5194994825708198,0.825586961362706,11.43676509480717,-0.12551008820115991,-0.5389963419178362,0.5222346300980163,761.3189617386798,326.23500879432754,616.9966299417963,upstairs
10.717863105175292,1.1422242915779475,0.885427062609095,11.532744923787435,1.0438696296247958,0.5156060696163509,-0.466594868601937,658.4434677596964,388.93558594931903,650.9641536506793,upstairs
10.767946577629383,1.249935373559624,0.4223868715557291,11.194726617439379,0.4543859099810435,-0.11737107859293601,-0.1778804389508852,634.2363130301575,366.5164086518513,563.3645936692385,upstairs
10.818030050083472,0.8121046084525733,0.7567167152855385,10.793815811861379,-0.14690948721358177,-0.42429529948426004,-0.8702337788311753,698.5611443225448,380.55240878992606,604.9004381842789,upstairs
10.868113522537563,0.9321640552871053,-0.05621461141232309,9.289511999629712,-0.47173952735271524,0.2590072404270665,-0.40413164605703195,634.2048332452694,377.7219326717743,628.10509031034,upstairs
10.918196994991654,-0.17141262923204564,-0.645900080251069,8.762742440868262,-0.79694492276384,0.9283814382543008,-1.124705071747522,699.9926243998548,393.3943673721985,642.8108973919542,upstairs
10.968280467445743,-0.16424333554905474,-0.9546262438131374,8.199362046578734,0.28344598284015077,-0.6658184230335024,-1.3904287258231858,766.1255338468496,351.2353647856294,577.4661013740576,upstairs
11.018363939899833,-0.5869142269586695,-0.7538014185334669,8.59797331881364,0.33423625331603135,0.8743997685639937,0.5870344760299002,645.9650234250158,451.9397688767592,595.3516967676419,upstairs
11.068447412353924,-0.8001274328730207,-0.5014896793289074,8.431904063519857,-0.8568847170320089,-0.41054625346312695,-0.24899769150558,642.4998636373613,443.1094707485006,578.9331935090182,upstairs
11.118530884808013,-1.0153407489251736,-0.7459645134178576,9.549990845935197,-0.40915458286823375,-0.07479881718975112,0.009321121676472735,670.8764747109195,393.3778654249062,681.047385498602,upstairs
11.168614357262104,-0.5369789234543753,-0.3547565191104309,10.25529065917362,0.7217221085339365,1.084493656677313,-1.533317484253701,717.6411334752115,418.12735586575184,636.6628903897554,upstairs
11.218697829716193,-0.04987089795440104,0.148553036834547,10.877068065237316,0.26768124308860386,1.3330833494476177,-0.15580550734225707,617.6390516803829,365.4766102230591,554.1874929864223,upstairs
11.268781302170284,0.22679887757122302,0.471131559047891,11.739612496232667,0.21321176271664574,-0.07910574004662525,0.32841615698646587,723.6495499006178,358.7075351961473,636.3602438298389,upstairs
11.318864774624375,0.7921149858546795,0.42376684202129594,11.256851049683949,-0.7109618926431951,-0.9384644297058321,1.1264769403590589,755.7658479480046,354.033877588524,640.8733209463908,upstairs
11.368948247078464,0.8215896761186471,0.5586373250682348,11.601179901495913,0.3899795582645864,0.3009844253744954,-0.012851858016709029,736.5264499727122,375.1479114333528,677.2510757204519,upstairs
11.419031719532555,1.1315713902625784,0.5237227305491241,10.437297663280031,1.3559765866367492,0.019660568267391168,-0.18149437418915648,716.2596363062834,390.8100280553007,570.1999917577255,upstairs
11.469115191986644,1.0448699475766599,0.6460827599022205,10.094242874486044,-0.7614196676496984,-0.10371130385174657,0.9436264935141659,724.0347415540738,357.2961368905383,647.3284569126092,upstairs
11.519198664440735,0.4397758052282438,0.34046131327150253,9.557901848043581,-1.0728095492960676,-0.8407792487218158,-0.008019506285375816,725.8367331026656,354.7069971527558,672.7077108975197,upstairs
11.569282136894826,-0.22516730812079172,-0.21035679128827556,8.414117262464957,0.7146872013625275,-0.22374572592422487,0.7884148036014568,662.3632704880793,471.03162709480534,615.9826331381631,upstairs
11.619365609348915,-0.739573641399042,-0.2969834425557076,8.420049343692991,0.39437918220740564,-0.04972048512410413,-0.9182277698922534,658.4821832719239,403.65151650076683,618.7238944766717,upstairs
11.669449081803005,-0.8519008781509593,-0.6290695269069133,8.519250250448845,-1.4698368155706254,-0.38516569057688793,0.08374691973865685,712.747923378236,359.18555383018133,571.1181678263395,upstairs
11.719532554257096,-1.1357034595165767,-0.7406884708767729,8.41090546491753,0.6796958931715031,0.36802023605023937,-0.7816908657049293,752.7599977620929,362.5100647148177,637.4884879351846,upstairs
11.769616026711185,-0.8118201514299288,-0.4281722284275391,9.453687222565202,-0.34361464256134466,-0.8816586809849586,1.3066168148649122,693.468762491976,405.85270476704943,605.2396692135129,upstairs
11.819699499165276,-0.41138164878869704,-0.052843180032852995,10.722416982644846,0.6298106066768946,-0.00010299697148647891,-0.5801513236391507,644.3631290592057,324.720999496364,647.9327489247387,upstairs
11.869782971619365,-0.19147326964635247,0.4573572501369771,11.143526697368936,0.6015819261129689,0.6436240905968478,0.9682390098331096,659.6640110421553,416.5363684723661,559.5884036120067,upstairs
11.919866444073456,0.2596394663554188,0.41796072843873167,11.533699820476869,0.7754858899383058,1.0883948328148447,-1.1726673778065746,664.1369889195884,420.3624935675088,588.5174163424444,upstairs
11.969949916527547,1.1062796337998257,0.4549921323675827,11.700449697193065,0.1483837831095903,1.4399895782402363,-0.02596419678478558,654.6636013310459,360.9457796685709,654.4279159419713,upstairs
12.020033388981636,1.2287261066224193,0.5702539871321852,10.92456485589334,-1.6562056506533065,0.8932077078590432,0.43275377363696266,651.8044285660101,422.0393589517754,586.8207622288187,upstairs
12.070116861435727,1.154682044619192,0.20122578510112538,10.257632572926092,0.249402443102809,-0.28006585098000447,-0.0553743203237013,708.2313210797378,338.0675141721092,603.6149422309558,upstairs
12.120200333889816,0.7712515969544745,0.2788444967472217,9.950550536365265,-0.5715777428960366,-1.0964571823670093,-0.30370698286169523,707.2499675060051,332.4621620842623,663.6609854708183,upstairs
12.170283806343907,0.27581052241231957,-0.17800485042888975,8.964240353435288,-0.47903758936842916,-0.24943703960821723,-0.23810896281841173,712.7309735870483,408.27903674498236,603.5939142024172,upstairs
12.220367278797998,-0.39417269571782815,-0.5058194062376042,8.550243778176029,-0.4662859309861566,-0.3906059835079727,0.02472760966190741,651.6684614221546,363.08725713405147,602.8717654929072,upstairs
12.270450751252087,-0.4963670728768675,-0.6573069769592419,8.391830418339458,-0.41220538996180234,0.824942136559454,0.05936819113859557,697.9841704402647,357.67528637418894,616.3682827751695,upstairs
12.320534223706177,-1.0273090674323613,-0.5501952754041686,8.766628862595487,-0.0689609178115407,1.067405598063721,-0.5248996692047324,710.5236312073301,387.40498231463505,556.368224284106,upstairs
12.370617696160267,-0.8457502307356429,-0.7827101781025472,9.312629470352292,0.13203885642119073,0.5495288063633668,0.2544674649921247,735.2420826138582,383.22317800316983,670.6921985422539,upstairs
12.420701168614357,-0.4864030099442361,-0.1927014719873001,9.88896849710021,-0.08569517238272414,0.43986904957189876,0.9162941898638098,689.3459254390883,370.31729527416417,640.6570447038811,upstairs
12.470784641068448,-0.012284276281314302,-0.04722529832314032,10.828537550123334,0.32963066984778516,1.5964686031051494,-0.005721208405152582,700.829282533705,363.9031727224318,535.9998284724618,upstairs
12.520868113522537,0.5166293765996948,0.36298282549076766,11.827741010882496,0.2381386264998206,-0.7514141049004137,0.627540815562702,610.5664601825549,391.14447281274494,686.8067327168762,upstairs
12.570951585976628,0.6622303755640537,0.37198410958964817,11.587746142395105,0.3635804726641692,-0.17278734296787468,-0.2000819702330255,634.2124941588106,403.57180208957334,657.0595908453429,upstairs
12.621035058430719,0.6914515821253494,0.6064407729092456,11.35944945355654,-0.020024566145706534,-0.19051019691178472,0.6479492938047321,640.3951818987072,378.7515420711995,617.2698987268685,upstairs
12.671118530884808,1.0307532113521372,0.18748007371020092,10.696937469788946,0.49934033947506457,0.004648900713493313,0.7360175136439151,614.7337096225791,417.3188023155889,624.4420450276732,upstairs
12.721202003338899,0.9761620670694338,0.2669545829662033,10.200563792547399,1.6270767880620218,0.18484696553267796,-0.6120284375513793,612.8794347484143,415.27384184033394,673.6811415865561,upstairs
12.771285475792988,0.5506038820422601,0.1482882889740639,9.238809292303682,0.18930223529562895,0.5035266535970817,0.7062019271421257,704.2249071143192,398.4869759698837,606.8640758171025,upstairs
12.821368948247079,0.13809208237935805,-0.3508405135153027,8.676973825923561,0.23017075540258627,1.1442100101210324,-0.45711499936505506,629.0079149575579,378.40909629551874,646.5951874999502,upstairs
12.87145242070117,-0.4785619922205872,-0.44991095676875986,8.282202092621056,0.8937580363023655,0.4130355300125528,0.447362075073156,657.6380837148961,369.5345269478528,659.8015532526803,upstairs
12.921535893155259,-0.5693593465905917,-0.7451083547149588,8.441347855102505,-1.3276295158486944,-0.6087977639721477,-0.08594843368277576,719.6128758147921,354.84150190807094,634.01674598186,upstairs
12.97161936560935,-0.9126605927281644,-0.8796366821163073,9.37233707359916,-1.9627967451055095,0.5258454421879137,0.7653755503409467,751.3692210133645,313.89252292497196,587.0255997526056,upstairs
13.021702838063439,-0.5640384391681628,-0.3576109336814635,9.839722281516789,0.5708893941670152,-0.5769634573801968,0.7016961627165851,658.3935999091498,424.6868123418507,649.7016670323046,upstairs
13.07178631051753,-0.7863145861496331,-0.08612265029408399,10.371032924739445,-0.4218282422113641,-0.7764867913116853,-0.3493361641331933,632.3433532199958,320.5740387848596,590.1242782010274,upstairs
13.12186978297162,0.22835427443855422,0.3339628170166193,11.276791485365546,0.5467903628760957,-0.5513175523268399,-0.8705609085902506,690.5135573670268,322.5204806585874,637.8095215387617,upstairs
13.17195325542571,0.3317567490401074,0.4706855636498562,11.56412706579474,0.39377287296188185,-0.03523120313354723,0.1903601285509568,675.9709324379955,336.6142136114439,568.3958151635327,upstairs
13.2220367278798,0.5916757153992068,0.3617234858649372,11.513913111814883,1.2334216715111832,0.1272026301553371,0.35930821070096,656.3763887253668,439.5735411082909,616.5811751429289,upstairs
13.272120200333891,1.2925673984882298,0.5204150526945515,11.176588690006685,0.5004683333075887,-0.4338398153132892,-0.870277596254244,656.9616555239704,399.74989086145814,645.5244214225265,upstairs
13.32220367278798,1.069661647222899,0.7617188217424138,10.10317710285918,0.43800269968298194,-0.46652879277196674,-1.0613563707235214,700.237676408254,429.01032904505115,644.4755352386691,upstairs
13.37228714524207,0.6134087679585616,0.0014371009315498687,9.184145506545091,1.1240482870842115,0.5019233715764243,-0.7871160832429439,691.1854768182872,388.19156346889065,611.0413288067866,upstairs
13.42237061769616,-0.095993732716996,-0.1785491999672908,8.512614262432319,-0.19042039348168843,0.531104098896556,0.4197031338981489,699.5578863189047,383.9121528592212,586.223759483915,upstairs
13.47245409015025,-0.8869317692728101,-0.545806785500931,8.549570139915806,-0.6563702887903791,-1.701987306553461,1.0493391345418883,657.2335883662585,393.7088626223483,577.5210810612068,upstairs
13.522537562604342,-0.5919919277610967,-0.6446430895479678,8.481461354297862,0.11341692293652388,-0.33688223326001293,-0.00696763515938564,716.255784328382,383.46062279135066,578.9099506490322,upstairs
13.57262103505843,-0.7383175780164297,-0.7073722513788692,8.435259773474728,-0.3160285698888645,0.15904146679439637,-0.4171422608318996,754.3848335331502,382.74759830028046,515.9021686426851,upstairs
13.622704507512521,-0.9170097694719556,-0.7830196988095148,9.071335836127021,0.8128245883838371,-0.07464328995044098,-0.0014777418887016623,676.4873205455347,412.2706461688855,636.3918087041478,upstairs
13.67278797996661,-0.6641802195217742,-0.34151467657034035,10.178335155244133,0.30098310686584684,0.8269689468439899,0.11424859917264354,675.939783517687,420.22446132954883,597.9162458392921,upstairs
13.722871452420701,0.016509820578322246,0.017548369018207777,10.714849504185024,-0.16351664599659452,0.29349994767459553,0.4563841783635394,623.761321186416,357.01791457773953,626.5004011844609,upstairs
13.772954924874792,0.3073524748856759,0.2538563336683802,11.360661798183342,-0.07310706362013318,-0.09756987615458669,0.7346346779991714,652.6791314414838,325.83786342580635,651.0699740721092,upstairs
13.823038397328881,0.8946251427480633,0.36380185011992344,11.434173785983623,-0.48637018524280595,0.05198454557705677,-1.4869457494144576,570.5958871336761,443.32135168069624,706.5184678122376,upstairs
13.873121869782972,0.8342261930254827,0.7438387890001654,10.861358731070334,-0.1934699004890528,1.3580828128628317,0.1701805101868531,713.0167746735907,393.98368965674666,609.5736428192812,upstairs
13.923205342237061,0.9068846230092248,0.5509223159461092,10.910017969847638,-0.24974582525536373,-0.78127565211684,0.556185648453496,604.8868927447445,404.88650069983896,653.0906274953805,upstairs
13.973288814691152,1.1229101903248866,0.583263973785199,10.020760431792887,0.3266661012909338,-0.0898815933176236,-0.9190327241515521,723.6347587529918,325.60230055567627,699.6930815249705,upstairs
14.023372287145243,0.22326149347913882,0.1928435326398094,9.189930255655359,0.11272986991673992,-0.12995032292505598,0.7242739267427304,675.2942612168337,401.0613734596274,647.957087652089,upstairs
14.073455759599332,-0.08450370310685225,-0.4926067092361158,8.599615338317818,0.20327616260053671,-1.0174137353896149,0.005244771770629901,724.722790849672,397.7149042918435,649.3695672629727,upstairs
14.123539232053423,-0.41345413197809405,-0.2884575451878721,8.271230435198484,-0.06412710857211742,-0.7188898312452942,-0.2635636710032232,576.7296581622945,461.3914070562861,669.5891563022874,upstairs
14.173622704507514,-0.719129102092638,-0.7885496467582478,8.710937624159087,0.3596972881566142,-0.7306551778494051,0.4237307946339269,578.9625459209007,419.9196300428533,605.8710126122409,upstairs
14.223706176961603,-0.8238239294196815,-0.6860945503427354,8.98816961358664,-0.3955569560175831,-0.2715240345707925,-1.099848886038345,717.8002113455436,359.84584878086997,527.5846111845713,upstairs
14.273789649415694,-0.9074872660892165,-0.40212075406786374,9.403619552790117,-0.7365365369540281,-0.3613794280870447,0.08992394014641879,665.8573253261353,401.071338375606,586.553924554702,upstairs
14.323873121869783,-0.20359066399372283,0.26544661483938853,10.450087027085745,0.35399930964053694,0.7799244248660254,1.820586836198631,662.6640847022021,371.1084042313991,697.2443111103061,upstairs
14.373956594323873,0.023441206241772268,0.35466219374036223,11.00653296972821,-1.2342972322610075,0.4152538217857061,-0.05503823137831505,677.2558144200457,375.38763950974504,696.3207698328413,upstairs
14.424040066777964,0.5971057920186168,0.9468039603967695,11.56507966635625,0.6359942746103752,-0.4754943419635031,0.32144843095022985,696.80177318425,361.3830264420491,576.8603292166315,upstairs
14.474123539232053,0.8089765436759907,0.8528682396726006,11.647665829845149,-0.250210884061979,0.8960112432555282,1.5003222258363005,781.3084972520676,341.3354493213648,572.6547190387448,upstairs
14.524207011686144,0.9245817243485125,0.4726835665969448,11.4354679489216,0.7705439533516958,-0.19951054151769546,-0.46536424725256764,710.9747718318287,369.1276046560637,658.6133921600978,upstairs
14.574290484140233,1.1977516626539253,0.5370923343427945,10.142400416111391,-0.5742446761834628,-0.9306246542095684,-0.92570846063529,659.2622521704283,319.85797307564366,583.5401141519633,upstairs
14.624373956594324,0.7480894800689931,-0.004989781126279659,9.479469540463793,-1.4560643782810505,-0.6340715902203471,-0.9647804196807283,655.7998705369583,394.7854673897498,600.9557067515367,upstairs
14.674457429048415,0.21474248469121804,-0.29185392351280204,9.020293452462617,-0.2794438620394432,-0.6587939264416308,-0.4598411645442137,668.7578775657191,393.2239195557855,618.2608741857429,upstairs
14.724540901502504,-0.1340400486374448,-0.730015489603163,8.522523829134702,0.24265077523212142,-0.010312704409352906,0.5217382937556106,686.7333885670441,414.41083240089733,649.4528725510248,upstairs
14.774624373956595,-0.1772807342754837,-0.8167787740211867,8.288628218443234,0.1609221642886776,-0.17805580244258096,-0.37549535465768724,627.8129824838115,345.15293183514075,587.1621889962855,upstairs
14.824707846410686,-1.0703799668080387,-0.8053154495258743,8.842095381556353,-0.286329784816225,0.43949012688741906,-1.249800738021077,674.9125344629911,401.0060571655452,659.2572148815948,upstairs
14.874791318864775,-1.2773511696509268,-0.5307203784821797,9.099069969580784,-0.874634047114736,0.8241411565440999,-0.4568306574331559,747.794616495113,354.5382105992375,661.9239047251481,upstairs
14.924874791318866,-0.7365613158410654,-0.3949326181824771,10.213419144716799,-0.5190414984967804,-0.3414072413707974,-0.44407958165440964,699.3373198880944,376.4991316588963,645.4761592097759,upstairs
14.974958263772955,0.02082084040444125,-0.27274038883493645,10.893332382950119,-1.4306345022049098,-0.11293710555198427,-0.6742435084054301,649.9318358919232,393.2177382195817,710.0791642013296,upstairs
15.025041736227045,0.11963286762612722,0.21221882286770027,11.351231561334886,-0.48100614860179375,-0.45282747742791934,0.41497592133504685,671.9951497124093,459.760178234588,643.6449396633963,upstairs
15.075125208681136,0.8371207728388989,0.5576907893402236,11.423595716708483,0.6386560486864943,-1.081272670433736,0.4945268593282008,667.6980550484217,385.9340302656524,683.2623023273943,upstairs
15.125208681135225,1.1338365255992262,0.6934052841874656,11.326309810749848,-0.2515990982233368,0.693969814040878,-1.3421842956072516,704.6178736955252,349.5390816342324,619.368825953825,upstairs
15.175292153589316,1.0649840475005985,0.9349334166271719,10.608692118833117,-0.3187389991137974,-0.7117108089585333,-0.4242059293712041,736.2772713688851,387.50708800469465,610.274532465709,upstairs
15.225375626043405,0.9583697399441425,0.010799553706417775,9.857469054198567,-1.4159986334788046,0.2862789080594517,1.8166461552042052,769.1109749231631,422.28192340910635,614.2069353999522,upstairs
15.275459098497496,0.5959712793597406,0.03369374204864298,9.276220469811724,1.6603530488700657,-0.0786492693334576,-0.7312180943961996,671.5277010029232,371.5382878059738,579.0250951008925,upstairs
15.325542570951587,0.0024859624224519844,-0.5701064848748563,8.704644485285554,0.8042646588265798,-0.7406022540675311,0.8158978012343965,634.0716175079468,354.8471104668921,607.3726244520957,upstairs
15.375626043405676,-0.733086341563957,-0.9797546398090218,8.359486082087033,-0.673199421622012,-0.5873231724976598,-0.11190297255037754,704.5926010266775,332.99709517522314,654.552096832034,upstairs
15.425709515859767,-0.9205187162814769,-0.7291175624825033,8.373024199215513,-0.7757980357643978,0.5787776425228806,0.04197447008939653,706.9510321698085,370.3831833394816,582.9464439082817,upstairs
15.475792988313858,-1.1720427749544688,-0.48152673034070137,8.974719533033728,1.0707579633507147,-0.3802047514927537,-0.805249408612578,653.1084510887559,402.0465840208531,567.2077992502063,upstairs
15.525876460767947,-0.8891969393955009,-0.27916056045623083,9.916885648031593,0.6347133490107972,-0.5982801766703317,0.6807510693703092,719.6253232642916,387.8027057755858,597.2100460394665,upstairs
15.575959933222038,-0.5130575506768552,-0.05183637751232902,10.353872092248906,0.08296291033561332,0.15984404547903336,0.8257416679559761,681.2675395164778,333.79522383303237,642.3096576880902,upstairs
15.626043405676127,0.04806897696461939,0.04153936345146281,11.167387251769561,0.7313137346277329,0.7694084699177204,0.2943241316879226,675.3176127022405,416.1861871808439,686.9705012967686,upstairs
15.676126878130217,0.4811412104254164,0.8210936608290642,11.579387110699937,0.8932742587860463,-0.4499440571021851,1.1741494848488818,626.1619450300227,361.95892483203556,708.1791629696174,upstairs
15.726210350584308,0.7863899375827161,0.4570376845065462,11.580329960524047,-0.44278123098421335,-0.28894177230227225,0.5765494713021649,710.9698072219729,366.3439267870014,753.6284095219462,upstairs
15.776293823038397,1.1485200597300111,0.969193968477398,11.169906953192594,-0.5787670885580882,-1.5042699117897913,0.5109901177987295,592.5871944566916,397.6179607720031,556.5820184454906,upstairs
15.826377295492488,0.9793732079430038,0.24550623026181634,10.537583760797842,-0.811931297850215,0.04769476352961636,1.5211015160434243,612.9614442650668,388.6072107700387,621.8141145937086,upstairs
15.876460767946577,0.5753968475016128,-0.20126057445430207,9.54893408940864,-0.011095302006610502,-0.12877009991950836,0.19391993461893517,714.9344016810837,345.18260194643244,692.379489744635,upstairs
15.926544240400668,0.009079229405827588,0.3303690240391707,8.933407351265544,0.4637410357809563,-0.05426643470000551,-0.0928349946578723,722.4719476676967,429.78190224086205,628.0967261513597,upstairs
15.976627712854759,-0.2178681650135656,-0.5723667426516559,8.199018532552229,0.430420432650475,0.5363945625905904,1.200428539796517,601.1818300576406,371.4002503980613,598.120664099186,upstairs
16.026711185308848,-0.8449168973633869,-0.9081464793939049,8.530724425864813,-0.5646129682012967,-1.3382009160662982,-0.2701608195996178,663.5051437862684,372.86099391297813,651.8249698805564,upstairs
16.07679465776294,-1.024728194592089,-0.6437577063208122,8.894812735538483,0.376007396644838,-0.027515665573712596,0.5097058806824717,725.0187948202589,409.15954716633786,655.2119254881997,upstairs
16.12687813021703,-0.7739755860804242,-0.8676097297846876,9.373204678092364,-1.3324317505417644,-0.8763540413557588,-1.1818473277076822,653.8274457845029,364.6927791860448,565.7021881409926,upstairs
16.17696160267112,-0.47772300332198997,-0.20078557904293115,10.515299500253045,-0.5105048265366197,-0.11730072937617647,0.34081803453589193,636.2999587678664,439.3855798347046,629.7361728486701,upstairs
16.227045075125208,-0.07582191305532678,0.38296319596785827,10.895278440851824,1.3193139646985395,-0.25998976726858297,-0.14032751681964922,661.5435226565503,344.91580342424436,605.3748893395745,upstairs
16.2771285475793,0.49174140683200546,0.6442549669145126,11.090340378119668,-0.5273849477321221,1.4934447028793882,-0.4941433131969476,652.4986370051182,342.5850086498921,668.0644545905993,upstairs
16.32721202003339,0.9564281416975736,0.31526707049994307,11.546869744976217,0.5731124480880823,-0.8964109991066617,0.9424873260033143,699.2528672906795,333.6905687748347,633.4114266397582,upstairs
16.37729549248748,0.8867524340260213,0.663881650748819,11.026842878121077,1.3505129610805655,-0.8040250485593277,-0.06754770869306363,648.2561496396856,336.2679451577967,649.684907257831,upstairs
16.42737896494157,1.2093513603041193,0.30761056464873826,10.524506424970918,-0.5960830991085939,0.15667971133370112,-0.3461211821314094,638.8263613726044,387.9001538100227,594.1884738752876,upstairs
16.47746243739566,0.8028701638679976,0.4212680450632486,9.985222289674992,-0.6280137221282063,-1.2065181519770816,-0.5084783904424285,673.7131544046487,421.3024517970404,587.3090968458802,upstairs
16.52754590984975,0.5626628424218904,-0.1870996838327808,9.378341555132884,-0.5232031031992077,1.2706703960002144,0.7453651217151864,702.6287443710145,420.12171688206263,630.152847884135,upstairs
16.57762938230384,-0.09814392042104152,-0.6975273471634693,8.263472818660572,0.8410880815415166,0.5098725876700012,0.3351501588142688,638.1783163118197,378.47938699823357,597.986949143105,upstairs
16.62771285475793,-0.6462952790667097,-0.6817996085866616,8.496096750246883,-0.07425774663868032,0.5056519365959432,-0.1866573688763357,766.7596490184491,350.20330992861227,604.4049535826937,upstairs
16.67779632721202,-0.994120899871641,-0.35924518725816584,8.491800018714418,-0.6415322880771955,-0.2275378845211788,0.5223975760981898,647.3744549902196,374.14711948206013,659.4361666278166,upstairs
16.72787979966611,-1.0501392776273286,-0.7187038285690093,8.741380684715699,0.02443910428821995,-0.8153745246493816,1.4432180899578022,640.6538699199912,340.74104971233805,651.8940685543047,upstairs
16.7779632721202,-0.2610761876472212,-0.307632278993728,9.790518056546007,-0.4439810770080661,-0.5831236323072929,0.8934953798837431,680.2332939138921,428.7299240644934,588.2970633863517,upstairs
16.82804674457429,-0.4727226639896253,0.1595171930461149,10.4791500628991,0.8974230345979998,-0.469300878255354,0.4434986733021642,686.8815254637888,343.3212288852538,586.6425510954964,upstairs
16.87813021702838,0.12150278017594301,0.4951328099435592,11.712564133211808,0.6580291385873781,-0.050904603972368144,-1.1902058857485092,754.0982379357598,364.7370851118441,587.1920769193865,upstairs
16.928213689482472,0.8457829040045014,0.27915892574656803,11.430422349422361,-0.591602354494562,1.1780811141107732,0.2194560426197861,663.2667284479177,369.368177693388,637.0433499670222,upstairs
16.97829716193656,0.906682731685496,0.7435735756246351,11.57399378437568,-0.46355873822584553,0.2929381989333427,2.024507928582711,738.9393107818291,418.9978689876638,633.4355279010467,upstairs
17.02838063439065,0.6348315910013077,0.24578804187268638,11.023034262585014,0.19720314081046203,0.8864319981521607,-0.04018426868501029,706.0453619264423,324.6052541942484,574.8810586902706,upstairs
17.07846410684474,0.8720054217225992,0.24220981743539582,10.854592584456286,0.9688062362284374,0.792555178649801,-0.8227372369084474,691.3502257658351,362.58225246062426,629.6968644568631,upstairs
17.128547579298832,0.8101910758844927,-0.05545136310825162,9.595374957430053,-1.5706542985889242,0.3075872263576719,0.4927313385767629,659.5302311589699,420.89004691235584,609.9123673203902,upstairs
17.178631051752923,0.20715550143190725,-0.21865615155178042,8.48461163469276,-1.324308804685803,-1.1851847221244334,-0.8663191100559247,699.5540585091087,377.90337423708536,570.693545171938,upstairs
17.22871452420701,-0.5814379095564279,-0.6326522940128991,8.450878380677407,-1.2451787328350743,-0.7383779516889802,0.03061704549095432,634.9354504624121,452.0929807184517,693.4631716327743,upstairs
17.2787979966611,-0.5508861187662514,-0.8735256946969374,8.352073969913706,0.8428024258067776,-0.28502678447644325,0.5079622156203472,700.3952202224359,384.268414270405,585.6254919393418,upstairs
17.328881469115192,-0.7399859391649384,-0.4052812366965447,8.64601157184908,-0.8773308119095659,-0.4891509991267139,0.8769221255359686,761.5473091036266,344.22648499569584,657.2760289082632,upstairs
17.378964941569283,-0.34045291921206516,-0.4040131097355693,9.61463894646295,-0.048872911890289424,0.34016752325169514,-0.34798186767513606,740.249438301079,437.5151564356173,634.2758057358205,upstairs
17.429048414023374,-0.8503113216418514,-0.061348085259981255,10.180082539426051,0.12671852975537765,0.027816310062139808,-1.4718374942109378,614.0285113458704,379.65177763393757,683.5986476864812,upstairs
17.479131886477465,-0.01023111099526959,0.690970460804736,10.67706504550848,-0.23094478224584003,0.3237373431492775,-0.03856734027524192,685.3569389010594,325.4252746441247,583.0235980733482,upstairs
17.529215358931552,0.31067224883357314,0.45400511670381666,11.456588599968333,-0.44075729361606486,2.21174851617885,-0.345433935825475,666.2819139046138,364.7364750810222,590.306052675252,upstairs
17.579298831385643,0.8968131872316186,0.8223949967459194,11.652293763738827,0.3969929398357118,-0.7470748897655995,-0.21434182334328675,710.6013149645636,398.7242075175643,571.8281053336591,upstairs
17.629382303839733,0.7360103803340522,0.22633763762659093,11.294406798639717,-0.5753139324207031,-0.3469203019827221,0.9679063898269298,725.9890356256487,339.53350695210145,650.0088270235956,upstairs
17.679465776293824,1.18056005409311,0.4406678986074581,10.70415954175309,-0.6946273831977571,0.22976636518579643,-0.9378447417586024,675.3697801012189,408.3839699190875,564.1551979407327,upstairs
17.729549248747915,0.9152613867554883,0.3058515923279053,9.530016892968902,-0.13109261415341703,-0.1329133861985245,-0.05762166256404082,728.6947341120441,422.5610115309054,684.0399437983683,upstairs
17.779632721202002,-0.027535021721899325,-0.13337433712939378,8.796123466632471,-1.1397051916920273,-1.4364546974152712,-1.5046087102406804,685.2999331298967,371.6742769595974,672.7360576026389,upstairs
17.829716193656093,-0.26734537553527044,-0.6346762669900812,8.400521933995897,0.7879603230891915,0.5293566027891258,1.2509694556912367,686.0180770878862,323.7340401386165,582.2766090805835,upstairs
17.879799666110184,-0.608082097551053,-0.7206774631308874,8.35618632927599,0.2776523220581314,-1.4758035861999388,1.0855650135674109,717.884294362846,391.16609591257543,632.4281537150904,upstairs
17.929883138564275,-1.0441979396261987,-0.8213918294797609,8.665790774029672,-0.6908577939689584,-0.42066210967575984,0.16635617311969111,696.664116595092,431.73222851244986,652.248764913286,upstairs
17.979966611018366,-0.7865492530143454,-0.7685252933720941,9.12080075346574,0.8089181665547915,-0.24392945507252353,-0.17704853269999993,686.4922734090661,381.2391389961541,642.0682334254169,upstairs
18.030050083472453,-0.6348610583632438,-0.520599200934512,10.048669555410171,-0.1573344575277481,0.45869061054584087,0.4352154132186967,639.4944864886695,405.3431437257832,618.8229392284353,upstairs
18.080133555926544,-0.15519468096867123,-0.5068221705461529,10.809357767496612,1.4576689604115685,1.2445720019454238,-0.6208469058156278,638.0399228314582,300.2801702778393,647.9917472975573,upstairs
18.130217028380635,0.5120863538015101,0.1691837382465406,11.425619150362058,-0.48460699736529705,-0.3647392586558429,-0.02615008565729579,739.7138985413962,380.123214826529,587.274917937289,upstairs
18.180300500834726,0.9325644389271425,0.7812538392784587,11.795403052904957,1.0427236377603297,1.7289405414584846,-0.5842239408313623,739.8154750527706,360.53552889580396,555.803028471264,upstairs
18.230383973288816,0.6372056078067255,1.0082269470188108,11.42615784006254,0.5178589882237097,0.0327013959821709,0.8242378162189595,697.3763895740365,350.25750015206216,672.8353035563883,upstairs
18.280467445742904,1.0583087474284567,0.31419098126249073,10.831820357585553,-0.6901999798650631,1.0257818490567074,0.6571712793009045,657.5957715136425,375.697387277773,587.2218624097598,upstairs
18.330550918196995,0.7363739824508321,0.11970661339853736,10.346570106002012,-0.11740342121391048,-0.3598907218213597,0.6664782669568836,631.0758913096861,386.8531203602774,603.0671804822662,upstairs
18.380634390651085,0.2837216292352079,-0.03166061579707183,9.54578909247757,-0.9715647296587792,-1.7175509571861498,1.3412970451474377,699.6648545581634,331.3978434623525,666.2787975670949,upstairs
18.430717863105176,-0.1636455461625696,-0.21294457774853712,9.038475560966717,-0.427473327623124,1.5588556777533413,0.01256236965410423,709.0234393360586,466.286223687869,634.2517566067963,upstairs
18.480801335559267,-0.5838646737347956,-0.7742837103389839,8.376321477021518,-0.45182221718857746,-0.6827876125865076,-0.6248343984657536,687.1481179142809,360.99571464629923,610.5355551182902,upstairs
18.530884808013354,-0.6277738344560335,-0.9518820719242691,8.4558414694597,0.4422740353585759,0.1400065751485075,-0.621467192046828,781.4962604089776,434.75598378705445,607.8137896898245,upstairs
18.580968280467445,-1.081080997548155,-0.7808267181853017,8.601550429537129,-0.3185498130975371,0.4011201105165761,-0.3375860565015794,662.2139629607024,358.4408852802497,617.180777320413,upstairs
18.631051752921536,-1.0640325174559466,-0.723042051871398,9.59179887975792,-0.2022108902428183,0.29614798131780484,-1.2029253292373496,714.7951123474226,362.0403860670339,559.8876393296428,upstairs
18.681135225375627,-0.5988241605453352,-0.020820103540483498,10.522727678399301,-0.7424223737378097,-1.3161654748693663,-0.2264974029250555,714.4335883725045,373.8814747718239,607.4575721793685,upstairs
18.731218697829718,0.2431957672615025,0.2848678023085472,10.821364544278891,-0.25137042268512344,0.5780257349021615,0.9940603960776968,603.7457766692794,406.3789217723412,644.1622927054542,upstairs
18.781302170283805,0.3091525027240926,0.456750156114549,11.532108509408374,-0.025104178485069593,0.4897849824853231,0.7300326806589337,687.2906301314397,377.4966508050941,659.5046612085242,upstairs
18.831385642737896,0.252051806145055,0.4646083153086494,11.8767113606485,-0.38293947159386216,0.048776456626055384,-0.5212007027225721,567.5991484851841,355.178407025762,564.0604650445778,upstairs
18.881469115191987,1.316341147699369,0.6872047182337888,11.352041223212117,0.5064025808817587,0.8184984203125564,-0.811185867995009,734.3672949889902,435.09833080290355,635.1566750692562,upstairs
18.931552587646078,1.2325199147717778,0.10654712386568294,10.181295130937393,0.07167554005985308,0.003849776661327758,-0.8884086962115464,661.5137144428351,347.2908802694326,644.6913198098632,upstairs
18.98163606010017,0.6886342781444049,0.04454654310138084,9.650234223809658,1.726864694694215,0.6159657485327643,-0.5748440371481928,719.0033386151116,409.29024920951576,665.7273865595756,upstairs
19.03171953255426,0.48499453385807845,0.02928993213632558,9.34270823028273,-0.3196532314633159,-0.2780679326546869,0.5847753558735168,674.1508647611129,337.3718867389987,609.1067686747135,upstairs
19.081803005008346,0.1084922920628874,-0.5810656002673888,8.345200171102949,0.5355207205978241,0.6201309009622578,-0.6809003060571661,661.6951545647529,358.8156847329235,555.741657446096,upstairs
19.131886477462437,-0.5390020611014137,-0.8201411516247741,8.15442300020377,0.05598661060134516,-0.6655299064924716,0.035323140015595986,651.0120765859688,349.76012808976424,565.9207846107583,upstairs
19.181969949916528,-0.9642621856850976,-0.9715504739709793,9.008405046285516,-0.8119147555945333,1.046836272596165,-0.6650997561735754,704.2434938893962,323.4285872462503,599.0889679534325,upstairs
19.23205342237062,-0.7926499092606767,-0.5274135364142796,9.008493004528468,1.0281891804918075,-0.0012346171013140575,-0.03305300287550851,681.1536769031927,383.6655666013332,585.0074398024482,upstairs
19.28213689482471,-0.8637805324838722,-0.4388347747574104,9.6655406979788,0.09232394670301147,-0.964818658318723,-0.6131247435220245,611.0329560687518,353.30136280867873,584.6912545390874,upstairs
19.332220367278797,-0.37466532976259703,-0.17797353414747819,10.554540742737254,-0.12506475753720483,0.6645796305116515,-0.3798227822392045,725.7571301368421,357.9515613314329,581.593448704401,upstairs
19.382303839732888,-0.10716247821722037,0.6885409113481151,11.274587135992519,0.4396644141963072,-0.4662777730365689,0.5933494606411206,693.9133824550013,365.42297425427046,582.4030610965817,upstairs
19.43238731218698,0.620561389038806,0.373624697769313,11.62790864292639,1.0529404107541327,0.11857446639593315,-0.39303281570325366,751.4029987175036,394.6071677879637,635.6544053809364,upstairs
19.48247078464107,1.084870310287711,0.8886107962950747,11.359957073037231,0.5544523378139358,-0.14122093610669714,0.30884717855850347,644.5135358404672,425.59423241365425,626.609782546149,upstairs
19.53255425709516,0.8154749920606174,0.48207056015388167,10.577528350204975,-0.488160759578197,0.06234628358776457,-0.13268486820889158,712.4386222892083,432.6690482576553,623.2267731593944,upstairs
19.582637729549248,1.5374652750739803,0.23966721004121616,10.058401608377727,0.49665372958371945,0.05404208991493641,0.51009254478865,717.3053817851976,426.93842966228334,662.1644186820106,upstairs
19.63272120200334,0.5392022757719225,0.03284049688139984,9.235833859629244,0.33198109281566884,0.7284473099474005,-0.20268138876915923,656.8926033244652,374.1319491640132,599.3948374151728,upstairs
19.68280467445743,0.08358609759223239,-0.44801120660878374,8.796646350871692,-0.3206399729946225,-0.9846461951031074,0.6041543145178159,706.6663286945318,402.3131669687059,662.5369043807615,upstairs
19.73288814691152,-0.47646250816529895,-0.6594857489423374,8.28064007745592,-0.08998755963621055,0.4442607777469524,1.1309582534073295,703.2481486064501,404.6509071250866,573.629627901636,upstairs
19.78297161936561,-1.1094050878079353,-1.276053633219391,8.51967233393385,-0.8352230853137388,0.03694142173407725,0.11033475651099,724.8399067439348,381.0987124116811,638.3514305252254,upstairs
19.8330550918197,-0.835307848113477,-0.6208785195100679,8.487036879347896,-0.4352580075227722,-0.7059244862014383,1.1614627916612539,687.8889092579853,335.5333840997598,628.5914798533571,upstairs
19.88313856427379,-0.9497564461276778,-0.4611606524928534,9.494479931591936,0.029043432754840937,-0.8221664036615897,0.41692406021242323,670.5669219881255,293.65548519873334,528.6752290142697,upstairs
19.93322203672788,-0.4140924664934129,-0.2822609189232954,10.319420105085948,0.08443292821417697,-0.07352775350065194,-0.14789652945773052,662.0614810689084,464.83644115726315,605.0956964450354,upstairs
19.98330550918197,-0.3697797306956574,0.2625088959268072,11.323394009539562,0.2774440215573445,0.7231243464631237,0.48706273441446113,646.8114308901478,404.72307919555675,666.1324423581093,upstairs
20.03338898163606,0.3911443686127176,0.3718107734743884,11.183437049840814,0.08044617024125075,-0.10001242547662068,-0.18046648803470883,662.6253521178409,385.24389671321535,608.5117577714483,upstairs
20.08347245409015,0.6339466964184332,0.7868220194901991,11.444059474607826,0.5107110038084602,-0.8874052405106035,-0.5675525912200818,699.0432017737638,350.1575908656055,535.1891530067319,upstairs
20.13355592654424,1.3119680228025636,0.7861593961580358,10.917545551422554,0.6420391758896811,0.4571390721892665,-0.7819646835954291,703.6189698250495,381.45566724214154,556.4140437559158,upstairs
20.18363939899833,1.2849343617913198,0.554988010264412,10.462383428018844,0.25550808650425977,-0.23157617901614527,0.5176764697214083,750.8232432441632,451.7781379857662,639.6135265848138,upstairs
20.23372287145242,0.851416412686086,-0.07580138019497767,9.759053416190762,0.3645865641051012,-1.5172615218467511,-0.15721432525718818,651.9595371512435,412.5233758189741,637.5376902706081,upstairs
20.283806343906512,0.2498895627806269,-0.07226606263214022,8.98244869301678,-1.3001920908980964,0.8973096001753619,-0.7321565216630961,724.2336553798906,429.3474545861695,584.0617604591383,upstairs
20.3338898163606,-0.3231096479556559,-0.7780828791361678,8.277061792377197,0.6442284514545769,-0.19558604658400378,-0.7684041014448082,711.7308123433082,387.9383252690564,538.8762584003528,upstairs
20.38397328881469,-0.5045084319862685,-0.9255383480338948,8.240790863586012,0.014416227792282634,-0.08310677470635121,0.45712383378301347,677.5913124283029,354.0802028325107,569.7927828396867,upstairs
20.43405676126878,-0.456198426498949,-0.7787772970196134,8.578815462694562,-0.6235867268438896,-0.7291487058174349,-0.39459236452775054,659.1693852810045,370.59299679250427,631.7410526492883,upstairs
20.484140233722872,-0.9464441519740704,-0.7764109390827758,9.569828555057246,0.6406496161706748,0.1404352826760274,-0.6111255191102862,677.3765365146709,379.2176281878049,605.6150492406805,upstairs
20.534223706176963,-0.8332442186405467,-0.5001565160513124,10.095045079941242,-0.03291861529895684,-0.04753388843422964,-0.5392515116596776,687.1354096879375,407.5618142076869,676.5776834666196,upstairs
20.584307178631054,-0.3570173795843834,-0.11458859748761359,10.825407583795968,-0.5095410077623935,-0.6751649318651152,0.8954912041743655,746.0912331302789,396.1904777432077,535.7032655983751,upstairs
20.63439065108514,0.5012989457350193,0.7241468656082026,11.012408053620454,0.6633580804820116,0.05506108393353615,-0.268624771147751,661.155545743529,333.35601379907496,663.9445619594775,upstairs
20.684474123539232,0.7438470585713435,0.6274630747844105,12.06920666039722,-1.1985492857144235,1.5449003238953853,0.6378818892042158,661.0867174372834,390.17786076099304,630.2775493885046,upstairs
20.734557595993323,1.0642747343073906,0.4492924095101916,11.042714339491638,0.896630253058196,-0.07612137174802579,-0.25237696659277337,608.1929051584609,432.1841691500414,572.0916849239766,upstairs
20.784641068447414,1.088330776276899,0.6833145583368188,11.34755933210841,-0.682408267986703,0.6623461708280873,-1.987397406218951,759.9466887728593,375.38489424589443,620.3666752615475,upstairs
20.834724540901504,0.9336091863040704,0.14677504721687967,10.058778329838217,-0.048695624074503355,0.23166641356951845,-0.9651111274811945,735.2802440777537,415.167957858622,693.7479556597002,upstairs
20.884808013355592,0.2763404790060023,-0.1461851624838143,9.45519432621155,1.0531238671887535,1.5821576216858182,-0.04762789745763355,681.1701866626344,344.43699460142915,650.7831547297171,upstairs
20.934891485809683,0.03024538318739141,-0.3794773665180525,8.94358450455052,0.334667811968227,0.031951565667634046,1.039881039201697,723.7633848171546,441.9102089851849,568.519904365346,upstairs
20.984974958263773,-0.3924745502907572,-0.6644428603971386,8.33949955143876,1.1465140831020442,-0.8356490144012382,0.4912130363375686,603.8113132824744,354.1766838577831,681.4976666027904,upstairs
21.035058430717864,-0.7826791980449455,-0.30765046218335257,8.260139450908497,-0.25726439558398884,-0.7768242162102121,-0.27389072670776143,703.5681314197315,419.79924379484544,602.3705325387596,upstairs
21.085141903171955,-1.0172001356687206,-0.9400041567817761,8.950073800441384,-0.48814223511696053,-0.40759934314087715,0.31875676850529466,604.3516556592315,365.084990567364,653.7773384177764,upstairs
21.135225375626042,-1.0083346770358315,-0.4698631948442051,9.497832631085139,-0.31841331537149914,0.2844940174431581,0.30662019228902043,639.5846425160878,390.2587430658929,656.2367114169712,upstairs
21.185308848080133,-0.2992569839782378,-0.3752607279491364,10.399152924144188,1.658080135380683,0.23263913914169054,0.4496675373492879,721.7398669771264,346.3110140258592,524.9227726943719,upstairs
21.235392320534224,0.11621394029072711,0.03691262468236464,11.26425195049997,1.087869040751082,-0.9245523561284046,-0.8121872569269144,719.6962580057483,371.33630229820955,671.9049522231188,upstairs
21.285475792988315,0.6385968039076977,0.6836587384447212,11.164121943809526,0.34003001685352535,0.7403445945224333,1.1122167395255165,627.8305693749439,370.9551464208818,605.2745369999245,upstairs
21.335559265442406,0.9817326088432877,0.7455685940521697,11.564567500308481,0.28810476602604035,-0.22698488593724597,-0.5694802981432499,787.7951081604566,341.9620343045227,579.8263385161533,upstairs
21.385642737896493,1.1673239410489056,0.66167321657046,11.230847486691555,-0.6833932308128257,-0.2779404166252724,-0.5954727962174585,623.8760750036498,402.39712222743776,597.5324888765166,upstairs
21.435726210350584,1.201503804483614,0.6775808503319429,10.440360392550344,1.2302130162203184,0.09579701370116725,1.2043094648306838,686.972990721313,425.71017947859235,638.0682601368463,upstairs
21.485809682804675,0.5858805382145295,-0.12506096886455864,9.737564778779875,-0.776102672587779,0.02566769563908833,1.3697197040564275,657.4700387751706,437.4125289751955,563.5787692229367,upstairs
21.535893155258766,0.6707195037264707,-0.31851277912143017,9.293296265138038,0.28736641724667794,0.05410356307582204,0.9125609858865311,665.529962315518,446.09028431102604,616.5571647535528,upstairs
21.585976627712856,-0.39703716830016333,-0.5272832577517121,8.34413533908813,-1.1382836185551763,-0.48851714410603686,0.8551599250411548,580.2305619719389,406.58071002565936,575.3452338240079,upstairs
21.636060100166944,-0.6475979968822799,-0.42489923937290675,8.38646765973405,0.09681606836893673,0.15913636657465471,-0.5784377392750758,614.6843082354372,399.1088504778277,552.9729542763607,upstairs
21.686143572621035,-0.8658915820252364,-0.6366274812721577,8.477916055876298,-0.19534477748220813,-1.040616729702924,-0.5947945233899862,686.7324533352246,371.2364514626758,672.7510114393932,upstairs
21.736227045075125,-1.0012718274133978,-0.5244116115426307,8.687973900520298,-1.227348666827235,-0.8223280565010433,-0.7834327775173361,685.3176700170144,352.4518533779955,681.3554254657431,upstairs
21.786310517529216,-0.8196703018529901,-0.24750573319004815,9.960622361019338,0.5857949025441491,0.091581570813112,1.3489506311674797,606.7114889885376,346.00602448326543,620.3690349350378,upstairs
21.836393989983307,-0.1301616817815825,0.09025797171057123,10.678854197625299,-0.06077404132027767,-0.5880992277535051,0.5719966097257269,668.3386529945495,379.466276550416,579.4422392616705,upstairs
21.886477462437398,0.33400089901453706,0.26380305971453744,11.29604945647501,0.36946072717718437,0.13058937569802026,-1.2833004247986637,636.342188015571,390.5769420589074,615.711501920558,upstairs
21.936560934891485,1.0523406472076717,0.7027607044026887,11.059317975726769,1.165880310023334,0.2724406708771211,0.9604063847337934,724.6254511633316,313.5293899288322,623.0508965800059,upstairs
21.986644407345576,1.1393779895329856,0.700901942961732,11.256705391249174,-0.21146603521640195,0.3288696857010011,-1.1058500031201006,582.3900243220243,381.2371774433124,638.3305700201066,upstairs
22.036727879799667,1.0192111466364027,0.590888896408974,11.182354183494555,0.26324220965782863,-0.6851033284330937,-0.03276928384462304,672.8640665660178,338.9184843866043,598.0781354167882,upstairs
22.086811352253758,0.8994284078174225,0.5175502647552725,10.201544252763524,0.2926712052323683,0.5604185005401,-0.8629227882374425,760.7579008585442,405.6950659303394,752.2293637707445,upstairs
22.13689482470785,0.5061521363842942,-0.44344005078506094,9.572330590574119,0.014869478243824539,1.0472091668380152,0.21524063836357704,721.9935212206216,338.58849040319757,585.2995350291933,upstairs
22.186978297161936,-0.3044324723143404,-0.9446210929529983,8.852447143271396,-0.6670590912871579,1.0369927947772908,0.07021759918954319,745.9474243778216,396.05490700782303,625.1502936932525,upstairs
22.237061769616027,-0.7312674396743531,-0.33272305375437294,8.544759626023449,0.5075758881989981,0.2825341092866209,0.4682443040823774,663.1824720502658,423.215256085545,652.6286018235334,upstairs
22.287145242070117,-0.6618334489465983,-0.9230376288649125,8.209380985052753,-0.08988958119841534,-0.7675888046819678,-0.14570793930682557,651.7213689702975,370.0522139440545,544.7365423485337,upstairs
22.33722871452421,-0.777351865936056,-0.8114435062921359,8.783440002750645,-0.02267342361559542,0.7855125158018942,0.44206883129526664,712.0878027619458,382.50423064428475,510.9130163493486,upstairs
22.3873121869783,-0.8270077196829011,-0.5702649840748435,9.280867394668405,0.6114672706128701,-0.474979914061122,0.12411483216282744,711.1794268399384,391.7227633788867,571.4413530082713,upstairs
22.437395659432386,-0.6515935397510565,-0.15141220599394722,10.207590874838017,-0.49739340752543926,-0.026291576564130986,0.6406571209084275,664.3780351997485,424.84920952600953,665.1547307456339,upstairs
22.487479131886477,-0.0843696159785265,0.17111595653344405,11.158465051580073,-0.7394894187935233,0.32379193663673794,-0.21193645706391584,657.5264010541489,358.8310891027424,626.1118769637922,upstairs
22.537562604340568,0.2070564374782815,0.5752877972468473,11.528284259410537,0.8921121281884247,-0.7131924537430091,-0.10849633239582014,622.4002937991178,426.8798059998308,619.561412475304,upstairs
22.58764607679466,0.8881224775255578,0.41572076126190066,11.95631155362898,-0.15986725642489702,0.18212570726054428,0.03489565213527465,686.8277329300007,358.231587137393,624.1276164843789,upstairs
22.63772954924875,1.0701397188704436,0.3877229909716943,11.15255258338854,0.7342008540777628,0.13718398170336946,0.5189193027659165,720.4320266463906,461.77999750988556,624.7418344590342,upstairs
22.687813021702837,0.8562636031089664,0.15837604930179333,10.509083716097226,-0.7937077131983243,-0.30580837099168234,-0.9958299820946315,629.7053913783493,413.2556156641144,633.3305441250237,upstairs
22.737896494156928,0.7024636060350624,-0.5052814756289439,9.546925453783675,0.14874135882625233,0.35597646385671183,-0.3326499755029637,677.1840363937177,391.10888146342705,672.4410878224661,upstairs
22.78797996661102,0.3624258782549343,-0.5382945569876323,9.175451108217684,0.24365537019691497,0.35082419472591175,1.2161879823325652,650.8995692375253,393.1438386983769,615.6164382101556,upstairs
22.83806343906511,-0.05125864029643336,-0.5037900540337925,8.075764159129408,0.0678688187287269,-0.3468571611732445,0.2819414539202805,651.1630199497513,392.2366975406311,605.7457901021809,upstairs
22.8881469115192,-0.7842099055728696,-0.886339821385566,8.570373089055185,-0.45348300917150824,-0.2942419617550396,-0.088286123113419,725.7891324135368,402.7659170362309,658.1735017136085,upstairs
22.938230383973288,-0.8463058758059411,-0.6127927956264971,8.698943201770218,-0.34960165875623256,0.17987723705269998,-0.7014556558085532,686.1535141520652,414.3684810493121,606.2335725317046,upstairs
22.98831385642738,-1.13956001122329,-0.36321810293528806,9.219415095992911,-0.8589126994510682,-0.08414041451352336,-1.5037931895418741,642.067876554329,400.59929146339783,688.4533625042279,upstairs
23.03839732888147,-0.3940216677653658,-0.4805376707662805,10.138166538988653,-0.18821730911273069,0.07851683331797946,1.0950385711671426,706.5836494931144,371.3538731484398,707.4802487891446,upstairs
23.08848080133556,-0.12496827368502474,-0.1969387348749792,10.5559368762909,0.9585386081024481,0.07551521761666344,-0.6705293512178205,642.258719659138,372.28286986805625,591.1013425876398,upstairs
23.13856427378965,0.15522562158876427,0.18604217450866262,11.720912114651282,0.45461082234490163,0.651909910732883,1.8237288913461887,694.8379777311766,464.3522942516487,642.5263696595707,upstairs
23.18864774624374,0.7019526898008636,0.7339996039888392,11.743056196053395,0.8961226587797192,0.4296980841750618,0.7416937827723376,685.1736208455483,333.6751034149543,599.8304998573994,upstairs
23.23873121869783,0.650917947076301,0.5160828499595829,11.448840294683027,-0.11801439125009272,0.9438182783158492,-0.5336926095551447,735.596955943406,373.95946463971165,648.65438376184,upstairs
23.28881469115192,0.9245174474030432,0.3244459650899311,10.787256356876751,-0.3395864324195993,0.5898205311815897,0.5044087236684153,604.2973735970913,375.291988280346,597.0974211958855,upstairs
23.33889816360601,0.9804615014026324,0.5611101684380295,9.582402854093058,-0.11808595572724088,-0.17667192493708192,0.9201260653385178,602.5245255806785,413.4487691343267,625.9118649010911,upstairs
23.3889816360601,1.0815261673963785,0.4888709884528278,9.435492268596354,1.37070287121467,1.1800848807350812,-0.8698260927823372,691.662950927113,344.5578207988965,612.5190012590077,upstairs
23.439065108514193,0.11535019986647771,-0.1468493145463745,8.522825909929637,-0.3361401997863595,0.7027152157653878,-0.20990610230293905,666.6444467414151,319.6914496685791,646.0451459631689,upstairs
23.48914858096828,-0.5877347437972299,-1.0106115444991886,8.648023193293845,0.9430263410241048,1.097651544360903,0.5571435105758801,654.2513831149554,431.68556946585943,685.2622711944322,upstairs
23.53923205342237,-0.3907821945217483,-0.7424652326807304,8.265540467724897,0.1159117227353641,-1.4236087158105708,0.43057043495125374,658.7608480621873,413.992732349348,586.840107687532,upstairs
23.58931552587646,-1.0390763191952344,-0.7072463932315358,8.847062859643056,-0.3672799195839977,-0.5675075098633636,0.2180864989936157,683.71247490124,342.97186693504403,609.7473622912604,upstairs
23.639398998330552,-1.0665088310746045,-0.4324888935978475,9.52817239394559,0.16936625802779992,0.6872530592460123,0.25308233678974484,742.0287623486271,387.37745530802124,581.7768427808528,upstairs
23.689482470784643,-0.7017613050455701,0.35351914238041615,10.564586261726928,1.1428381231327143,-1.9042380332279092,0.5722918708107317,680.842501606392,370.8131395861909,645.3720044840369,upstairs
23.73956594323873,-0.022398272878198802,0.43016263466974025,10.887439721455072,0.9061385646331961,-0.12459528033771279,-1.097328513109326,658.0744708437454,374.61611112481125,658.7358753342297,upstairs
23.78964941569282,0.2686878851127005,0.3277274964440434,11.425096485965758,1.2262688905264525,-0.5487030727253801,0.8019500654785079,697.2074224616499,400.950218862271,661.8081587285355,upstairs
23.839732888146912,0.4802218075533638,0.8622761752333679,11.327907270006918,0.11861773477905117,0.27805207495262224,-0.6290960069461802,720.874854576177,366.0191486315878,639.5364114942618,upstairs
23.889816360601003,0.868656297087483,0.7208652191192415,10.960878159245192,0.017898582880192894,0.8237812188760564,0.6993966782676305,645.7777539281095,401.459676343849,627.4592856070406,upstairs
23.939899833055094,1.134272023778616,0.9169573406632954,10.761049912139079,-1.249968516790702,-0.14536784362752153,0.4020057297926107,632.5153335978292,347.69333059605066,624.5129034493743,upstairs
23.98998330550918,0.8269636835451329,-0.0365097723347034,9.65739297445771,-0.765745062189975,0.10270168231455179,-0.11672254375251344,742.309736947863,371.6946931223715,593.3218715360608,upstairs
24.040066777963272,0.299843307538999,0.0703302944358872,9.035784241524771,-0.48768879192083125,-0.2022364516359202,1.3838275011472896,656.3378877500438,328.4150105037568,580.0913636786605,upstairs
24.090150250417363,0.09689285831482773,-0.698355794059131,8.427323874239839,0.034490640617278204,-1.4632698017730905,1.3079772067859412,774.3200583490149,357.61492119654315,596.481367144276,upstairs
24.140233722871454,-0.8349088276341255,-0.9653115198463713,8.064597455355578,-0.7714268118594136,2.07470857739233,-0.5516155602314939,675.8506968741132,394.3994466161081,694.5708974214707,upstairs
24.190317195325544,-0.8260352214165019,-0.8205493315342494,8.292094326576365,-0.9329043940088398,-0.3940939148597778,1.373384949929783,630.6251002200984,374.61711376673463,568.5664747405428,upstairs
24.24040066777963,-0.9540019879142353,-0.48287332707271235,9.107597013526368,-0.7692431350490385,0.35309084483231773,-0.3944916897379204,698.4756803839351,369.4383041401628,598.4101989333417,upstairs
24.290484140233723,-0.7118301720631721,-0.25901825662311073,10.027766084851072,0.1109803563922232,-0.3027209908806927,-0.09634274147781968,747.4527053761811,418.41168032448013,703.3882144468605,upstairs
24.340567612687813,-0.36443551493222587,0.5341978337757067,10.473795591532992,-0.09555823560744228,1.0816190658350724,-0.7404341551253194,643.3638218762391,421.0289689565734,623.8261591324118,upstairs
24.390651085141904,0.2560760574238826,0.5920845307760796,11.616018763663499,-0.34281507912659837,0.003764598680962515,1.4189592081303695,654.9242004657406,366.3708658019371,645.8637202493283,upstairs
24.440734557595995,0.8373643180037501,0.6797470933898262,12.331599295024553,-0.03233002154805926,0.8079535298591161,0.08239865767029504,690.2617741656753,429.1371443303748,572.368020737845,upstairs
24.490818030050082,1.0510719257117507,0.47094096827642046,11.069251010853572,0.5718680611756104,0.22841757611271135,-0.9327157470168546,715.1205159502753,423.6033415859468,541.8231161701792,upstairs
24.540901502504173,1.5238894302818766,0.5906760067733943,10.856255333434728,0.17903234220853662,-1.8738008057048987,-0.18641956925123238,623.9896627331909,369.4409349558624,636.6800622478435,upstairs
24.590984974958264,1.1125492500582737,0.4227248657442673,9.90834759439848,1.2665629004608217,0.9631745965746322,0.9368313270400888,672.4181017890782,426.48630980832274,590.642916817937,upstairs
24.641068447412355,0.6488317809481702,-0.25311508658625775,9.467085202617143,-0.20247040580399592,0.9967444419696043,0.5922431982478689,668.7443394215862,394.11153292968544,626.5329385964471,upstairs
24.691151919866446,-0.22662654982160096,-0.5731153496440697,8.559714971969061,0.9892648419430716,1.2404536366042598,-0.3389927351020872,693.5866123594747,345.8405489465846,606.7687133540173,upstairs
24.741235392320533,-0.6385861733526618,-0.7156990677024753,8.322398103909164,0.931600604032302,0.4880036654305025,-0.811956418806141,693.303941632078,387.37756432035974,540.0253325026458,upstairs
24.791318864774624,-0.9222643619066256,-0.723796572090569,8.146152609668722,0.34436525520453787,-0.3384413268146153,-0.8183855072054784,614.4075372205343,419.60100996618394,635.0363882230251,upstairs
24.841402337228715,-1.001390544982104,-0.44342971720778873,8.951255918517546,-0.08932912535021237,-0.16450980196028991,1.0357511370502228,739.9812183607686,325.15374767052964,682.3998193087923,upstairs
24.891485809682806,-1.0456142919019844,-0.8910036499610878,9.716613667184323,-0.9607486927701745,0.8372281251221069,1.2550578843993045,694.004879117406,335.46129930582197,631.9755518958681,upstairs
24.941569282136896,-0.286241143623775,-0.20279602836375094,10.654137834027997,1.6190085966091419,-0.06848721286571752,0.8049387874394206,713.8866477644059,416.60090825212535,537.050740299826,upstairs
24.991652754590987,-0.19966294624110564,0.25800373898200996,11.054831353037725,-0.3870505792816242,0.21573164634166409,-0.33883345536470244,753.6665779061656,384.14053167304763,494.40556248636557,upstairs
25.041736227045075,0.6402250787380005,0.6446903525697554,11.51994713280213,0.18121266181733175,-0.3570854411350337,-0.2530810770632811,690.534421931691,382.3258102355131,488.3056927111862,upstairs
25.091819699499165,0.8861967662134467,0.5586672372623698,11.357361220087004,0.378815034795263,-0.5093646404919963,-0.19677242286718918,689.841628695686,350.0708312235088,619.7988376647809,upstairs
25.141903171953256,1.0220068908688391,0.7040603826642062,11.091502235023906,-0.12309096096706813,-0.02544255636951226,0.08857994507886419,603.7060764100843,367.1811067772597,669.2072288270699,upstairs
25.191986644407347,1.2491099419747995,0.31975068010986857,10.530195892036089,0.08644980952215757,-0.0003788221891574914,0.5129660458629816,730.827240283275,363.3671910809729,634.2567112593413,upstairs
25.242070116861438,0.6390105533472117,0.2166500534080698,9.601529299173912,0.1841279373641266,0.3487363847725019,1.1383563081951111,785.2748369481625,384.7130416111672,601.7013492333575,upstairs
25.292153589315525,0.5375630297445961,-0.33197092331484335,8.966147900916633,0.3861747136777203,0.035423861197692884,1.290188606293134,682.3970399224045,376.4938922242934,580.1734781918944,upstairs
25.342237061769616,0.06999382612213854,-0.4872377043388939,8.528078643045928,-0.08382976008548476,-0.8374407968931681,0.09284456563741252,712.7013735410483,404.86683004839955,664.7451725907403,upstairs
25.392320534223707,-1.095397201143648,-0.9389885910483944,8.202151661396313,-0.2961829116021716,-0.6915604561267362,-0.8717538888291484,652.7250481114303,367.8058312275547,594.795932382297,upstairs
25.442404006677798,-0.662674580998151,-0.72465039087637,8.739429771173109,1.4339858170000352,0.39979509915862704,0.5548170921468145,655.2530961554943,356.6082643792743,634.8895122747334,upstairs
25.49248747913189,-0.7056764912762489,-0.7333145563787073,9.434463276841234,0.34100680628318775,-0.7644807076656381,0.22777069914182368,687.348191374538,475.838880563973,608.3593201254954,upstairs
25.542570951585976,-0.9923832032557739,-0.5781604119751649,9.86500222232297,-0.011632542804000667,0.05553270517214075,1.0840737627067798,655.5459420357006,350.7111330225227,636.8414271394821,upstairs
25.592654424040067,-0.22394403386906497,-0.2952665732449598,10.632407766506399,-0.5067248525235543,1.0241907755398771,-0.006957639401038209,708.2497855493727,372.59492677015777,638.2412846686896,upstairs
25.642737896494157,0.3927992493765187,0.07695278894462171,11.36214668929072,0.08664705671902871,-0.1406284606586054,-1.113233450088401,595.602711218355,349.1648744887817,686.9621409064221,upstairs
25.69282136894825,0.7474545041078525,0.6979264852820526,11.502812211660336,-0.7737871781374401,-0.6807605277741133,-0.03376348011477316,705.6183309725157,400.87962260306676,578.6666467468799,upstairs
25.74290484140234,0.9119688025197333,0.8493618160146481,10.709179949637905,-1.121310407102282,-0.01876266252198554,0.45616614090883495,693.8077234754543,346.63064188488084,616.9996631648681,upstairs
25.792988313856426,0.7892601371061289,0.6261443161864932,10.639837910597203,0.4691554653443743,0.026163266012746874,1.1318254652645572,661.5398554062488,371.1994104203362,664.9266529073606,upstairs
25.843071786310517,0.9986590478052448,0.05674702745287402,9.728294157294942,-0.25675376648069953,0.4028875231910443,-0.22429823055568865,654.0831939839428,414.62722969394497,586.4207770123528,upstairs
25.893155258764608,0.6518916111637297,0.4872406184952171,9.002586288877305,0.6208635942021083,-0.3606811603352349,0.3909454165772197,669.2438956983272,478.71471828274684,601.4727113180277,upstairs
25.9432387312187,-0.0891681984990091,-0.15746434354830285,8.608415185270376,-1.0778658083883716,1.027253123792969,-0.8417007064986815,648.8875373247652,361.83222939947683,657.0011001443612,upstairs
25.99332220367279,-0.40261607539444777,-0.3824455895238461,8.13981896304015,-0.9811342119501638,0.2580271652678188,-0.6702974654914987,717.1186555298027,388.3629853934776,621.8187630706243,upstairs
26.043405676126877,-0.8504778723184272,-0.7215315759772885,8.41235041993946,1.1250251807043037,-0.8864565186363812,0.06940632039944383,653.4967416345271,399.4105129938075,654.1422740506358,upstairs
26.093489148580968,-1.069938974186029,-0.8084095933279998,9.01768213818707,-0.38955516243656,0.9150033035175333,0.5442406131888633,683.9624087931173,394.04642597753667,686.5337470699272,upstairs
26.14357262103506,-0.8209770349699509,-0.10816289815287544,9.857427460618908,-0.20617510077808218,-0.4135995156432238,0.23885407784300244,709.9593802365223,380.74601499491274,612.6140653271194,upstairs
26.19365609348915,-0.48779310482002,-0.36947053040028704,10.72777611548435,1.0157193059149394,-1.775379838830216,-0.25516147879240336,696.8168027119593,402.193170168871,618.5692690854,upstairs
26.24373956594324,0.116011268447222,0.30705029464812594,11.239244759379742,-0.07906516230889256,1.3483585608690434,0.3038149107525752,650.3935144531805,356.6182728792773,597.269007565777,upstairs
26.293823038397328,0.6612574437059119,0.6769422467666757,11.475075374041543,0.21816625425746292,0.23563533564559105,-0.3887455693427716,641.6343953766132,367.12479928773223,661.2878719379977,upstairs
26.34390651085142,0.8201032109963501,0.32741298075381214,11.621415830017803,-0.5379886226347808,-0.4909568634110811,0.03677905385301383,660.6116608083324,423.2208427206876,632.7182076532398,upstairs
26.39398998330551,1.2655181012760073,0.5628278548463397,10.776538527895239,-0.30268769263808054,-1.108868159715076,-0.37856185816637045,625.2251768848278,356.80383301511307,646.2087759676508,upstairs
26.4440734557596,1.1808108898576188,0.2239418743093199,10.18886203546127,-1.3510221924170225,0.1550920416030894,-0.182271356965774,634.807140798268,453.29260452086,635.1437120061535,upstairs
26.49415692821369,0.13333192681186862,0.10399884161451864,9.596672133899656,0.3113200081854934,-0.038394163082231064,0.2127760580763413,602.8617774338818,368.8967125387397,661.0264205722265,upstairs
26.544240400667782,0.25440036031070423,-0.4176403852150901,9.15339709739051,1.122720921128344,-0.1946720331298866,0.18159825179249986,710.8870033875302,373.0970570150994,604.1548667479692,upstairs
26.59432387312187,-0.3856605089759885,-0.6364114550213311,8.512933541911304,0.37543406674676827,1.2278880957225924,0.053883733322639966,672.2092900911605,355.94626953853725,631.729580941242,upstairs
26.64440734557596,-0.4618329430555997,-0.6040244649237401,8.538914842886095,-0.03128199347420305,0.7345009796784552,0.2647727678719806,685.2119785267835,345.86800747347206,719.508343601961,upstairs
26.69449081803005,-0.9589656879571792,-0.8592997965844085,9.061920313366775,-0.5427768153948959,-0.4685083074043001,0.038536976673727186,665.0898677157362,487.3090305495339,602.0918736859932,upstairs
26.74457429048414,-1.2529630151056115,-0.7907874107566879,9.470169984707445,1.9384757968998703,0.6105831002857275,0.6406173912466562,751.5729230379784,446.6574741384899,648.4172939779925,upstairs
26.794657762938233,-0.8907432567436051,-0.1005581629931718,10.121819383696089,1.3375447924048305,0.5559203380799898,-0.3497151789470313,732.8739415628161,343.2670679722419,633.4585004831164,upstairs
26.84474123539232,-0.0011085369422011854,-0.2570957396543303,11.100065838321347,-0.7852767723425115,-0.6247104466554712,-0.07279361123324675,688.9437481166909,416.6088233556266,567.6182949658755,upstairs
26.89482470784641,0.25158666953081776,0.2900364391769079,11.454769648167593,0.5634587741503239,1.354129529429307,0.9023341880930432,636.7693270528329,347.1038336543171,583.5987087404678,upstairs
26.9449081803005,0.382819053745182,0.6976762891618855,11.764595558389566,0.9169832312248596,-0.6895272359755348,0.06445643138862807,626.9176513674058,411.45295896969486,582.4212544842643,upstairs
26.994991652754592,0.7337591316302606,0.5803297810476835,11.324272382482311,-0.8678967423448424,1.7249428804840152,0.028812380157102305,701.4473074378208,374.94465579714694,554.8044075189905,upstairs
27.045075125208683,1.1264500959319526,0.5919340444226087,10.869538587513073,-0.9733305399042131,0.6255857892214595,1.3653506748292394,695.638081836411,409.7141579884219,641.1819534374907,upstairs
27.09515859766277,0.5163152086220322,0.7212021140576164,9.976527080349927,-0.039671040140826376,-0.38273053500341764,-0.15300468605240372,737.5228564088345,406.85522439489876,586.6485741647698,upstairs
27.14524207011686,0.47950139026026456,0.09818173986021916,9.4256909990326,0.12154222617501194,-0.2723801430179456,-0.668907108645175,706.1073244364353,428.98051580864495,674.0147075259049,upstairs
27.195325542570952,-0.4917967656864723,-0.49688254956890765,8.5878553245984,0.17332484926716427,0.4417793560338799,-0.21605348391455062,743.1046503827511,406.33390563624215,623.1448221130785,upstairs
27.245409015025043,-0.3903827478379529,-0.6801860483543405,7.842432513995316,-0.4902749532231775,-0.032545366449857296,0.05523996307701747,572.0989239052278,393.24340542214185,709.905683559294,upstairs
27.295492487479134,-0.7407920965896041,-0.6124865506719994,8.523024738115343,-1.1634015408851315,-0.7794257037713845,0.9107356331037192,702.2900019795387,328.197474108581,694.3974758282626,upstairs
27.34557595993322,-0.862789172709609,-0.8517323445503178,9.036162483234525,0.28602921007077675,-0.741044953235595,0.3687773639264584,668.4892074836247,338.4742972398122,655.4815913543748,upstairs
27.395659432387312,-0.8317017045878495,-0.018160215583047257,9.847719352583146,0.23903828305949448,0.528100491225068,-0.1330638108415112,702.975797947807,327.23285779102497,631.1998626591777,upstairs
27.445742904841403,-0.12363987344032347,-0.07326172372578396,10.87989740278103,0.1445375421722243,-1.0344889830335147,-1.098248492617949,756.2067475147129,362.0697806445326,591.1113977522946,upstairs
27.495826377295494,0.04999376522939787,0.35014988268653296,11.484120979651307,-0.465045879170623,-0.7823167990282649,-0.9649263511389949,683.0055265639601,386.42176404948634,648.8558401480882,upstairs
27.545909849749584,0.6197343836587287,0.6669471088434467,11.31402307855536,0.00822099665251605,0.46081887208673067,0.5500117644393224,770.8059011724301,422.14802242831735,618.9909142554163,upstairs
27.59599332220367,0.77524999985475,0.8124452417535846,11.53560165867427,0.24050506565575858,-0.6600712575229692,-0.10671321201515253,687.4809202186386,356.9406894123627,612.7014527510024,upstairs
27.646076794657763,1.234353199092653,0.7337061800192712,10.887238218831586,-0.47814774436069474,0.569253718950582,-0.042510086051186835,717.1228799430511,387.50304629622536,595.8581820648383,upstairs
27.696160267111853,0.7412559486251523,0.1803911494920935,10.556291424059218,1.5374008738063487,1.0505940600005,1.044959254716571,654.5070272755897,353.5757496572326,649.0736812396603,upstairs
27.746243739565944,0.6215390957245062,-0.10120105490796924,9.578691182483974,0.17660323893368865,-1.6864646061508834,0.7189935472216873,709.4435968205726,408.5012403268754,645.8823245718846,upstairs
27.796327212020035,0.4557083220146909,-0.15405001837825694,8.736272676042649,-1.357046980654349,0.8889284668182372,-1.6067561899328318,721.4987838836566,370.9689144047769,625.5695997635557,upstairs
27.846410684474122,-0.24342476078777348,-0.7064612000823611,8.010336142124213,-0.8027767699826366,-0.23332899431330734,0.8427052928714708,692.077319045529,315.63145552615583,611.3133470688545,upstairs
27.896494156928213,-0.7045765145731766,-0.3590188107615747,8.22474665338358,1.2333757654621047,-0.2485207826963361,-0.4041970558519571,697.8886496452162,375.40698245073827,579.918876732962,upstairs
27.946577629382304,-1.1633762024743313,-0.2268414120543743,8.790427958716258,0.7229781460476262,-0.12865586390819517,0.16968431934622288,644.7934063019939,391.21385102599135,641.2096518347432,upstairs
27.996661101836395,-0.9818254080710934,-0.7011175719908576,8.979340430598148,0.6994483249285701,1.6667673444930244,-0.3105259288510929,643.2799677423337,466.69125522322327,594.2036969413525,upstairs
28.046744574290486,-0.6352633005578942,-0.23312039427659714,9.890221060786388,-0.6015807762258756,-0.4170952451104247,0.11222394219141454,623.9378187193576,371.69731613767175,697.2849362086198,upstairs
28.096828046744577,-0.2589123498002795,0.1239848157243642,10.870572776580358,-0.3383054369199094,0.19710570459796775,0.344015436783098,682.0916010929626,418.6595315190985,621.9813311548743,upstairs
28.146911519198664,0.3954129147412711,0.4986706158784259,11.362407554314283,-0.09180978685234338,0.9997524290933182,1.061646293302586,637.692187685545,395.18256596531353,645.4469694501538,upstairs
28.196994991652755,0.6676031454266736,0.8638660946361405,11.786919971628345,-0.6602749574444904,0.20926250115063835,0.7500939166663513,624.4139196124133,434.1862009330398,569.5616536266721,upstairs
28.247078464106846,0.7250019942201342,0.4583143725333902,11.805842641676927,-0.8680724996101855,-0.603701209744753,-1.3376215607459634,568.5296048493934,415.73535818376814,612.3532772391277,upstairs
28.297161936560936,1.0598633374818833,0.21838751082045926,10.571417298684329,-0.8967441213577564,1.2028956103858974,0.5501714490184297,655.3009590738621,443.1591065182889,580.863508788527,upstairs
28.347245409015027,0.8983671100295245,0.233943780371425,10.308039099650648,1.6823354098153336,-1.0632665645623558,0.0030279829779892896,688.0078902098497,366.42370918339674,646.4047451779936,upstairs
28.397328881469114,0.5294488343577824,-0.06706305617935168,9.308549788929664,0.23079819184300468,0.6758596739298944,0.4613409112939655,610.5730529505055,365.8951232566261,656.4294807252986,upstairs
28.447412353923205,0.16790912786743606,-0.5662292460693239,8.85946190851074,0.2178873271345922,-0.05103050712314755,-0.11870163350932014,590.0529031560002,389.53869417562146,611.2593556105735,upstairs
28.497495826377296,-0.6344486425917489,-0.842391519596954,8.58853830174868,-0.6207411202641336,1.8078558852999613,-0.7707010273438084,671.7490200527981,399.2005363272126,660.1260754084594,upstairs
28.547579298831387,-0.8718146787282223,-0.7455237631281484,8.503691941847745,-0.47705791227210864,0.13141193164540152,-0.4810389189902207,599.1272081475781,399.8098429594842,621.6228181096262,upstairs
28.597662771285478,-0.5377145591011524,-0.5678599197953058,9.07174833516328,-0.401199132496317,-0.5994702463879208,-1.1447003668733067,722.5173881303,386.3125771556173,611.6790843453749,upstairs
28.647746243739565,-0.5933601424864768,-0.44952824423535864,9.775407964909308,-0.6041859427802904,0.011227851234684005,-0.2425983404092174,695.0561998189386,358.9874627277106,607.6235400159201,upstairs
28.697829716193656,-0.3451806173803616,-0.18921130193434935,10.205185118369892,0.07983784785730802,1.735567774042751,0.6798903086880745,655.8073702745543,427.11570728526954,564.2059812113455,upstairs
28.747913188647747,-0.3002923804889393,0.22286517165692427,11.07800829675032,0.6372655649110552,1.3935490090154534,-0.27849841374833817,615.6120601862948,360.03931561387924,558.0768665481353,upstairs
28.797996661101838,0.8139542719728708,0.7680104573069009,11.330755439106584,-0.015354397618133968,0.29877471070455935,-0.46403635685830125,641.0684489198617,419.64897637793405,582.2931820281938,upstairs
28.84808013355593,1.044568038083665,0.7386674046006094,11.302745815049475,-1.0279575149508098,-0.5094301458886695,0.7806853592952604,693.1627019302512,401.0142646293837,676.7587383663056,upstairs
28.898163606010016,1.1800757761862242,0.7738527516676448,10.964087635227315,0.28482594226034036,0.3994826127984958,0.9125670630111481,746.5619531315756,399.66959799785656,606.6143021117178,upstairs
28.948247078464107,1.2423119620047722,0.28434597448777815,10.406029980075319,-0.39094841031857763,0.31199370750301514,0.8241938292849996,664.7682832328459,396.92143970726903,638.7360140133028,upstairs
28.998330550918197,0.6296870218350777,0.18571895584777537,9.808630800449093,0.24231982584733666,-0.03563955762791052,0.44447158406245507,801.166978189673,368.0523102801506,619.0680471965569,upstairs
29.04841402337229,0.3577286145914159,-0.5887512345608443,8.96565752101581,0.12386830538346331,0.6671663087758682,-0.09145787668637119,613.6875779317642,392.6459162056028,661.3249137864459,upstairs
29.09849749582638,-0.24359085644803252,-0.6671044574201683,8.492151788738614,-0.010937698915732689,-0.18553824023805776,-0.6147650531009915,725.0816913307514,362.0490955495718,651.4626727873397,upstairs
29.148580968280466,-0.6937654033568363,-0.6556965691714862,8.687756455141052,-0.11981048882316753,-0.3256761746520375,-0.26458601686417127,699.0056724010456,326.9927004777908,589.9625009998113,upstairs
29.198664440734557,-0.9803813296748379,-0.8856402811062878,8.997772720306635,0.19076778904654815,0.7119732851884736,0.8836999008553613,654.6463763733126,366.1632379923991,585.2649210040508,upstairs
29.248747913188648,-1.2227292698666048,-0.3981965030417362,9.160472848694909,-0.17470166049192293,-0.15359751833473237,-0.6424708395450519,740.781765862287,377.3631572215385,701.0547057085131,upstairs
29.29883138564274,-0.7849338898569335,-0.42481127885973213,9.762075613357188,-0.2362560088452626,-0.6404627217986818,-0.4387328478842312,717.5280014848247,417.66079026562784,552.7995541053745,upstairs
29.34891485809683,-0.17435147874451024,0.1911232136925039,10.876519958040966,-0.9564035662942316,-0.7535237996553105,-0.9083386171115982,685.3038531430785,415.72126616469666,651.9324973023057,upstairs
29.398998330550917,0.6447117243230576,0.4110961499625397,11.514330977596083,-0.7476787559141369,-0.015879004823940925,-0.45509390890203866,572.8991419735173,307.6691919158054,673.7693477410587,upstairs
29.449081803005008,0.9848027497771814,0.7749942756130261,11.464267343999982,1.1384423031774522,0.49414758489652216,-0.8721151216834322,764.5516484246834,342.0040939241618,652.2078047017749,upstairs
29.4991652754591,0.7610239641175944,0.552981632723132,11.108859978285745,-0.3200421744253933,0.8062822793087959,0.05128233288638098,712.5020002720696,348.7630402085595,567.9441347028992,upstairs
29.54924874791319,1.3281000817596216,0.22731187579043943,10.7461758575695,-0.305845381529696,0.12489808287145412,-0.5104959854677226,670.8172197305942,440.8599218807718,564.8865704988616,upstairs
29.59933222036728,0.4370250084653617,0.16817798665378383,9.830377607004886,-0.36974121111149616,0.5133184150235397,1.0850997147389336,674.7636299564712,407.94866430886947,698.6365095340625,upstairs
29.64941569282137,0.5624205956151453,0.11486303335973691,8.798214270086017,-0.5960507775158373,0.5889112956070239,0.9389837152594065,599.3304097183275,379.1198015677668,610.1862089407833,upstairs
29.69949916527546,-0.1749370888756832,-0.6042056309586967,8.571907723815873,-0.21425618702414234,0.01901723444647203,-0.06772801702418686,695.4758853863016,377.457742683294,581.3038816538402,upstairs
29.74958263772955,-0.6314599469360183,-0.4709798039208924,8.435276046739972,0.4329002859887751,0.05135155883428001,0.39321386404244174,655.1016937339015,376.12109593852097,582.3822797256537,upstairs
29.79966611018364,-0.3222081628161418,-0.6301616969049679,8.060104515129096,-1.6419564284773904,0.4016861721432305,0.004639285066898102,707.7720244471585,410.80353058565265,692.3241880422003,upstairs
29.84974958263773,-0.9641186191524865,-0.7277717651000721,9.371552399539041,0.8363093602911736,0.3034822556944813,-1.687179425257521,680.0412336155683,336.0842912358586,597.9691639573387,upstairs
29.899833055091822,-0.7379423534800588,-0.6016048402693714,10.091768206669135,0.3034285488176582,-0.21906181955150084,-0.183908974963335,624.9434004123235,401.5822296109766,687.2039600736108,upstairs
29.94991652754591,-0.46262368420934735,-0.09499119299814643,10.6057086076031,1.2563112770887201,-0.7834552172291415,-0.16707460768668414,660.9973506330218,462.275295198035,595.2619387890869,upstairs
30.0,-0.21299522570325313,0.1507406558207302,11.2580663425846,-0.30198040508404916,-0.2177956531029361,-0.7829605908601991,715.6761801118994,365.5389071901259,654.1873961878524,upstairs
