timestamp,ax,ay,az,gx,gy,gz,mx,my,mz,label
0.0,0.15832687660765082,0.15130345889395375,10.706149207422106,-0.16011062600879783,-0.47927334521148174,-0.2331915171785574,653.1029945722348,377.35845603000655,661.3713375208748,walk
0.05008347245409015,0.40448652998996865,0.3984300037573035,10.621105611925813,1.631067574506656,1.5968602570852422,-0.39479253462374836,681.7159738658345,375.17282442503307,542.1762011508235,walk
0.1001669449081803,0.4648452260819196,0.24217249683321357,10.611525487052349,0.016383487164750545,-0.07993349168698818,-0.699451250377648,691.1461639298391,403.9600319182817,625.8401440322396,walk
0.15025041736227046,0.5752761064579162,0.3532551544209689,10.658115842317688,-0.570043816751073,1.0018673264459417,-0.06408475455536473,674.2611176334643,395.22368970189024,620.2698971058081,walk
0.2003338898163606,0.7995902365302784,0.30208123667737746,10.5930993203743,1.0683619343840352,0.26707934631113517,-0.375242404447367,632.9502245524642,393.49927335985143,582.3541585118954,walk
0.25041736227045075,0.6759492079614207,0.24052890974393826,10.199627446680623,-0.14349832355390071,-0.7932261341696285,-0.5453556512836986,740.838144618998,343.6138192795044,520.385409505598,walk
0.3005008347245409,0.4301690218129591,0.20791752422449145,9.74613952016826,0.4991688737109068,-0.1882149127044822,-0.832288920051837,724.2408152419582,351.27621977242643,689.9781596279432,walk
0.35058430717863104,0.29857033201069494,-0.2585890319211643,9.693429678838642,0.2127251199799693,0.1689904007147788,-0.15378309012388866,779.3357391735395,380.57755052886364,632.8261455806991,walk
0.4006677796327212,-0.03026012187463968,0.037840605753666906,9.200997623351611,-0.3455154095704717,0.7136503630626645,0.7914645401136994,745.5383806631943,376.261323128842,718.6593364504926,walk
0.4507512520868114,-0.12686935927120674,-0.4467900000301421,9.163408370626815,-1.0789882157351316,-0.29388783921670697,0.43407000270821106,684.7996113897669,361.87449266819897,629.5852919775493,walk
0.5008347245409015,-0.10511161073990981,-0.3640206093679594,9.28273826614927,-0.3629273496527272,-0.3035807195838778,-0.6906469450511431,704.0345985003199,368.84690731792585,626.8597980794153,walk
0.5509181969949917,-0.7333317810317893,-0.5290986871838133,9.298324654666864,0.9607821380483806,-0.2798682780816699,0.28284548997354714,631.0921184916991,451.712751882951,649.1959885236571,walk
0.6010016694490818,-0.5620721719042384,-0.456266547757824,9.1205852360851,-0.5490009174267559,0.3121461137786112,0.8609477482834689,706.2546096928796,326.4049529345981,635.0284610807217,walk
0.651085141903172,-0.5287739369192891,-0.41631846629405606,9.30493381856585,0.0358417691732341,0.35552262787464484,0.18597997020887305,636.4049701659475,427.5525301844851,617.2484550580499,walk
0.7011686143572621,-0.5298180103690678,-0.23838647819699202,9.740754812781661,-0.9950595613572202,1.046884724425047,-1.0602964970827131,659.8068283698963,340.90782612274535,590.5131074166513,walk
0.7512520868113522,-0.2876730969768901,-0.04350505683243458,9.726018313730329,-0.5827432440763416,-0.4726944855021121,0.6024824263802665,639.6683896224301,378.1504693833207,562.9854864563707,walk
0.8013355592654424,-0.06357875844187504,-0.25975657982205747,10.36450393375118,1.08845491584038,-0.0020627390771470553,0.8414140557835142,671.641415360721,374.525125838957,493.34874650784445,walk
0.8514190317195326,0.27138947334511976,0.047153121101235804,10.385888336097317,-0.1604735971210093,0.6309630105897133,0.5439653010179991,682.4874973951349,308.19140374402593,643.0287010756097,walk
0.9015025041736228,0.32715063845789943,0.4733666040165954,10.604110399988926,0.8195205979766017,-0.8216920546131343,-0.4428875809522929,736.7373199763541,446.968152881955,596.4030598108088,walk
0.9515859766277128,0.6320163966780554,0.21817356800441273,10.854150093706844,1.4061337175049549,-0.4813716597062033,-0.2747764695779549,703.871588777932,333.0245041252565,545.8259140881302,walk
1.001669449081803,0.5146065249107342,0.39288992242549065,10.467330217451192,-0.5045961169124438,0.4264872785690037,-0.27771676141923674,691.2794954220586,347.25039059939934,642.3056729363971,walk
1.0517529215358932,0.7438786854036914,0.34138226227276924,10.554998687581138,1.0002266659148564,0.2599098939599715,-0.1042698181128804,664.3170501017672,368.3826731048574,630.9613198181988,walk
1.1018363939899833,0.5882877322667958,0.3676540687068933,10.140469232754745,0.11339040528252753,-0.6316191497379722,-1.1371692226966943,621.8815645364961,433.2925721516317,643.8899369821344,walk
1.1519198664440735,0.4596856577932078,0.17134642492030022,9.997686601744068,-0.8648410293693829,-0.6787016524268169,-0.309424682912854,718.2520715454781,408.82555526300416,615.4476768116929,walk
1.2020033388981637,0.33425500080778325,-0.2403061597896792,9.707395510935052,-0.9512435637132152,0.4025257038791731,0.4021637723301033,656.0077867890578,334.67398709786704,591.2237612477481,walk
1.2520868113522539,0.2770690621747639,-0.19709331405840022,9.34929621613206,0.49908526144550713,1.322186051325441,0.5392568237106582,626.986088968685,430.85258733836787,652.5133599927062,walk
1.302170283806344,-0.06791395411706662,-0.472799770952991,9.092705226296365,0.016656719341284123,0.3535915382956591,-1.0372761162826278,734.6344434494268,411.0391409304123,650.0436918490697,walk
1.352253756260434,-0.13001840740538295,-0.44184138309902915,9.280857940605328,0.21130799723188834,-0.5189839469871321,0.7896297621644514,725.6121171872579,387.93146958613016,648.5788460292678,walk
1.4023372287145242,-0.49306298881126004,-0.5477540856970168,9.079783017991993,-0.4628550026289317,-0.2679372762528492,-0.0860968745313301,609.4802636851972,389.1585404456755,632.1466780965862,walk
1.4524207011686143,-0.2938418090987385,-0.47206082872642746,9.202368912797215,0.672012282809623,-0.5535558694423399,0.09288308635165186,665.6767033132824,316.1982683818797,645.7464249422624,walk
1.5025041736227045,-0.5295789097410603,-0.33038857310314695,9.27472681440614,-0.5825419403083566,-0.18204621467245555,-0.9838939215944714,671.2220370334114,440.0958550903184,673.1156705287681,walk
1.5525876460767947,0.00937654031053585,-0.37547444086054305,9.750410969543477,-0.06751365592092078,-0.9281433973489258,-0.2476336323516826,673.56001944419,357.58071785662565,605.5119523738933,walk
1.6026711185308848,-0.49079513691002236,-0.007133136005778064,10.480071410589423,-0.7305807003033633,0.4843754692263134,-0.13216125212345645,623.3165138992632,409.91890204550606,652.4757565341881,walk
1.652754590984975,0.1951279498477308,-0.19529212928640993,10.418921148090345,-0.1585219345211995,0.28645443849377755,-0.6775878395926448,628.40210494544,446.7309004007187,654.8001194729977,walk
1.7028380634390652,0.3021550312714377,0.01864107332988338,10.540693839515978,-0.36156705160654906,1.8548306249840254,1.6446629247601032,708.6061067863037,377.77933526124303,607.0065949261167,walk
1.7529215358931554,0.28410009816478604,0.5136010539024138,10.85367952926193,-1.1859881364708127,0.24207936913018757,0.6676640766882705,707.3084718881703,423.99270880842613,694.4703170870641,walk
1.8030050083472455,0.6990937500591242,0.20583542655176834,10.623921811515412,-0.11691350525399452,-0.4268482579299775,-0.032981596043807244,637.3859920636033,416.5379625993117,622.9133449943752,walk
1.8530884808013357,0.681219917245446,0.3723852099345926,10.668813776481318,-0.4196615665379129,-0.7719273454259215,0.6321740606533957,731.3318994339961,353.06015062671156,612.629659628694,walk
1.9031719532554257,0.4217710848940439,0.1611162840227519,10.227549475179405,-1.1470893487484637,-0.3153525225967079,1.1742798795977731,622.9465205072436,349.55421747647273,572.7120218449352,walk
1.9532554257095158,0.5150168391885194,0.05498717228572354,9.952087267794063,-0.646327014123035,-0.9688051586467112,-0.8134570763011769,671.8850970138907,385.0766850221913,578.4536161405445,walk
2.003338898163606,0.23144008019021794,0.1903925772125571,9.568693769769231,-0.40287189795602824,0.13845222685670616,-0.5836998339749317,650.0126952572651,334.4550654068936,647.5377612477629,walk
2.0534223706176964,0.1702713071355359,-0.10120051520568618,9.74994971878497,-0.3481093355148246,0.5531320873272454,0.017911776921200454,706.6120960948377,426.17554126551335,605.3552169580427,walk
2.1035058430717863,-0.23378805547943066,-0.23033523276801124,9.32276446840947,-0.41871321221760927,-0.6825265478940306,0.6685032693743149,674.357149982672,358.7817442223016,557.4549561042281,walk
2.1535893155258763,-0.2102701531998858,-0.43149218923985305,9.096441862455654,0.2821063324322413,0.30907096124157635,0.0477757100409038,648.2506752242617,401.5282807109518,626.3189298825068,walk
2.2036727879799667,-0.17404769315409735,-0.7827804269088936,9.044170396862581,0.039403020904969076,0.42859087716536215,-0.9643133406436848,723.3054649057265,449.90769485089106,654.9245448013181,walk
2.2537562604340566,-0.637045266329468,-0.31605219413871316,9.076274350600285,-0.6071483571279772,0.03764875642477251,1.24815018279719,575.7207007903849,342.03705581077844,640.7962272396323,walk
2.303839732888147,-0.6648663456939014,-0.35139497404543163,9.607303913670352,0.38403916326293275,-0.15442798164766472,0.9182879265406014,637.4431371697452,401.7199324180788,598.2484463149283,walk
2.353923205342237,-0.39186954317894523,-0.16073836653034024,9.776821799501441,0.17344601691549885,0.6672641428235584,-0.5796455983337439,700.0408801386841,329.3110523296439,671.6445175366778,walk
2.4040066777963274,-0.08974417922125215,-0.3924975986295159,10.046194055572059,-0.4073783209048518,-0.24304448369009335,0.4252430403979585,688.2254051699355,322.1185578440066,630.9324782673485,walk
2.4540901502504173,0.02846042152166177,0.07354034710617413,10.396234997207952,0.5082204329091168,0.18810537975839803,-0.047667728322836306,714.1294667251226,315.25709531265517,574.5094743778244,walk
2.5041736227045077,0.07740431663230597,-0.16044105861969715,10.52746793358778,-0.35928949454292897,-0.06263851544662877,1.4836063648584752,644.4600293598202,310.861379125251,601.7823772903464,walk
2.5542570951585977,0.3564875354788609,0.19493831196123118,10.542842920118485,0.7448212342374094,-0.2767648223545798,-0.6575057342907492,725.0157547781524,406.33181175827605,676.7966467044188,walk
2.604340567612688,0.3398324956607955,0.3545717580306008,10.67105470688699,-0.651731938925743,0.16552105893063124,-0.7668129310735129,691.7540060265895,379.79666911897374,599.4717925027524,walk
2.654424040066778,0.7427451795568565,0.2765511177364405,10.435871045512966,-0.012680098904925234,-0.9949800605594888,0.8394558018873048,680.0726973717483,396.9736128020223,631.6292883668683,walk
2.704507512520868,0.8113318502222233,0.5812191005745628,10.814508803985465,-1.3694748849884153,0.0012151201492397459,0.2533851573526942,719.5960352075987,379.3463263741416,607.4057666027348,walk
2.7545909849749584,0.7570537636909537,0.12803350324921042,10.15091800444587,-0.7077008012761925,-0.19173396163704162,-1.2234770875042205,665.935259603681,363.72777050068254,640.2676419151512,walk
2.8046744574290483,0.3908578851398597,0.09404118690391366,9.72243492820679,1.0498737687232875,-1.01562084965557,-0.7121002661746341,664.5048130314392,430.37837812878195,656.5585440902345,walk
2.8547579298831387,0.5804532924420941,-0.20236515299038577,9.59489174341169,0.35807854012608265,-0.5213850539318783,0.37113653664586477,640.2239347503283,362.0249560132808,605.198048453918,walk
2.9048414023372287,0.1448055391580772,-0.04630023565659919,9.404730328136448,-0.30146975252095354,0.27250019831833666,0.15554086646477755,765.905218617009,344.7038226150941,628.1384480848799,walk
2.954924874791319,0.0033666957061211644,-0.36796895532915574,9.225154624787287,-0.5858727558759026,0.3392343201340864,0.6270592504022386,710.8883825431983,335.96992601447556,609.7526156052231,walk
3.005008347245409,-0.18057168068071155,-0.4975535137662492,9.273893638262818,0.5893827697433188,-0.9236841909170579,0.7099279655627148,701.8610615123285,412.12798334278267,559.3847970552872,walk
3.0550918196994994,-0.4364580518308631,-0.4093273630886089,9.149957718436516,0.7566470606329554,0.23046607376844086,0.34375799641226695,746.1890575006315,338.5767676489211,567.0322706785405,walk
3.1051752921535893,-0.704443349285631,-0.4292728679112387,9.226536198397246,-0.6172449957500918,-0.17221788037518215,1.3201362967058432,699.8635272254796,318.4083925014113,592.0478242452907,walk
3.1552587646076797,-0.8155274384586512,-0.4645576287579531,9.676041116992923,0.7653662539753944,-0.744048881733262,-0.2502776870050523,706.6267235917751,395.58439494845777,642.1722162376219,walk
3.2053422370617697,-0.5048344043007292,-0.5783046579431073,9.843753392228166,1.2563406216505921,-0.8577693164486101,-0.6851958118668958,641.8962734968806,461.33845440532104,574.4366257099149,walk
3.2554257095158596,-0.5231151316806019,-0.27537301786712703,10.07250902670034,-0.44165442180183195,-0.34721754378291353,-0.6939263971973147,657.9243729301741,352.78024426750363,589.5360975108745,walk
3.30550918196995,-0.0283406225419464,-0.055718762621796494,10.27355035755923,-0.014025069902451748,-0.8379050520223468,0.9640874826301911,671.5291490320662,345.71943337008315,622.2292018247482,walk
3.35559265442404,-0.0379127552580434,0.12676562785201625,10.773743411329951,0.11017907659724743,0.11535119631512686,-0.7387282949840493,736.5873666629232,483.35579999082404,685.9335253380956,walk
3.4056761268781304,0.37974113280428723,0.13482920779600374,10.511360349850644,-0.8386862554651244,0.7332064703956573,-0.1693678393375249,694.2493648354478,418.3549055805903,597.974900070954,walk
3.4557595993322203,0.5602701346290373,0.1917324300651156,10.61892799051507,0.8385163369220305,0.16055593140606447,-0.36587164372147973,755.9422098601132,397.70321054588516,694.726421809586,walk
3.5058430717863107,0.6789990883683741,0.21368054459663943,10.507353723009633,-0.838704645350681,-0.7018617135898712,-0.89189817200755,690.0576659486522,379.99093372295437,654.0275084929757,walk
3.5559265442404007,0.504728571231933,0.24585831209940362,10.661882866468915,0.10138416869492198,0.7820969346539602,1.2057415482649896,726.4636125380496,479.79092584698856,711.3560443710311,walk
3.606010016694491,0.8790002687457181,0.24127648136332325,10.27192319389175,0.39058032411511256,0.33520612206682576,-0.9762109287843981,641.559682959,352.7833633442695,582.7893862765973,walk
3.656093489148581,0.5319217976441267,-0.08273763511321307,10.101760153319844,0.44984256488020674,-0.34389804246485556,-0.38578257583360054,708.6664236902766,416.70402729786815,639.7549696072102,walk
3.7061769616026714,0.3983102611340798,-0.24930828239708847,9.374794210579797,-0.012686069713733495,-0.20152562930743467,-1.1531575041508695,777.6478125819498,392.09433654124973,607.0229323179506,walk
3.7562604340567614,0.12419917894501728,-0.4202220257170685,9.232160710563607,-0.12445184698476178,-0.43194789380553084,0.2676089426507467,663.927494377403,385.21229895200054,543.8712222496923,walk
3.8063439065108513,-0.04225305562460653,-0.3464514370168477,9.034164644366893,0.95133452602108,0.3820005707644958,-0.11809733355692768,824.8978302411602,369.5609823283405,606.8298414579774,walk
3.8564273789649417,-0.4413854777981528,-0.17402547641197563,9.146142232893423,0.7514034198437027,-0.4520544462400551,-0.38466371043893893,756.4608880732814,340.0312008273689,648.7956517675302,walk
3.9065108514190316,-0.8143984384933131,-0.6097087337853462,9.250159897326926,-1.2961342590699358,0.5137122250736752,0.38706913876549115,780.3213993153819,339.6599533297754,638.4412433324726,walk
3.956594323873122,-0.4585770226175912,-0.4045323638016971,9.256709659007115,0.12774449375341,-0.5407914243814402,-0.2896743714147397,624.1313257590336,371.9010670791007,632.191089533661,walk
4.006677796327212,-0.5321869550255973,-0.4170538632290097,9.584489515065988,0.36446782273690925,-0.16449782371484503,-0.6246162070227796,688.2440579285515,422.9977555012026,611.1186718617022,walk
4.056761268781302,-0.40446095933005327,-0.1917203304201266,10.033995577454338,-0.9681910892170719,0.05070651899030555,0.06563927210281578,745.0671967500921,328.5082841055996,647.1218697154738,walk
4.106844741235393,-0.23138103475340133,0.23025106394743833,10.35340517004405,0.4145897922617002,-0.9743855557657197,0.3205864844538416,708.4313017018798,402.20239044668887,547.2692280756654,walk
4.156928213689483,0.17432840067031802,0.05491414673278179,10.52438834014835,-0.6193091649710983,1.4086000775005652,0.555609580979545,639.5830789582218,451.6832011460476,561.7753105395769,walk
4.207011686143573,0.6141114180729215,0.15913687334142768,10.63166260485168,0.3906156293717292,0.4216072170902058,0.3556099567194565,676.6704399313538,358.0085371839709,573.4459970761361,walk
4.257095158597663,0.4259320284395329,0.35179188677973183,10.650553453465653,0.22600640237311492,0.7238312160643686,1.7791001431190463,724.3686456053681,383.3659104520158,659.1573595131168,walk
4.307178631051753,0.6913155235935182,0.14673069205627118,10.451645171857772,-0.9973540179866344,0.056726453712293096,0.3403023940252789,654.2699222555336,302.4579929268634,664.043703297839,walk
4.357262103505843,0.8597367606465881,0.5105971051490614,10.316902917183693,-0.850153910252348,-0.7669674138673086,0.12334778954928313,714.7747307000119,367.34242495065484,624.0035963655969,walk
4.407345575959933,0.6247668543706937,0.47804823010170056,10.27315292857822,0.6885185750952487,-0.3278910770432952,-0.6244825929566579,684.9064384308489,390.5769866023205,527.8344081018815,walk
4.457429048414023,0.7341181354230227,0.0792908606570531,9.990892114013588,0.9086910593287448,0.8220234420931564,-0.21421252428025642,687.1434333460734,351.0011345009875,609.5993480573399,walk
4.507512520868113,0.2524300032196433,0.11841923780283953,9.523105648066958,-0.7664966131825767,1.2390410598927337,0.5096035748524113,599.9975016350675,389.61735870166035,607.5548406961065,walk
4.557595993322204,0.21857235211909326,-0.159273989609293,9.471528712351084,-0.31340922948099076,1.1617817747759307,0.01153333240250697,744.0349622785888,410.09849923625956,633.6313305214944,walk
4.607679465776294,0.3536282866090934,0.06804798083027117,9.233691191225954,-0.1733034042012766,0.5458772009584333,0.6088321999580042,716.860807545701,418.352669618646,560.9786576007197,walk
4.657762938230384,-0.3350074684288061,-0.41791913732310937,8.994523252058535,0.5071945665199542,-0.7580086366856154,0.1827548996295767,709.503908226393,396.939934002369,635.4516468069592,walk
4.707846410684474,-0.3908165286526372,-0.4537193792697329,9.060194133009082,1.073232849603316,1.0869834464787076,-0.6340508862620547,706.258977027324,381.8702277688996,641.2228872922542,walk
4.757929883138565,-0.3851892864600111,-0.48434899276602267,8.978766977363717,-0.3806468148455737,1.322914313632443,-0.42228212008511334,646.6484427121185,387.1063935252572,645.8537741985355,walk
4.808013355592655,-0.5992719105327644,-0.44443384371191824,9.441696178174343,0.36700976424822757,0.14672242070633504,-0.8022051663871861,653.1725867380944,434.6494116334851,575.4600075684413,walk
4.858096828046745,-0.4574657433267369,-0.37156254294586843,9.730920858655846,-0.9742150732660866,-0.1991705101162769,-0.14115925030287335,617.580790073109,356.5291102975644,605.6648735171461,walk
4.908180300500835,-0.41557419337970775,-0.26744224232954095,10.076667873362409,0.2006233338754403,-0.3766432447444065,-0.15044216385593234,663.0436190349442,413.43059671738115,555.9635985594325,walk
4.958263772954925,-0.47516691051318044,-0.11047567783501898,10.323839152576054,0.883190375767206,0.8532655461672246,0.045799739785122195,648.2330750972346,365.410349911124,670.4964524349882,walk
5.008347245409015,0.031839465060502274,0.08175103797874075,10.402961481314636,0.5316804141769992,1.081239759080504,0.0899776720358246,698.7849530604041,344.97339697629815,624.5004084380284,walk
5.058430717863105,0.15768733076770391,0.11596472956149756,10.71349389487789,0.3497709749122037,0.7311443072592033,-0.2151954086968896,707.026016568828,360.0704755607059,683.4751308215616,walk
5.108514190317195,0.6584458810921535,0.22493800367720967,10.625555088192371,1.7861480694209888,0.7204398433456197,-0.5236600888449728,592.2101909525823,419.2066265873671,651.4564505609156,walk
5.158597662771285,0.8511355766826381,0.2395473248083641,10.813190732004852,0.4014334997718857,-0.5626949019407312,-1.4898671783482786,635.7710817406391,386.6017185459381,582.9296179706035,walk
5.208681135225376,0.7905503408791946,0.4069721315612889,10.364734315132218,-0.20997482054964975,-0.7115202428350674,0.585667530255076,706.9048514161243,357.7733288665019,650.4309746396832,walk
5.258764607679466,0.6664361297877023,0.21574198175867654,10.237553322330754,-0.20487349857943166,-1.2022357434132382,-0.4127440971830915,675.9732887181962,374.4438183027609,538.0650092352175,walk
5.308848080133556,0.6214985587961875,0.24774411332452823,9.778719796145587,0.19599238379402828,-0.15035959649403946,0.02981282805413638,667.0032515040888,403.7456122961184,625.8812240375921,walk
5.358931552587646,0.11810645246743638,-0.14427868645310232,9.605062719702023,1.052811989151184,1.0392618182003128,0.8492856472281228,649.5869650838234,351.5171273121129,661.5652651108583,walk
5.409015025041736,0.38605028098673355,0.03876572932511965,9.653661609609912,-0.34122053087419696,0.46220081459802487,-0.9819340453705618,716.1109420269739,319.34657617753965,668.0266437530589,walk
5.459098497495827,-0.36830961481197416,-0.2550134915415885,9.12719654431474,-0.8711184659668191,1.3076627741509919,-0.3347353754193072,660.5504864770211,421.162644321671,542.4186648490062,walk
5.509181969949917,-0.30670189988224117,-0.5918923063878392,9.238750474723847,0.0822888071242693,0.6927834977837801,0.4720142271698888,746.9259903217778,410.62015750239834,589.3691440953742,walk
5.559265442404007,-0.2533142944061419,-0.3571254592272665,9.24328168600751,0.03226905276231729,1.3574740413343904,-1.2060213755843228,672.3007631103014,403.72042284614963,583.973314267995,walk
5.609348914858097,-0.8009689198510835,-0.29771330592161416,9.355785138186016,-0.1052463208481447,0.37873565865490966,-0.5608532622354577,731.5677150426245,311.0893747989232,674.9751122246656,walk
5.6594323873121875,-0.5675493200617424,-0.4907411218836698,9.657101081503606,-0.07413357628937826,0.2578947843434411,-0.4077869293688921,694.1607271526404,333.887442941037,619.6210402268499,walk
5.709515859766277,-0.3389418634944885,-0.20507480121673727,9.672733939720688,1.585584909590661,0.35052348464041155,-0.4691911341052115,727.1828270578789,408.45092823547975,635.0529632212416,walk
5.759599332220367,-0.16604297803089585,-0.27672100615750816,9.812532803030956,1.5000732142511748,-0.22669905818968816,-1.146123446888839,691.6043669288794,320.0139266490054,630.7157951602945,walk
5.809682804674457,-0.0220833814373982,0.05706494512453636,10.249485087672175,-0.14129139113184425,-0.6049984599507577,-0.23019885174493127,694.5032375915773,381.8912385141187,625.0187006525566,walk
5.859766277128548,-0.07285472399218641,-0.0012100218794805218,10.485633089957412,-0.13766735413294973,0.08761953843619513,-0.5164922390920454,629.2854266447589,402.3306720257177,572.9936094899492,walk
5.909849749582638,0.37920357644689334,0.15738707633299148,11.048903786817897,-0.7182693472346033,0.4635010483921759,1.256893428186834,656.7587898257926,366.2398864939091,653.0295392399618,walk
5.959933222036728,0.42117982968983464,0.3521090883358303,10.703983227720833,-0.4724032273067677,0.15533883249037442,0.005692250952519695,735.6092666803669,419.67022679473473,612.6026974311283,walk
6.010016694490818,0.4783462245500027,0.018903316129716963,10.629136353028281,-0.5147558780408923,-1.0408390324702783,0.12239941572590533,635.9604517704895,379.2057062288238,547.3150234838346,walk
6.060100166944908,1.0108743985882536,0.47292315627900666,10.43766251172372,-0.19649887592937607,0.9579727461997272,-0.5279457425652674,650.2623742350428,403.6812884529863,567.9070823249031,walk
6.110183639398999,0.6724779712380532,0.17197741700857685,9.98584494686951,0.7966416480060746,1.1519508334837805,0.6160551065327435,658.0408991395539,310.5604552907503,702.7463292784138,walk
6.160267111853089,0.48916693243944326,0.1820517620101182,9.830579831578707,-0.9854250257856587,0.705457065588462,1.0938316303749687,735.3930986560088,388.93717813869415,599.8040386316173,walk
6.210350584307179,0.13159606335921303,-0.1038461935252311,9.72254665530707,0.3233334533466987,-0.47947897206181583,0.8037841610017014,724.9725010628966,392.26114788422535,630.7310380567601,walk
6.260434056761269,0.20683453090078752,0.10602507331946714,9.385496867138686,-0.07099553446996691,1.597008538218385,0.05840783826526553,721.554813379665,430.0495589503798,607.1193164743764,walk
6.3105175292153595,-0.26009868574439554,-0.2524105111519468,9.183852675219548,0.13992500347494244,0.6329397778337261,-0.16734928115839937,685.7073952572241,359.8732452070081,606.6500380085124,walk
6.360601001669449,-0.4439254667652646,-0.5931657186945489,9.146213934783335,-0.603831319490445,-0.11492591242091328,0.3400303006366058,631.687669968687,388.1213922944145,628.4428122918148,walk
6.410684474123539,-0.5713681950871099,-0.5266507206265922,9.308290561127041,-0.5274339049718335,0.6330032501338191,1.257013923173109,676.1268106546373,387.3364793212562,640.1043938389972,walk
6.460767946577629,-0.5374528032967256,-0.5369233581223971,9.376703245675385,-1.5673488325563818,0.5060845141604965,0.5941523400903425,763.6820855744469,365.46550761109694,644.9234646978642,walk
6.510851419031719,-0.38721672916319905,-0.528203906821241,9.394831124487945,0.8732218678637932,0.1641756594262619,-0.8546989394431469,679.9528275546068,328.1778751245189,564.0247087064384,walk
6.56093489148581,-0.41253573331453564,-0.41661310005178304,9.89465208817764,-0.7288806060180743,0.31951171920834315,-0.7298301387008276,687.5179505961266,355.60964142842835,579.4956957158001,walk
6.6110183639399,-0.1278638949648036,-0.336005678080239,10.490731719979987,-0.8055273746457194,1.1075199606200798,-1.2404843493655118,600.8011701369804,331.6775821375423,615.8398364940953,walk
6.66110183639399,-0.07280985832843968,0.28618597319980305,10.480553309623174,-2.173988901379224,0.47364167523598083,-1.0361977106050722,718.5599789901872,438.90985264427945,595.6274782247597,walk
6.71118530884808,0.552314510033117,0.21744791310597134,10.719316569832905,-1.0158112442895875,-0.20939242531338897,-1.0808668355667055,699.3251427489654,365.095244424142,546.4932977086394,walk
6.761268781302171,0.5792020116141028,0.3492983885309084,10.35928914289806,0.2559802044188483,-0.6781914102321075,0.6930292457749031,639.2671376200615,328.2547382181791,644.0747933982342,walk
6.811352253756261,0.4833951883606657,0.3530254055713969,10.551536989858752,0.7162023805764205,0.002080161890194889,-0.3247285562113845,722.8063989142835,379.78915875937724,523.3266543742179,walk
6.861435726210351,0.6208505433178494,0.4783148316336537,10.34988685232612,-0.9121442854197779,-0.28381358840625304,0.9471395753452687,692.179201759359,344.86805294443116,640.7882445965852,walk
6.911519198664441,0.7942306853195789,0.2148714098500621,10.477376924073418,0.5744843363092403,1.402113723351621,0.08494247998012705,712.4429046896297,412.09664321831326,611.7043585897289,walk
6.961602671118531,0.545344792761631,-0.014794568213075704,10.130266143776392,-0.4581123375020067,-0.032096558804589746,-0.1199879472775407,740.1602061997334,355.7025392831348,653.9912606496722,walk
7.011686143572621,0.4076475443434544,-0.3708282667695717,9.948171133977674,-0.6553221825081,1.3353285872796683,0.27278085091503956,712.5819569476625,373.014709150254,621.119955388449,walk
7.061769616026711,0.31537889380900974,-0.09516945121309733,9.385949597564569,0.6806619046189092,-0.12618797874606696,0.20212016682221703,691.4111903182941,392.99517928330863,628.8214934261778,walk
7.111853088480801,-0.23466674237097646,-0.24938170313875538,9.42692172632349,0.4283295269599451,0.439445860552664,-0.5457959052359237,714.3334219904157,435.765815730614,689.3720988385404,walk
7.161936560934891,-0.30146710568594365,-0.09949201005622493,9.181081827165485,0.5039747933661809,0.27017463632020705,-1.060512400706067,711.105252230085,385.0819674550247,627.6632033854718,walk
7.212020033388982,-0.3660888035430546,-0.36497861942071824,9.37875029355912,-0.36934444474854045,0.04176904051291621,0.021791123188059282,755.9412829030072,375.0329702944712,598.6012961380313,walk
7.262103505843072,-0.20431423054349968,-0.42481865776837274,8.953460327803471,-0.1941554931239262,-2.826953106030178,0.25012118632769226,622.6486430724744,442.96695388300486,653.5945435843691,walk
7.312186978297162,-0.5484588489978796,-0.45745729639780636,9.366018589281074,0.252959077432921,-0.5066690389027998,-0.9632298101761817,727.4946804712583,400.4403781428957,705.4776322027559,walk
7.362270450751252,-0.528671334103959,-0.4450058655002072,9.924281542552869,-0.706437296926667,-0.13158330212386074,0.2892061255230549,666.9099753226169,325.4363942853617,685.9220051443716,walk
7.412353923205343,-0.3771490906355709,0.051490433994978685,9.980676029013077,0.09745970637292457,-0.23641083905160415,0.03788342416795075,700.0832153852123,353.1414009020088,622.6122782210118,walk
7.462437395659433,0.010739535459816735,0.0458152423377802,10.265665105774262,-0.3691560434736313,0.20157579609479062,-0.30710108117129964,720.3085296679701,454.4624457816958,604.5575655127321,walk
7.512520868113523,0.14275397399495854,-0.18815191433429124,10.640695679551373,-0.1504109331608092,0.6380681217818877,-0.8354194508230952,715.259633260122,377.0120778063761,623.0878975167884,walk
7.562604340567613,0.34761677268488755,0.5127955169924991,10.576192492506749,-0.42215954541299133,-0.5067660000973785,-0.10633447291434676,593.8731572729561,432.1577611346572,707.0605970123873,walk
7.612687813021703,0.7370953341694665,0.2099903502616529,10.47638374021624,-0.41825912875862525,0.5115415834415002,0.5599396690141378,657.8539400653676,352.488090921148,610.8033323761913,walk
7.6627712854757934,0.4074206165257862,0.46120180396460814,10.416541759244263,-0.9041949967258338,0.2204288203420794,0.7535708539310929,605.7835898360598,345.78292075669964,584.3830882810546,walk
7.712854757929883,0.43642682670239324,0.5433085907696484,10.269308319533012,0.7118123642211687,0.7835403910156769,-0.9061388511994012,746.2454356716901,382.4896913263691,626.7485329546,walk
7.762938230383973,0.4899451777249974,0.38662788500356665,10.281679294579762,1.23715769826603,-0.0697196118929191,0.7452773576730432,624.9771592773611,417.06492772261873,625.5488113592729,walk
7.813021702838063,0.5714418898316889,-0.04901779771814008,10.04350307971941,-0.9041666806094495,0.4966896746655,0.3454318568548356,690.8991957864519,322.3175595343785,605.0195142936199,walk
7.863105175292154,0.4698697083859829,0.32825848061842666,9.623196603832671,0.6842305489114346,-0.6444374288160004,-0.3219952044385497,689.2233468784839,398.74873481392797,587.1110037974466,walk
7.913188647746244,0.16254030449982276,-0.18188247379030542,9.47491556688786,0.013845408095608807,-0.3163445481753781,-1.2871841730330136,674.8685185479152,394.9294400200906,712.3978037566244,walk
7.963272120200334,-0.12372005063098578,-0.3973050330079747,9.375854704557142,-1.4592581455130542,-1.0087942062526094,-0.6293021428376105,703.0771675673614,416.74084866141453,621.7016631620374,walk
8.013355592654424,-0.549133301081857,-0.5347685725768339,9.265199429568655,-0.39423119447348415,0.6151409177294827,-0.16702482863625423,608.6877683695382,386.8534245542001,572.1381251421855,walk
8.063439065108515,-0.3327650668327811,-0.5836869233509134,9.343463333825696,0.014924223189976521,-0.12883975402214287,0.343445031700384,668.3983472355521,421.57374987271595,647.6418804382886,walk
8.113522537562604,-0.5409372442182747,-0.6832693730091088,9.353742711091517,1.360750487585996,-1.2858670921974291,-0.49896035258384414,694.7946893005461,435.348913901052,592.3859602696878,walk
8.163606010016695,-0.6308839808770196,-0.3693944784931938,9.409369786993764,-0.1837148058764367,-0.7386122418149502,-0.36324867364128927,685.7709753914205,443.3857860091282,601.2741818004042,walk
8.213689482470786,-0.4504292653656216,-0.30754446132756336,9.80301083535021,-0.41758595627558137,-0.2939693160127028,-0.036163144379150046,687.0311163497327,389.91124005124556,653.1032180881163,walk
8.263772954924875,-0.1882862195232251,-0.002864381743442758,9.878424719519062,0.037544896441815606,-1.630997533187592,1.146958357817957,696.4213577279951,481.75662171020656,707.0922170266257,walk
8.313856427378965,-0.2984966078612803,-0.05027218617557451,10.308709173315156,-1.049809766703939,-0.017254323507067116,-0.41619143085490845,665.8670380089314,359.0957428483606,653.0556409782157,walk
8.363939899833055,0.3179228449670945,0.29680132828353084,10.58373991491284,0.8496256426539179,0.9635708319985802,0.5121931229299965,743.3002757753114,312.1799330231613,695.8791322201653,walk
8.414023372287145,0.3312917414061893,0.32545612455660056,10.87165485841671,-0.5148826706578651,-0.16764291067835363,-0.2429450842302211,700.3300229144411,358.44821798741265,618.3992792188699,walk
8.464106844741236,0.5632635567589784,0.29506518824167677,10.805206841206683,-1.3973601869498997,-1.2466331114407494,0.9683662316601515,683.4266248140824,410.1642620968221,666.5672643145057,walk
8.514190317195325,0.7244713077506127,0.021056317619242537,10.553530527164671,0.10390155004691282,0.18998012827397392,-0.03468314831945092,711.0016081858482,384.2020364444411,592.8093571824777,walk
8.564273789649416,0.7828054848147404,0.36466597232008646,10.24295364845006,0.33838869404894456,0.6597931713164017,-1.077895193583742,786.9297728287761,365.1941411920542,591.7833621536332,walk
8.614357262103505,0.5527037278552158,0.3043479116196403,10.305033678390195,-0.5815351688786958,0.7260238447283563,0.15892610256562878,660.2727389099019,410.1760764444506,658.9186393953711,walk
8.664440734557596,0.410298301676228,-0.049470501692811295,9.97087324631174,0.5747232141229234,-0.2849566691483984,-0.4395781461468015,646.9478819148305,362.2874505218365,627.7260594215466,walk
8.714524207011687,0.13152856348301983,-0.13403472993575843,9.310121149336105,-0.7292870974109178,2.1170253450235883,-0.04166630749159287,721.6163532237994,429.1478321588396,622.3555002222774,walk
8.764607679465776,-0.04403411263789042,-0.2678021545309939,9.246809960564669,1.083925756812953,-1.1190189858714452,-0.152199619617153,609.272152273999,395.45960051867036,607.4163716603055,walk
8.814691151919867,-0.16007411372292163,-0.2039323169519807,9.066950143944327,0.39728573683454177,-0.013390071681285068,-0.3060299543090363,655.6888887192626,416.39762270643024,709.2747672797552,walk
8.864774624373958,-0.18606954540995496,-0.3553057087231087,9.29708829498851,0.1648315259831352,-0.8449828629624486,0.17326043360250956,646.7326419312667,376.1102902331684,590.0528002220817,walk
8.914858096828047,-0.39571216179844804,-0.8022992928328472,8.857838096436868,0.3298258509748151,0.5781054043126845,0.9190419860645407,616.5807269705847,436.1478690873107,603.8133680535494,walk
8.964941569282137,-0.4419811477639893,-0.5471726681878143,9.188743907580387,-1.061387982283295,-0.3547808069293511,0.8533296375688884,680.1583393150307,401.6398760724606,640.8831607649714,walk
9.015025041736227,-0.4741277668242985,-0.34911564213119967,9.317126518712655,-1.1317466171759238,0.7170402226308081,0.07654665915434017,614.2175565532671,400.81687369681435,707.7362143664787,walk
9.065108514190317,-0.2649200135382563,-0.1287916508565981,10.09382816513777,0.36039456355337257,-1.0490207880622575,-0.5674551489285157,616.2151405751106,383.74515140472835,627.6885524946073,walk
9.115191986644408,-0.2751778382539877,-0.09514444392926885,10.172444373032938,1.270284972915476,-0.6656031456777782,0.8110172156485744,675.6264982248217,416.516837026929,667.2476036230105,walk
9.165275459098497,0.4937422918462805,0.07304017603909382,10.745229785694649,0.03883043827245161,-0.21125067659644997,0.1260259443125873,668.9740514091059,404.60467401827094,630.502867730682,walk
9.215358931552588,0.19898128864637166,0.041872853442046054,10.584573189372795,0.43845574087775246,-0.47000474903519124,-0.5308138915417503,705.2816406337638,418.7501451937386,615.0531393640075,walk
9.265442404006677,0.3423324245931187,0.34351146739142235,10.693977298592609,-0.3617517210814903,1.0452009050397957,-0.6375380865048029,628.649292852673,370.1845129290497,569.7430147117761,walk
9.315525876460768,0.5991592299791334,0.48721628519429966,10.428454924716265,0.27665943112962793,0.8354784940090282,-0.5929230032532139,621.9239649140295,413.0430422959927,587.5288429761398,walk
9.365609348914859,0.6058470840185953,0.2848812449774493,10.485898314661666,-0.7273657031151086,-0.4418579018713889,0.2815012761980866,713.6217865402874,392.5166714827813,572.7361016369755,walk
9.415692821368948,0.7289332040949603,0.06032005040295199,10.360216294569062,0.38197170583213663,1.178768404788218,0.43677957273651147,697.1014423695751,356.37220809470307,560.524987473857,walk
9.465776293823039,0.6390832075738929,0.06328644147337721,10.220347266535194,-0.06592773644269524,-0.35976920139342655,-0.4306324328133579,689.8811565287019,405.4034634657771,639.3852960527317,walk
9.51585976627713,0.3435901686626767,-0.07006288563650469,9.539311567534718,-0.45898648166303907,0.20065424549830943,0.8951153339508979,652.9863134006911,410.1275544377162,614.6475984884581,walk
9.565943238731219,0.32395236676610123,-0.2655269185072294,9.632064115819013,0.20889177209421328,-0.46735164421124076,0.37077961982048746,580.2649612739318,415.0137890260445,643.607863720103,walk
9.61602671118531,-0.011409560965431234,-0.4654897214039175,9.578985683792363,-0.3900761718738748,-0.44514988530239874,-0.468652615069877,653.6144255265555,378.1657450308308,676.1460622811908,walk
9.666110183639399,-0.07562425005829414,-0.27825227580175654,8.955234828894175,-0.29721909715303885,-0.649696591547346,-0.3879418050933146,608.4387248426336,397.5574365569052,682.5548221816322,walk
9.71619365609349,-0.42671264586698504,-0.3037596968474461,9.418724041229995,1.3099017340616899,-0.13734743088102877,0.9894040630905067,655.1168215928313,363.5209653862104,723.2413182529235,walk
9.76627712854758,-0.08150992580466522,-0.6134014558301495,9.472545065833724,0.8876902701444669,0.7152547747406225,0.07774681261127289,675.0200954848275,380.4016575736369,633.4665943493577,walk
9.81636060100167,-0.5075277981508198,-0.4963144316695386,9.499890310345243,0.6624271868809346,1.5265527999786899,0.20741352839435065,685.629403056135,390.1183163904084,620.3726049041732,walk
9.86644407345576,-0.39299107057177535,-0.2253015561172769,9.583603656271817,-0.574827813816797,-0.9955167772295523,0.7686329964945143,706.3053026594961,403.6262522844576,648.714882526812,walk
9.91652754590985,-0.29876150012832775,-0.3194886752917207,9.997319942661637,0.21001830553880896,0.12961172073191576,-0.10860776966239044,668.1152133329624,487.97986867754844,652.9317018502708,walk
9.96661101836394,-0.38892322865584755,-0.02140588453256012,10.367127870233556,-2.6625437493077846,-0.03489662403776549,-0.24680718802069912,636.6049936646642,449.36322505218334,680.4894921824448,walk
10.01669449081803,-0.019254062751125442,0.25011490085332605,10.457322902944444,0.6611574523495332,-1.2963066236202059,0.44412367612563897,637.5696313622549,362.927517187862,591.9704862590097,walk
10.06677796327212,0.54601064081005,0.27081848368796796,10.585395117169735,0.485361497837614,0.6724163627327497,0.2908884706916964,589.3239808102759,348.5314440212573,618.3223437932245,walk
10.11686143572621,0.1869120539273344,0.3835525692836769,11.001015559410433,-0.46510360015529767,0.03425307772320687,-0.7060365678645358,722.8657137964368,374.7789812067079,596.3599947836148,walk
10.1669449081803,0.4505698779620249,0.548670505570128,10.652694960866482,0.342088187547151,-0.9310173064349125,0.6934580566269745,634.685724282149,358.0989445777201,613.4138110162388,walk
10.21702838063439,0.663114740580852,0.2969296366483574,10.58726126097906,0.6795997428790396,-0.7574789592363507,0.2830438138712011,621.3693193824959,403.33686540435025,529.6581312303867,walk
10.267111853088482,0.6362784009975477,0.0346721719888379,10.202532371436986,0.07893435259465055,0.3096670084217539,0.5446177355179038,703.409448611407,454.4847579373046,645.1357471303864,walk
10.31719532554257,0.47073068126638273,0.21091499645905604,9.737150987289171,-0.27500191687577497,-0.15466216107827863,-1.5273005504390877,636.3175931258558,388.5374918114568,564.1973588110334,walk
10.367278797996661,0.16327196518011794,-0.3287332228449347,9.506234583727416,0.13945718907673385,-0.04305934124438995,-1.4316343493539907,730.0845337257175,387.3183679671088,621.4516938244471,walk
10.417362270450752,0.1517978834907988,0.040881124263103114,9.59049352432287,0.06959799486178199,-1.1995936888443577,0.5600564095726008,619.5081238587836,412.2378026426328,624.3624295406798,walk
10.467445742904841,-0.13468959350794646,-0.5189177270909411,8.998315642620147,-0.5682236279380785,-0.057190264795194,0.846273840947398,691.9138624198104,383.47210981725885,638.1656355120824,walk
10.517529215358932,-0.4796031411560195,-0.48355332637962395,9.027440173331506,-1.4282019908523307,-0.09947280899777511,0.5555260520149955,578.660557562381,392.8059423307222,652.1177896165129,walk
10.567612687813021,-0.27274848030612037,-0.4225125015731214,9.2626245022818,-0.755477893881303,-0.052477019856692224,0.573974974682514,678.751399997873,335.7726466434062,612.1187489588746,walk
10.617696160267112,-0.6778295532855859,-0.5500283943329712,9.420684316006723,-0.18366927115238976,0.48973685846659937,0.101101022115463,668.8171886552411,355.90919613706166,545.5163807596582,walk
10.667779632721203,-0.5749876388267293,-0.2789903995657682,9.993715835256546,-0.46670239292040694,0.16510843006296236,-0.47442266495779106,789.265968763341,399.0692891190453,632.0894676232173,walk
10.717863105175292,-0.5409428838214938,-0.32542874183068743,9.645495716220244,-1.0960268193228007,-0.17169568545482142,-0.7004318694117346,612.0913029692404,362.1723742437579,595.1245962326021,walk
10.767946577629383,-0.20537229176098087,-0.029561036969523495,10.196517574023808,0.9430724913085197,0.5461597478883459,0.10764800062682153,679.806616711983,417.31954308637245,704.8474094507197,walk
10.818030050083472,-0.1369923254513603,0.05932444043398544,10.41941635850881,-1.3458336094427645,-0.421027638742849,-0.80652863119092,695.9024478506681,437.55721741181503,666.0539013686566,walk
10.868113522537563,0.36212377027912707,0.22555980869908226,10.518242733728886,-0.029855090846757224,0.06019558705187879,0.12092711512715625,601.4803029648679,354.4748618264053,594.6570663851286,walk
10.918196994991654,0.4666911229684037,0.05435464730947512,10.643740449991567,1.2913928194835478,-0.09229749934263771,1.4818219094141836,695.7497390795224,407.77968620568333,657.1305964937568,walk
10.968280467445743,0.6001576230556389,0.48393554329010985,10.643042673176401,-0.2675014158914901,0.00562087484455753,-0.38057382906725706,676.7492641936553,376.8922259432735,722.1397067310913,walk
11.018363939899833,0.6771805850979443,0.41189347377555274,10.648028150036291,1.3376169775585474,0.9996358683815678,0.38550353693889006,630.0390468361023,390.170127576715,579.5155114310741,walk
11.068447412353924,0.43310444166337586,0.2638963258007931,10.659133652450812,-0.642665836141437,0.7653593736165905,-0.2403609263605763,692.3232533360957,325.978767798381,603.2467360636789,walk
11.118530884808013,0.5583746540135889,0.2848613227106489,9.960724869972156,-0.1326736758726825,-0.5778025083376404,0.7082702877331477,682.8325077670129,358.8262091282589,629.6162882682783,walk
11.168614357262104,0.4889444098448112,0.16121656098401616,9.658933979187873,-0.28249540607277335,0.00037921009472149296,0.1831692839482096,731.2976329742825,403.6142325882059,649.3434588411038,walk
11.218697829716193,0.025116776029335666,-0.11670013911725546,9.410190052234915,1.492985285566501,-0.8997538935388296,-1.1028367379129305,621.5482708011114,360.82390658517215,581.3611094343748,walk
11.268781302170284,-0.17809997149154072,-0.4159546401458412,9.328100344411236,-0.42534303849316646,1.3350419500184814,-0.07114712148101425,732.2346534668467,374.9123817390959,664.7940991372227,walk
11.318864774624375,-0.2258918218961139,-0.4117023707117028,9.279358537357943,0.04236554048837852,-0.13901775519469112,-0.2913618741430815,704.9420161242494,366.9432739676607,599.7645553800305,walk
11.368948247078464,-0.5549693184114762,-0.351065405324038,9.03054044499474,-0.9296403197388614,0.33510951181020254,-0.7707877216767259,674.4942171820575,369.7210333928514,721.2289777668354,walk
11.419031719532555,-0.5009921760990502,-0.658312942862572,9.292220356321423,0.6446348572854863,0.48133587287106216,-0.3591365910827339,624.0395458128437,406.17099116442756,614.9744869470653,walk
11.469115191986644,-0.5927134593742491,-0.47464270243350126,9.454904611889475,-0.6443256560795165,-0.9993910872464439,0.7728715114132045,695.5383406899562,368.09544399258004,687.4616561446259,walk
11.519198664440735,-0.3870898280238288,-0.10508011332897021,9.745360005943292,0.4560990086694489,-0.3118041352428348,0.8492385825088985,736.7975426403918,397.3436939580777,618.6959798467316,walk
11.569282136894826,-0.3205568428362575,-0.25061291150630316,10.148567920794545,1.1735308897426715,0.572770940756844,0.6614442331237466,646.5940229927783,410.6886067340454,558.4373254641514,walk
11.619365609348915,-0.14658595209144593,-0.031209583231646562,10.23347293279506,1.773039219173325,-0.4808195386717122,-0.6077087384042044,734.1898156298932,358.9622112958334,670.9816002332017,walk
11.669449081803005,-0.03871206347241693,-0.08771306608673032,10.649255878957769,0.8765555101946239,-0.695499946847793,-0.15867295621352578,718.816980200016,349.0575120676122,604.7111933969508,walk
11.719532554257096,0.44123196238879736,0.33554595872522175,10.546506614992648,-0.18268811302418042,-0.4452201115235098,0.1323985449822642,718.1582398173316,385.0135129270243,604.6405655727914,walk
11.769616026711185,0.4422424397834913,0.28177723610759264,10.605807807309525,0.434062417700482,-0.9189211649756505,1.022678299780691,668.2906387848134,370.5259797443796,567.5882972153686,walk
11.819699499165276,0.557960907882404,0.20018325163808098,10.691949844866935,-0.15747510645903345,-1.0479915061740064,0.3378509635660673,628.7118666029019,421.66831807919414,601.94078138288,walk
11.869782971619365,0.782240169823449,0.3764860170607057,10.445512009142782,0.27565924246946827,-0.9252962040762557,-0.2678187997596464,673.1829128915294,375.6092475886692,672.3297453480793,walk
11.919866444073456,0.8030364804838241,0.2986394911835904,10.0864139752678,-0.2747351788505963,0.624504053171986,-0.38480546417255224,696.2007975070723,408.2227386986416,660.8281799911107,walk
11.969949916527547,0.5510290362288315,0.18616136264016636,9.796113552605972,-0.6885531392985194,0.6080065705476964,-0.765728733341277,738.1770501156267,337.6374604300346,583.1051615002424,walk
12.020033388981636,0.28580667512741437,-0.09462913228500097,9.703607249939296,1.6124474386927206,-0.3426304808465817,0.06647508120862046,711.4511812133582,346.95477428784267,536.2732848902558,walk
12.070116861435727,0.48842135454966756,0.07761746229511501,9.677392789648524,1.260635193488124,-0.25836494108790015,0.20052354538966347,675.2681313433952,358.645422376214,588.7788344630038,walk
12.120200333889816,0.06756131520704094,0.07351222164279314,9.324410423029672,1.1628455995287188,-0.7567638211606874,1.6675769089347598,614.8070567471506,412.3921729095434,541.1395016078457,walk
12.170283806343907,-0.3959584270910905,-0.3826895890096388,9.242646426633335,0.15522259530396354,-0.5713848064607274,0.21780183681830337,724.0732113472646,365.09487518590765,653.8727863288834,walk
12.220367278797998,-0.43916459126345336,-0.6005968096322742,9.242575220203051,-0.16008221081637364,0.6711495680379587,1.6315229630955776,722.5091198189798,327.14180247084977,623.1234546400972,walk
12.270450751252087,-0.38229224603613315,-0.390674991789603,9.3757308631443,0.3903357120038626,-0.20983825716520244,0.23327652366613894,807.0810337795639,335.51935469411393,577.6784922420214,walk
12.320534223706177,-0.40847654032069464,-0.5493552278833749,9.40063518570615,2.506144475359654,1.0487843955175231,0.05850135860271625,627.952664092586,400.7249084875635,585.8645444895542,walk
12.370617696160267,-0.4168809200535621,-0.39240346550756927,9.851767921166791,-0.04199309500684887,-0.6770191947580956,0.008993604083984749,692.6734091843094,375.07515904265455,553.0845275467883,walk
12.420701168614357,-0.37074315437194266,-0.08389592317850933,10.114367379247595,-0.6365229776474044,0.5357840603988464,-1.7266969523174838,714.5474816915792,407.27198197093065,722.797209957027,walk
12.470784641068448,-0.2513116576389622,-0.0022520871086817162,10.240808864331367,1.0255104872349474,0.30891102928662845,-0.7275810221492682,673.1546334866642,420.78437568260085,593.9966047502687,walk
12.520868113522537,0.019632217032489352,0.10615419812243487,10.500175741969025,-0.06850897707779023,0.3685785704336624,0.16165407238601323,706.9570904599788,340.5223510475013,610.1651341435077,walk
12.570951585976628,0.5448122423194123,0.21811673740729226,10.732197048317609,0.6765054781085913,-1.7045559525364227,-1.0663260087188693,663.6635230047675,369.59184104123744,688.9889251781227,walk
12.621035058430719,0.6267944350100428,0.4343744566914162,10.883920688572918,0.7326936442443935,-1.3176733590638794,-0.20199641580673555,613.4522810846124,298.3547868027879,665.6428789128252,walk
12.671118530884808,0.7300001887326099,0.48548080207383754,10.640490626383288,0.7026918660837842,1.0938476047436232,0.20949027804645215,635.2131686273952,426.58365128423736,613.5269847755602,walk
12.721202003338899,0.5301160570389456,0.050337830013600704,10.451932509185033,-0.03142936583974614,-0.32138425972944057,0.5236135088574663,724.2541412836539,339.2331333253944,561.2986989661973,walk
12.771285475792988,0.6289267485740879,0.2991342752130445,10.182092545783544,0.8521636603414352,0.6794698133148586,-0.5139605986916757,698.7907106274689,330.16414202378786,628.2262760219413,walk
12.821368948247079,0.817422287066396,0.18289515106418988,9.916680572760583,0.08407361903688369,0.02030000039316133,1.0720059599663079,617.8193679508838,369.6635507092141,628.7527747427356,walk
12.87145242070117,0.012750514433497354,0.061744578238524694,9.459992268592352,-0.5194785883454861,0.30759194422192115,-0.7273022576319194,558.1126961701248,410.7032451656043,618.1969952156529,walk
12.921535893155259,0.2891936296522426,-0.435674901002356,9.491389315208236,0.6523834621362176,0.4269760925657891,0.12035668211506516,642.39392792156,361.3478378820862,621.1549842602317,walk
12.97161936560935,-0.42740019936489554,-0.3597929378015579,9.121888271815113,0.039635515853285785,-0.16970349148490535,-0.3195416601292661,707.1806105160994,399.6412986007347,657.2011150911999,walk
13.021702838063439,-0.3374638899876178,-0.5511600330008224,9.156634431274531,0.34846840298928533,0.4285182300173999,-0.990605600194627,665.1261990388049,386.20582105480474,620.3637783573474,walk
13.07178631051753,-0.5337653973099405,-0.37232022140747556,9.158471172847573,-0.14095449591135342,0.47231921125771714,-0.2624733728529683,708.2985656158003,362.3791544243614,655.0062955245289,walk
13.12186978297162,-0.3363618475374644,-0.5851345356000908,9.213603615262919,0.7830960988351469,-0.4341086873610344,0.12701044792544006,709.2250341100461,382.55079574007135,593.0571517289668,walk
13.17195325542571,-0.45509519176860497,-0.31308091406555155,9.443572152562366,0.015694907099288866,-0.11018840084781524,1.238066593144129,717.3641382161678,366.8851942798206,625.0730750295124,walk
13.2220367278798,-0.6108578389773756,-0.26839607228397044,9.729420944207277,-0.5252065646186231,0.06602690381390135,1.4668876302135918,685.193992473895,315.89654765834575,615.5667017078802,walk
13.272120200333891,-0.3991077221858171,-0.2034833201157763,10.095685972587514,0.45140293511029117,0.996157472772416,-0.9122529950793439,690.0694075178193,398.2497246972312,633.030072337888,walk
13.32220367278798,0.030991075160660818,-0.14754116164250064,10.606349487510647,0.9298171755304625,-0.44781244253877356,-0.2261033768777888,658.2902189547657,401.3568256331991,612.8583501010638,walk
13.37228714524207,0.5278934478609746,0.11113532162227724,10.669338697434481,-0.9901355929891363,0.6417361409834524,-0.5205873879031319,736.229348184883,401.11760454903583,580.226329917917,walk
13.42237061769616,0.1635335570679971,0.31456148251112054,10.802828331130764,-0.07176886834413224,1.0082280498378737,-0.6294945539364616,683.875737955256,357.1868447995055,621.5991951630542,walk
13.47245409015025,0.9225390424252323,0.20612584735785233,10.534888943042317,0.13822834113586283,-0.42855030553732953,0.46348050479014385,657.5713657357605,393.4303126984409,626.5180113926241,walk
13.522537562604342,0.8638903054035527,0.2722391080785873,10.666628329134962,0.13660077957704006,0.535707139371707,-0.5855153721610636,713.4685549211325,378.7047336465421,685.16379605051,walk
13.57262103505843,0.6400966858991101,0.3149356750039911,10.332995241716091,0.548090238913858,-0.19422812316680174,1.717268532992935,790.7262005354368,396.907056467503,615.2082748950254,walk
13.622704507512521,0.5314029682915837,0.1189731316409155,10.20630599143373,0.7292893909489541,-0.08642888368304028,0.6330040493031914,679.2075447521567,364.287787754227,617.8210801635039,walk
13.67278797996661,0.2711334384105605,0.0912731776227369,9.775873912337815,-0.8345107228454545,-1.0717449192715174,-0.5225815951805829,598.1439688143641,367.26398755700365,533.9730244270419,walk
13.722871452420701,0.23522235863481006,-0.08597894529306624,9.441784041708255,0.10685266774759351,-0.6208515515852806,0.23657423109041917,627.8114950807135,370.0481239578639,680.8202423021711,walk
13.772954924874792,0.05959079718043471,-0.1824474906555923,9.178475800392446,-1.002224230072074,-0.4205621985097823,-0.0825436104477982,652.301730091178,450.813959770266,600.693295917893,walk
13.823038397328881,-0.2759409107065182,-0.1324262090257901,9.279578073640634,0.8090381153131232,-0.9351818867583714,0.18671210636281171,639.8308215559852,401.370092490485,648.00073566937,walk
13.873121869782972,-0.2896129236619284,-0.5119874165257483,8.90272167653374,0.037903350860191205,0.458022900197004,1.424849715317027,709.8399490459025,407.77046979042586,511.7395952175805,walk
13.923205342237061,-0.23778284311249254,-0.28261643612759335,9.08799177894265,0.00011006627876974595,0.3466103373863801,0.35048664318116574,612.9264495722923,325.5141610011047,668.0669809278762,walk
13.973288814691152,-0.5326949609430839,-0.19933758677427268,9.60854890270961,0.956451300910149,-1.2755673069208102,0.06432301017615627,704.3490911431701,403.36944841585154,575.8407573169447,walk
14.023372287145243,-0.43353694457933273,-0.27503709129673404,9.840762601164137,-1.3924938061395127,0.530059866369763,-0.27869573760772,705.4356991739033,406.2799526200964,580.8618012307511,walk
14.073455759599332,-0.21414170583332492,-0.007070639667174833,9.843594472625275,-0.5592684531634745,0.11457361242018892,0.2392315607356379,655.7023847873091,416.4107845793835,649.4378964404414,walk
14.123539232053423,-0.25697804727901624,-0.3514928233538265,10.45196252212598,1.0492174226171407,0.39866256114778814,-0.5239466446416772,615.0983624910259,347.9046881001973,625.0693692254787,walk
14.173622704507514,0.18644277870165332,0.33819841609562934,10.598502057752947,0.10377033736723058,-0.27791235084233784,0.28359139400075606,648.9960342364093,390.03117827709275,694.9660100954642,walk
14.223706176961603,0.44745939044426675,0.362620663195349,10.698254093375324,0.1728103645954228,-0.09419191596646759,-1.1995606776643033,712.4313884137731,386.02975835955965,591.3688097316085,walk
14.273789649415694,0.47253392332289873,0.30887452236191676,10.741207535429586,0.7889546781433031,1.400132046101593,0.5627716050125893,643.8697876123761,338.9580640629462,563.0940498451455,walk
14.323873121869783,0.5850478375560408,0.6185907349727726,10.705060303421366,-0.2069464236625869,-0.08314330084122278,0.43633593164252316,643.5878944783493,414.2046946230465,530.1240325911738,walk
14.373956594323873,0.7175314112737856,0.14783082218100962,10.640485573348379,0.058143989727704716,0.5744106232385481,0.0037679307352056963,637.0294164138488,330.41242990203534,616.9108907189802,walk
14.424040066777964,0.7588835955648944,0.1688774477483689,10.145930824309668,0.11452348844774123,-1.2396755826954649,0.5026638230360428,746.7708241887294,378.7652975911872,606.3881051351134,walk
14.474123539232053,0.4535244843525909,0.0875415730334628,9.838821732188649,0.5099655208946369,0.44744961895865193,0.4392672405100223,791.9557715203498,413.52187559436686,637.2110225370723,walk
14.524207011686144,0.1572717675396504,0.04928099715415975,9.509055591977278,0.42027151734684937,-0.6222161216915917,-0.18408725359458966,719.8229131852273,451.2493501305688,664.4206445415572,walk
14.574290484140233,0.3153358125044488,-0.1590161876992955,9.46677712563666,-0.18424118034118148,-0.6560087922768765,1.0925447381782276,680.7841915004842,499.782836592625,573.6373528001617,walk
14.624373956594324,-0.18170338313871487,-0.17668325846023952,9.181547221506891,-0.6956364976385953,-0.7598746451718421,0.20941412479145663,680.083448580536,404.38069524596847,650.6773121726247,walk
14.674457429048415,-0.13023877330437933,-0.28748076153888047,9.05164454309322,0.023486506606493766,-0.002831247497154129,-0.3130225719222963,608.6408909665581,459.5269790162538,615.5713211630215,walk
14.724540901502504,-0.5815993176565912,-0.6564323999757837,9.348473665846077,0.8022994671213415,0.9039179332186915,-0.7150504685137806,748.4918096031219,349.78840277154245,650.8116294844981,walk
14.774624373956595,-0.4399460711631438,-0.6928245593898334,9.03970179110262,1.1210172522233415,-0.10618110527759833,-0.6215983668387661,627.9210926577891,340.43872994908304,614.2761458320857,walk
14.824707846410686,-0.5789285140938976,-0.547759778859092,9.459404798184943,-1.0346659587992395,0.6985283438355642,0.35023870963824527,648.9081266167186,414.2869203563306,638.7488128082712,walk
14.874791318864775,-0.4782648934599197,-0.23205767551960832,10.015856927881636,-0.16604001658176681,-0.3023263081293779,0.21544435914116117,713.199179814429,372.03907799010153,660.9988607070546,walk
14.924874791318866,-0.4121930811336038,-0.37905086763762147,10.132952790824234,-0.17357381922825751,1.1612064494234775,-0.12376245928983567,655.3500141349097,380.40948205125005,632.440158673513,walk
14.974958263772955,-0.10429770697289746,-0.046777245259058145,10.538945517613852,0.7432612454841336,-0.45762684736447434,-0.8341251045568278,628.1628837152452,340.4154911257532,648.1566412296289,walk
15.025041736227045,0.22984771884644312,0.10719989721163789,10.804413367471211,0.34002585903790267,0.6379015716831081,-0.6222336912663962,652.6805018889869,336.9971545236007,558.6217813115538,walk
15.075125208681136,0.390144472803703,0.36697694335834635,10.635142972325196,0.7807063154658233,0.409392641654165,-0.25444426501787126,677.1226688430262,387.8502021674116,608.2764647607181,walk
15.125208681135225,0.4471777243033148,0.5349670984043327,10.653295924232424,1.2095329482659152,2.057676112203477,0.9560305576248462,719.0855615566034,389.35447948090786,584.6882047188533,walk
15.175292153589316,0.7008522316336689,0.33247863089761137,10.572458911445787,0.8434452692701383,0.41106890307437394,0.12875012486453324,682.9774796886157,418.45580719109836,572.7755452513951,walk
15.225375626043405,0.584106505590184,0.39653623421686135,10.336862381833738,0.7961418498064198,0.9365114944312853,0.24445362918231037,718.3775454319124,401.8677627495024,607.5020025503734,walk
15.275459098497496,0.6310799413181494,0.13003764259713463,10.405391840904873,0.2996437849253241,-0.04174210405787096,-1.558565940855074,630.0475004117887,353.2766908829085,643.3821640503733,walk
15.325542570951587,0.44538288323975267,0.22202594378621404,9.949861289589082,-0.3532444462423811,0.4026842338870396,-0.004267144470981211,603.3747919891927,410.10255948963027,622.1733499525702,walk
15.375626043405676,0.17635618667386593,-0.13296341762840813,9.35883356792229,1.4387159447464775,-0.6676451281536542,-0.046060220600311425,604.8564449155668,392.5749567608213,673.9151312088974,walk
15.425709515859767,0.171256627606649,-0.35296857303402057,9.336271777407518,-0.3709863631334467,1.0030999423374014,0.5743534491153853,629.770531494944,392.6030172512706,621.0811096465716,walk
15.475792988313858,-0.35542118822964547,-0.4934756423991658,9.427020626136288,0.12126442837061241,-0.3481841572548659,-0.5222776762171629,624.2393106750709,353.36772313970056,619.796050685886,walk
15.525876460767947,-0.22616176869994337,-0.3823851784572394,9.122401916886403,-0.46162143425571117,-0.10143494820985172,0.45062768354806815,557.9854021001339,409.4359548691296,653.5436492058776,walk
15.575959933222038,-0.4023971356310375,-0.6796604005986879,9.063704867712053,0.3695933283846047,-0.3037001895488343,0.5243168171231058,674.1492556617766,409.6452372240139,669.4540406029275,walk
15.626043405676127,-0.7518211266396405,-0.28879083245629955,9.249415748358057,0.26400167526713414,-0.18521114140334805,0.5106686417384161,698.7971081758221,319.9054343006397,618.828832309828,walk
15.676126878130217,-0.370468840367461,-0.36608651245823537,9.806595203170167,0.30050400223993173,-0.49077888153235105,-0.06459785020398456,703.0619870919064,456.4195223880413,692.1546260842684,walk
15.726210350584308,-0.5467077912661943,-0.40211382600203743,9.894768776490457,-0.8778431091364258,-0.1899201015995519,-0.07565896171038555,704.4624026628339,355.4957281281062,651.0434471691491,walk
15.776293823038397,-0.03869752797232205,0.005387134033596697,10.158918613264099,0.6609304100510232,-0.3262772389724457,-0.3228550657189688,715.1867945967397,345.7118134913821,659.8434380027319,walk
15.826377295492488,0.3373705465258795,0.2607556327993252,10.501612696128133,0.02191152745749843,-0.19082779270933606,1.2564024323399385,646.0476838769907,383.2961173184806,644.0485273259078,walk
15.876460767946577,0.2671687187383311,0.4145552751657014,10.490075662447614,-0.047242128513608504,0.24906572978961886,-0.01487306043825713,715.8541677830196,388.79118840335667,541.2000546531405,walk
15.926544240400668,0.37608156560308426,0.17479183366428488,10.680031721920125,0.16669091946207057,1.4086017047377102,0.09033013602463526,773.0509769503697,395.29647176972026,637.6643301664485,walk
15.976627712854759,0.6819684044296956,0.38312488607350054,10.814559683472783,-0.9353897452753328,0.49619872721405844,0.1478019964275625,649.5647719264646,405.0899552369981,521.9157690795541,walk
16.026711185308848,0.6282329074374381,0.2939285906217925,10.742619885234868,0.7028355857125439,0.5205332597997524,0.812168522556753,654.7632593917517,396.69865396691563,553.3546178915096,walk
16.07679465776294,0.6494244255129848,0.22567840911751857,10.498543566822402,-1.5554551994614667,0.3198126316893202,0.40162294559979983,748.5601496970837,356.86342352938266,597.7222846703681,walk
16.12687813021703,0.5708334948622622,0.1934070075729845,10.07075372181218,-0.2997271093797049,-0.920623773820785,-0.6652775710331063,668.7737654451475,391.26124978635926,628.7545506995957,walk
16.17696160267112,0.4676635256887176,-0.04234115290395926,9.870173463409238,0.8839205408200501,-0.9131911070328063,-0.7095272485369805,711.1346651764504,396.4358505160578,603.2710810969012,walk
16.227045075125208,-0.09381249078345531,-0.26603540401940295,9.526261264797105,0.191488196471846,0.02697112393055876,0.24097012912975888,705.5525545234448,408.6301377367332,628.3922208857211,walk
16.2771285475793,-0.11994137139650361,-0.24288110317790265,9.352061546331292,0.6737025542046265,0.1397281014155241,-0.5049709608590769,670.3970681060771,413.4341681396676,565.6053569229633,walk
16.32721202003339,-0.15503394778344687,-0.43728315857581684,9.022748422674475,0.09650305070461404,1.5674054745788306,-0.6398390830220154,716.2791825303036,350.24248752007765,577.7752899357508,walk
16.37729549248748,-0.19512896943250935,-0.3537928986477921,9.119731474372852,-0.025831700657635598,-1.0712387280524909,-0.23978043866522203,722.4199399081289,330.9599695394042,603.5045276053626,walk
16.42737896494157,-0.5596266907187085,-0.30448389922509017,9.221741885106423,-0.3861369264897917,0.08889876722189533,0.6382279143083397,730.2300162547374,386.1924076652188,629.3966563887708,walk
16.47746243739566,-0.5443338497628849,-0.4652363184361673,9.462246519385898,0.09136374959566043,-0.33884491598674393,0.9413619717649824,666.7838007486419,390.96621370183016,659.4905699160639,walk
16.52754590984975,-0.34244860546123373,0.01039129365842928,9.79628317029822,-0.002650668001495642,0.7869821084533438,-0.9183414435970719,653.4372816428934,342.0540303353128,632.4696995108583,walk
16.57762938230384,-0.45312318491689746,-0.18353159624544432,10.116394729077358,0.5035887015661534,-0.7764234998474128,0.9618407737612873,813.3009326817437,423.90654127128914,600.8122521855743,walk
16.62771285475793,0.0280662121117512,-0.07028813516796498,10.482692790557474,-1.1324890754551407,-0.24658837670539635,-0.3308001866402374,568.8247965307362,328.3710484171903,641.956593131676,walk
16.67779632721202,0.13867090311664534,0.016815228676209368,10.511260789769985,-0.5557362540393154,-0.0008381436781613468,1.390502514769682,693.4639344012252,376.51880420380945,646.6881797473537,walk
16.72787979966611,0.10382943858883308,-0.09038217223436101,10.90267932343453,0.938506854340064,1.1340697815852319,-0.1588892626313807,696.4207846060763,383.87942172913364,693.873258917753,walk
16.7779632721202,0.390109043778545,0.183431056268093,10.732675220895983,-1.5381632478087308,1.3286915616944246,0.3034506148271078,754.4112445203235,390.1370607974633,604.5395682943986,walk
16.82804674457429,0.8505814723750091,0.33848768309881755,10.706879918906031,-0.26567749762654497,0.2043557141646161,-0.810347890102554,669.4432540594353,340.5914403715747,715.7120849261964,walk
16.87813021702838,0.7611596862613382,0.2229180326674577,10.369102336725817,0.48173702673642577,-0.3537211863651844,0.4961133850528261,680.6277629825743,470.34738135968394,649.2745372932507,walk
16.928213689482472,0.5629557892932147,0.19761600727850326,10.158389964676367,-0.011519307892343737,-0.7331389396841751,-0.3910126714456659,738.5102137511726,359.46867613493697,667.1185797171493,walk
16.97829716193656,0.3841994214218792,-0.0875699480008327,9.805077657736721,0.470222314269029,-0.7774130118656285,0.616398047498094,637.883888575542,303.0016432621189,645.3000009606133,walk
17.02838063439065,0.3969801166886473,-0.33320502209987096,9.368616803497021,-1.375909535068861,0.2666362968313098,-0.27014400331799543,653.1829654752751,350.26920322773725,627.6812649268195,walk
17.07846410684474,0.03176407084503378,0.07364765165920265,9.244108826491418,0.32150546031492777,-0.38947845382262686,-0.40453983656117415,664.9117707686688,403.6708729513668,594.2872891438251,walk
17.128547579298832,-0.05390921497440472,-0.1863428088584524,9.418300048323053,-0.10393125613178926,-1.0831879756573954,0.279740361802848,717.0170246313883,407.4157788725523,564.5392417568937,walk
17.178631051752923,-0.2402207504686063,-0.1466580120355101,9.291831915287412,-0.4993344980036612,-0.6659802602029523,0.8960307993495296,604.0524887273793,375.4727213774411,666.4584470391549,walk
17.22871452420701,-0.5603066369008765,-0.4790457054360933,9.542798751631405,-0.4677097929861668,-0.2642028987597228,0.003153862218901686,696.0756863532229,354.4364067194817,589.3375086282847,walk
17.2787979966611,-0.415993476234933,-0.37336373634703973,9.356506106976296,-0.6861169991008853,0.10895357583982022,0.6319155124994441,571.6735378565168,340.8276628979665,622.5770904978492,walk
17.328881469115192,-0.18016276135588816,-0.2815380037298874,9.680019432945812,0.6054583609459128,0.602270481639763,1.2271454361867333,681.274580685699,409.6221630936472,619.5504387568503,walk
17.378964941569283,-0.29968489747230953,-0.2544193086056504,10.164855524481787,0.320299702343257,-0.6111740723032952,-0.584842324667588,685.7807300060581,319.60803971377345,654.7551759940504,walk
17.429048414023374,-0.5526868813748612,-0.30567249427387166,10.181444177313029,-1.419056717724174,1.11187878484852,0.16659200443693806,640.4087942841811,339.1598466164424,601.0413752781286,walk
17.479131886477465,0.12030105904211306,0.2233145296415014,10.62136492173067,-0.4503349544077322,-0.30860122720216454,-0.5486036699797548,660.8035081895025,406.73832395900655,626.8091419740293,walk
17.529215358931552,-0.005378093942501508,-0.014673720359779263,10.703087076876683,-0.812726959800086,0.8947697811600898,0.3346829170079727,688.0250555282769,386.6186206773822,626.3935392779417,walk
17.579298831385643,0.3566959967037472,0.4432949857651573,10.63435207082408,-0.9181604491768952,-0.044879200059587225,0.016813401542255853,694.714593656003,345.9752458508106,652.9946480966768,walk
17.629382303839733,0.5894885748190705,0.4545110755670771,10.57258569787655,0.627856373399179,1.1157132773070002,0.00889798419787676,770.6530374927212,366.60513200176985,625.5847779028976,walk
17.679465776293824,0.8075441405910225,0.4595845248399277,10.536621452556215,0.7637830591998529,1.5111679991004539,1.1959107185822746,747.2838514071058,404.4057672543038,672.8881705058898,walk
17.729549248747915,0.7306743907997972,0.5338265066833174,10.12768396227801,0.41849419230989837,-0.2497160929121816,-0.48347425388826304,661.8128333738082,421.0094813866223,652.567501384572,walk
17.779632721202002,0.758938304495777,0.1464717022754504,9.820983691320867,-0.5124563355929121,-0.2749486715275321,-1.3521875043496943,638.7039014965212,303.5103081827919,598.3121910425947,walk
17.829716193656093,0.41398459564361595,-0.31877066234176055,9.683327027194325,0.58320258507885,0.18227157853076195,0.5877927050223056,726.119619980826,418.0757653097263,683.680468885963,walk
17.879799666110184,0.22983746525191245,-0.29170308860162925,9.41880295473224,0.06835137947063818,1.9087324772303047,0.4736185064372654,667.9784549727575,442.74077973225826,596.0239816278474,walk
17.929883138564275,-0.22807734272352287,-0.4636986691377018,9.292907937561724,1.214774973748115,-0.7781929449555393,1.2811040728132186,708.540450363476,438.4961419595361,526.9457208080299,walk
17.979966611018366,-0.043962700352251236,-0.569838478814441,9.136260281474238,0.8574190413011152,-0.800423624497484,-0.09247869777287665,641.1380492907566,383.25859068885705,621.1305094627921,walk
18.030050083472453,-0.2321025058702128,-0.41266052161780015,9.198146873518656,0.5144602699376193,-0.9495430573726867,0.29284814908030604,719.4568466832951,384.1393364206465,642.7053800615081,walk
18.080133555926544,-0.5757743666593103,-0.28505443030101874,8.958706850864457,0.19538618118582524,0.03508371108795033,0.9562603424280679,654.5427148617292,366.76663626988034,644.611107915215,walk
18.130217028380635,-0.6700722190142636,-0.5526899346138863,9.57833715895881,1.1035085959860078,-0.29147379258698597,0.4078038439029713,687.6838858903993,390.45806657091566,618.3230654639513,walk
18.180300500834726,-0.4292373520089245,-0.1489431919435002,9.579961028275635,0.013354131638287154,0.4300407497721195,0.20029832205656956,647.4075090624348,406.60821753015995,602.4616408670951,walk
18.230383973288816,-0.3023008588365389,-0.2039958959445133,9.997456291695213,0.17023278031965444,0.3817514935749068,0.21782696799980628,667.27837948887,348.6105485044999,575.6713711581717,walk
18.280467445742904,0.0032880069869300893,0.10736945261113115,10.161355081854273,1.8992778208071512,-0.16736102917829576,0.4439676539877181,704.5220188502822,333.6740622152117,567.7208762794787,walk
18.330550918196995,0.1442051609950616,0.10360497765847382,10.686404938214121,-0.19531243651231722,-0.17892425784854388,-1.0539445993420744,663.7226472505318,357.6790429769565,546.4004245992567,walk
18.380634390651085,0.434610562703946,0.3379759297994982,10.521783085479356,0.2425596168181383,-0.058217161441669454,-2.0510003943025406,672.4456092453675,335.7910749232187,547.3085298508367,walk
18.430717863105176,0.5978230580194401,-0.08122605389193976,10.469171042384547,-0.30139418288733766,0.5518176671047299,-0.6579844220626332,694.885534681135,310.7546151065485,562.3684388963555,walk
18.480801335559267,0.8824057972859761,0.14624640086326585,10.773103034543093,-0.4586674955253483,0.06152897825352303,0.6278052028822927,621.4222287477453,388.862731577289,609.8808593131329,walk
18.530884808013354,0.7639007828639587,0.479228369765679,10.268750151521893,-0.1124036540694934,-0.22648309194705654,-0.13898466760508027,708.2204322201708,337.3338046006343,598.6257924688817,walk
18.580968280467445,0.738663465008422,0.24655337887284084,10.063552672253584,-0.2514485110181731,0.8357610327793116,-0.177638314503693,705.7727230750062,326.8153736387634,597.0866018192979,walk
18.631051752921536,0.6157073006727087,0.041982376968446686,9.923850721899433,0.5586119395087347,-0.6953482272876874,-0.32381984013834647,662.1087091036482,360.49165951675076,666.4864439626128,walk
18.681135225375627,0.1787310220771018,-0.11544841340076994,9.753896415443263,-0.9478974734161959,-1.1147032930059688,0.19477183123050407,689.0752136792446,394.7848141468732,649.0393382808533,walk
18.731218697829718,0.278829659689411,-0.28140871702516934,9.420529290907092,0.23583231302097135,-0.35978670209281116,-0.5698168015996709,629.6942163134222,464.10511718311386,600.514716147533,walk
18.781302170283805,-0.04225256500606252,-0.015207302154124025,8.996831122145414,0.6028860800233592,0.8405045368386233,0.3686397514674834,747.7670998938282,340.23076713459056,662.2191769686272,walk
18.831385642737896,-0.08135540271299775,-0.34742102416690546,9.133030033674594,-1.1982865018941722,-0.02231058154562431,-1.4334064822225059,654.6613726170247,402.16789366862974,668.5549827434289,walk
18.881469115191987,-0.7529376615778286,-0.381535329864688,9.047780985849993,-0.9582547538566362,0.19991241376939017,0.3882988300152857,693.7096423791518,338.95362438982164,643.4213015420581,walk
18.931552587646078,-0.5738960814717065,-0.21528012120025378,9.074036751825023,0.583191153795631,0.5555563494539856,0.7148133126656601,688.0996400961187,329.9460428332446,696.0053824683084,walk
18.98163606010017,-0.39487827039916096,-0.27834504742053073,9.207795904453263,-0.9621798518324589,1.4703273702212376,0.32231079860766215,733.7516554254582,350.00609931439124,631.1622412264315,walk
19.03171953255426,-0.3616074433022175,-0.14419926631709015,9.91260326739958,-1.2460249253263156,-0.8738113430573897,-0.4475920428805596,760.0492639940564,436.8654123086309,525.7442994595638,walk
19.081803005008346,-0.1571003189176533,0.1057516256440394,9.778239624365014,-0.9517794639937934,0.8736703024700408,0.7421249720015757,739.2253552380851,387.3936073032268,638.42257601466,walk
19.131886477462437,-0.10763375876683716,0.10765877499909943,10.245077351992922,-0.4643068697723482,-1.0272364391282445,-0.3760745460448293,699.1466138812151,353.0378620870223,631.3132536226516,walk
19.181969949916528,0.23954451587047465,0.22277472427480877,10.47629958025871,1.3214476951025385,0.08066375413362621,-0.3942462245534037,699.1108231998815,409.80403439414664,657.8152808730291,walk
19.23205342237062,0.2086471716818587,0.47908019773343463,10.594673766670812,-1.2607781429202771,1.2068590104103638,0.17720924679171862,753.6015854302165,409.8807581943547,614.8726124864997,walk
19.28213689482471,0.636574246202026,0.3216994816958789,10.870724834447206,-0.4098229712991297,0.26723073385452645,-0.39963143641177007,597.7608908817818,461.57223882266226,614.9190513099103,walk
19.332220367278797,0.5650084655419022,0.16384586939598372,10.648716949532627,-1.7212436032129177,-0.28194776254482107,-0.10119320239993138,668.0891735757515,337.2175981242213,633.8458445658364,walk
19.382303839732888,0.6355207127542507,0.22238746522043606,10.505420429963774,-0.02337682938318629,-0.17291473528962847,-0.15411537412606982,610.5254649125352,372.8306461634954,570.5566694832646,walk
19.43238731218698,0.5816871522668619,0.32567413781220256,10.28483195519959,-0.7519684863399346,0.2154745488207561,0.6654938799789244,650.1395043960547,382.07258498220546,662.010506183502,walk
19.48247078464107,0.772576796529891,0.13364982381098656,9.794467184634117,-0.8275685950835465,-0.30731377772306573,0.5828711875196224,606.9522112715117,423.4378396664208,684.8739343546332,walk
19.53255425709516,0.3319379183031661,0.16265822353705298,9.640823681330147,0.44008478323645867,-0.2407931299138872,-0.0316192088432288,667.6387026094052,396.9743064965361,678.1040555583445,walk
19.582637729549248,0.13138004673691567,-0.08705700848085388,9.383567220244075,-0.42826053989518953,-0.48255847476156727,1.1473215881097856,610.9809000033819,368.8759624585061,599.1267411024617,walk
19.63272120200334,-0.34259220618764835,-0.31275415806406703,9.659462932311396,0.785120107619525,0.37691797546017086,0.27957734022874486,608.5161407139744,428.70239493418364,585.1698623643122,walk
19.68280467445743,-0.46414328448861425,-0.6064707347156342,9.196777154256328,-0.09581672227382453,0.04293063766494775,0.7345651474253604,725.7857246685118,375.68021873030824,604.7649135532461,walk
19.73288814691152,-0.4888194908004962,-0.5930660037166151,9.052580187075943,0.3124634942914954,0.26201465744781277,0.8906585053516155,692.5357735052498,402.5463631157911,656.2407763061724,walk
19.78297161936561,-0.8264960872075018,-0.22997281538085942,9.307162995009051,1.0882284426384805,-1.0578135842169492,1.2998843943684462,556.2710470822761,372.929166217996,604.0437352685677,walk
19.8330550918197,-0.5120336303361903,-0.4242298032836867,9.61125805791787,-1.0530849101275452,-0.6293642991734661,0.48353649018855643,698.9789464584098,366.6298238229621,645.9560618836887,walk
19.88313856427379,-0.27058178473700883,-0.7458019712324009,9.803724937314323,0.08688654946647754,0.41637608415159266,0.3357137952682653,682.8416033123048,313.9752988223531,598.5048651919402,walk
19.93322203672788,-0.5077230370494901,-0.15777265862959086,10.144905855718777,0.675567805840681,0.1210267103591357,0.057975986876960255,690.9180016150572,410.4533592152462,660.1806884236934,walk
19.98330550918197,0.018014079363056837,0.04163264339403833,10.794598865575137,0.14733706645673975,-0.28120024451131204,-0.18133155834563527,571.7147815452824,370.04413423633554,622.465301736784,walk
20.03338898163606,0.36541781175606974,0.17393470755780704,10.857136693103831,0.06030678623710927,0.5523219765928353,-0.33345166764365197,677.3857427739758,377.7276813468197,659.6838653126372,walk
20.08347245409015,0.5814142523174282,0.15507284535689572,10.579990418738912,0.2246785952932751,1.0264472399083069,0.23548693527914702,682.1309415809618,436.721055895207,633.470221106252,walk
20.13355592654424,0.7338311698749217,0.3099599178702989,10.85276584299219,-0.5305751542813222,-0.4318795075688755,0.061879428015507915,668.7217468811511,363.99616984068234,597.3031887894374,walk
20.18363939899833,0.6904703606481793,0.17608884017527984,10.72548181712324,0.2113389201987344,-1.7134424848998189,0.4493423071023126,646.6347340416925,432.30018679353066,620.2114785045958,walk
20.23372287145242,0.5098351270466119,0.35248464519970035,10.129296767625846,0.30317492230978693,-0.950697698177491,0.05567318645461086,703.5629889304522,318.7021112139012,606.7550626179927,walk
20.283806343906512,0.6473158878119093,0.12914060625395085,10.103138645907098,0.8651282759213823,0.9313258002551126,-0.7862665915148248,795.8095387568154,297.3980037092232,706.5102609492196,walk
20.3338898163606,0.3596077642823739,0.013799123108787809,9.974887646481468,0.398280582594913,-0.2904616157474489,0.1535163936689765,658.187493666422,374.7243909142826,674.1470024867783,walk
20.38397328881469,0.23716708752842114,-0.13547239355390778,9.469109223875643,-0.3086524026038351,-0.12763194435050274,-1.1347482248146248,713.1565311266651,402.39238161315524,638.6726487580272,walk
20.43405676126878,0.14440681834564395,-0.19083712343440923,9.327835547197004,0.3020051565401531,-0.07392972806113321,-0.6570950033310062,701.9112512958892,422.17531244267997,634.3205599299112,walk
20.484140233722872,-0.372833471173969,-0.40850426319367616,9.454872591447105,0.5845500712912794,-0.41904555302058505,0.29773067351790683,735.3116117129288,399.4734179575623,621.7330777661406,walk
20.534223706176963,-0.39905050604767434,-0.3323945882293606,9.023475162708374,1.1113517116448397,1.2276306658569707,-0.5728929532838943,684.1758810373843,361.0297641988411,614.8286701145271,walk
20.584307178631054,-0.43525892632455127,-0.3093224839949862,9.369150802149695,0.20567580661589668,0.7234374291755415,0.04586228454323063,745.4690134888101,421.87781228390185,678.3103170331167,walk
20.63439065108514,-0.553644090976288,-0.31137976802183703,9.382347494341717,0.49582664398586357,0.08428595091706559,-0.267859229560753,598.2054805130192,424.47921528047107,649.1543803879275,walk
20.684474123539232,-0.30177706394057197,-0.42458738432939175,9.572369799968554,0.4131307625307615,-1.533475120931551,-1.022217702954199,625.8847044911039,348.0990199343125,619.7036521354172,walk
20.734557595993323,-0.44052492504666924,-0.26865347200909906,9.846812101274073,0.538599538356013,-1.1674129219471954,-0.4921527357423537,756.6689427829782,417.416937455145,637.9047385551535,walk
20.784641068447414,-0.5691291617504227,0.17260147085948063,10.128332116899452,-1.0378996599752568,0.44361538205090234,-1.0415185480524969,670.3349612540228,483.8201865030022,618.8865520495929,walk
20.834724540901504,0.04693590498924992,0.12490732548507022,10.316707460759993,0.9326210462018764,0.8548782556754078,-0.3992679033493259,624.1679055911712,386.0922039954299,567.9581365403335,walk
20.884808013355592,0.462042171908544,0.3795752459876,10.431964840039702,-0.4218106839979282,-0.12589199689772168,0.18443509946606362,730.4113174133539,351.08618997428874,585.533845652023,walk
20.934891485809683,0.5339414816067926,0.24892520779987604,10.666889721252844,0.8029996549591929,0.6344187479643348,0.17469940247299218,704.0976827293542,337.78637954792754,602.7198010066439,walk
20.984974958263773,0.8143539443439305,0.49464560651618833,10.330735602220528,-0.039660841643897604,0.11945513336729492,-0.7490971394211561,653.0657492529607,434.7732282456907,656.307792937197,walk
21.035058430717864,0.4032235999251282,0.18745528150043989,10.285727419244866,0.20806757336285978,-0.12464592306455108,-0.20666702665601364,730.9335692313342,400.16607543763126,633.6362732371036,walk
21.085141903171955,0.5788810558116656,0.44382860783305605,10.428310502738041,0.06725774605623369,0.8447891504077949,1.4461974712375547,664.4196640365103,409.5945775336428,661.2640586313009,walk
21.135225375626042,0.7391543189249368,0.1850236802952686,9.752244549936856,-0.10733907816070494,-0.7662553935364603,-0.08523107638900343,679.9881343219735,291.4478424208566,596.6507228419065,walk
21.185308848080133,0.4304813716026956,-0.05214967135363391,9.776209185303138,-1.690659477686779,-0.456841575437945,0.3970107396015307,644.6369296126767,415.7789264353916,604.1776982274561,walk
21.235392320534224,0.29438396783185133,-0.38656980433605564,9.437557620580426,-0.44424969509376355,-0.7134810979518325,0.1523926694400367,687.2145713090978,324.1455324983093,616.3342713990149,walk
21.285475792988315,-0.18397923714671333,-0.5187575234275104,9.360303960145078,-0.35049530546952856,-0.331581200761822,-0.2650241098012218,711.3208808100503,416.3841995432282,531.7324041740143,walk
21.335559265442406,-0.4171553130084714,-0.40213840790130917,9.102470403785015,-0.05848138709527163,0.17018930111549146,-0.30591410988172135,687.4047501083799,344.02014375690845,633.8696510138035,walk
21.385642737896493,-0.2073310740771364,-0.59624824612483,9.226100341303965,-0.7427086153181054,-0.9893068713509452,-1.0314936935561094,733.2141874064263,398.2545609696881,641.6803898442215,walk
21.435726210350584,-0.7629672385455616,-0.7777815610939784,9.264450590733535,-0.5816205692525673,0.6128632188370441,-0.25760053777446884,632.6484889723532,439.82000129798814,594.7978317056095,walk
21.485809682804675,-0.686091614056919,-0.18245928549503812,9.503748142683978,-0.7115715810534404,0.4882123813695305,-0.8213822685973305,661.1350815594427,389.1562843122429,568.3224805347411,walk
21.535893155258766,-0.494479968687725,-0.16515890547898868,9.92456289241015,-1.6770677765065394,0.32084336597924773,0.44728960490660213,674.9617002371231,438.5164873691948,576.1636187163108,walk
21.585976627712856,-0.19188853557363222,0.0791200544939677,10.21604020917334,0.8369623774497096,-0.6934826395797434,-1.156428750319396,711.2834397690359,370.24379144710736,598.0141705525425,walk
21.636060100166944,-0.40423393716069705,0.03255732705929226,10.099209489688079,-0.45960954263322185,1.0327007315606518,0.020491671949721645,711.2733997159125,399.5555583983461,617.9354199176063,walk
21.686143572621035,0.29683013216326876,0.013357881175436265,10.436022052168585,-0.7008470630927343,0.6399692650831244,0.6968211893079693,645.0407358281075,332.64606503390297,651.890632602378,walk
21.736227045075125,0.4876737810373582,0.35744361569774713,10.811639274424204,0.4821339778457152,-1.0870552373910527,-0.48896537176232946,678.8981171997159,399.8077921697117,675.709879987418,walk
21.786310517529216,0.7367495438535627,0.29058885405057017,10.731544626555655,1.2558507568372776,-0.6339099626508983,0.8143257727434675,726.1703914572727,412.7064103153212,660.4515147116637,walk
21.836393989983307,0.7063779762304717,0.44516372699765433,10.649791912627702,-0.7894568637413425,-0.4410686016663232,0.8462119364760475,726.9517910911401,430.45995368547733,679.7477561901034,walk
21.886477462437398,0.7058931293458982,0.4195655076908656,10.387220132857896,0.43018374559628064,-0.05494414540301447,0.05675600969917153,647.9780020641911,385.9039438909889,565.4469431255484,walk
21.936560934891485,0.6456401990487058,-0.20115655676381844,10.36849410443419,1.070112654128067,0.5589376117590147,-0.8246094905937406,649.8214506512387,383.85564826013467,638.2973957160636,walk
21.986644407345576,0.5006796295466036,0.1721123244965575,10.049423609336682,0.13745762875025758,-0.0902523826701891,0.5750533597182912,611.2102470062706,386.4931542519242,616.7331993094709,walk
22.036727879799667,0.38512649648657254,-0.05707178724226404,9.644819046634431,0.7494637692116561,-0.7299703952399914,0.7898787824545841,708.1437019727786,404.81246941438417,591.0323542028761,walk
22.086811352253758,0.21294481753110384,-0.15051317809758927,9.231378381133215,0.5115693711695519,0.6938817632022338,-0.5604336225501323,664.9141343763935,419.45516431126305,663.0545273733944,walk
22.13689482470785,-0.13992627232557842,-0.2914828311869367,8.959646466451082,-1.7296455147131338,0.8510331064280258,-0.016887338371286083,633.0643769488712,367.0954436365037,598.9872223199035,walk
22.186978297161936,-0.6022848692399184,-0.38804116539456124,9.015494801330853,1.8871059235743854,-1.2871560778789748,-0.023609953764650308,709.1919117195704,400.65480248170263,668.403932977122,walk
22.237061769616027,-0.4661282197492616,-0.46956393151137343,9.153813392016172,-0.2549284300294547,-0.3903961877901578,-0.26254453217862134,690.9282059575324,395.0177127171556,574.8389911925904,walk
22.287145242070117,-0.5227997545199449,-0.40807195696015114,9.425598024802262,-0.7053677604454599,0.6221887697138705,-0.06418518895835011,697.6729792315809,324.8485285440759,726.4512136039984,walk
22.33722871452421,-0.5510353829379365,-0.32603785295722226,9.726288436579562,0.10365323564764795,-0.5412398565559378,0.09259002506786775,746.2387207713525,447.67698822968316,634.7346853107435,walk
22.3873121869783,-0.28877322548259365,-0.21502755552824865,9.662540748156932,-0.11459162057483992,-0.1835851807112435,-0.6148705036566102,689.5759240580024,418.0832312841017,647.26227090216,walk
22.437395659432386,-0.21479209414735184,-0.3550459328334838,10.04003209835759,0.45080418698353,1.5985020072741014,1.019012536938278,701.3317669685074,356.36024160790186,654.1252088114118,walk
22.487479131886477,-0.0564922256497037,-0.040744197095659324,10.452635630186947,0.8549143404763138,0.4798580813425228,-1.1263272754382705,636.1207882382433,368.9674066200356,632.146562397375,walk
22.537562604340568,-0.18196931875363226,0.17862738721022303,10.80486145045041,-0.16741256952033165,0.010951343348959888,1.6353215943188084,674.5754620069713,373.2238096653451,610.9056479681376,walk
22.58764607679466,0.7198499042394572,0.2996200937263161,10.59755536463642,-0.4640082210762215,1.165985564693206,0.22721299131350164,617.5793339803988,389.7984528582453,549.2085649607625,walk
22.63772954924875,0.4719379552665972,0.26848662116024197,10.635213401487627,0.995626593711969,0.774312618391676,-1.3294313909390802,648.0451141101775,388.21302760363443,658.3836947841324,walk
22.687813021702837,0.24522841583929428,0.3242752934832318,10.60845858811243,-1.3273413521289206,-0.7095261360805422,-0.008157567139300438,632.3393669837271,374.6419487195223,568.5838381348968,walk
22.737896494156928,0.37498440976522,0.29215561213703817,10.20231297927884,-1.0252192203772688,-0.010349074286896869,-1.7864493683112488,613.8988101213263,445.7160187086196,553.5948159347176,walk
22.78797996661102,0.44638825277347766,0.028832485630676502,10.209306037448195,-0.12487470513619224,-0.25561845590485094,-1.639421928643918,783.5518637872763,387.3573347073828,596.8221792809749,walk
22.83806343906511,0.5102351464825734,0.22723926867695243,10.092053368043288,-0.6305144438836171,-0.6528611342584352,0.30479883563152216,691.4494264469595,384.3461075895221,662.1067362429282,walk
22.8881469115192,0.364686787281183,-0.14176559057472507,9.402412103920105,-0.07999743209490885,-1.0342685455090062,-0.4032425649375568,628.6231209042421,343.74033239436625,589.3433988874731,walk
22.938230383973288,-0.09532096333942493,-0.34971820317821006,9.553364357656287,-0.7443937899815172,-1.2079436624115663,0.8706177198362363,681.4155524741115,375.03074883753,585.26008887901,walk
22.98831385642738,-0.338227241518716,-0.7434661506312099,9.358667122231305,-0.5706966732680773,-0.565254796549035,-0.44135284938822517,684.3958570866563,338.49361550091555,623.2537734855955,walk
23.03839732888147,-0.48537600174030376,-0.026882040622644654,9.002376189992251,-1.23983486260603,0.5008927894197955,1.6119984487158638,674.52407257135,401.09586904010774,638.2360155579029,walk
23.08848080133556,-0.690853929351032,-0.17208141915444797,9.212422033718138,-0.5814984198836398,0.5426033133772394,-0.34966474381394985,657.1262967713421,409.2563184388606,633.9438263292127,walk
23.13856427378965,-0.6181036989681159,-0.45449392760921037,9.72340430678559,0.21963823489903653,1.2290205829172078,1.1597313870963462,631.5924937013021,358.30883017944547,605.7831912960019,walk
23.18864774624374,-0.3763642427867203,-0.13111780181304566,9.639056157402042,0.3105078993584965,-0.9816472785968055,-0.906484870787301,729.4073229619995,349.73460874750043,599.6549411060679,walk
23.23873121869783,-0.28776054107087007,-0.17186426956960965,10.215179932945473,0.3068088845529718,0.4568063346853631,-0.03020780181512269,716.9796896870444,395.1621109487877,646.7752763254496,walk
23.28881469115192,-0.0027519385589611506,0.2623728419667611,10.197872212352717,-0.7628689339696142,-1.5430345727945303,0.6280260010547921,679.3515687933927,339.64224841041033,620.4009680623428,walk
23.33889816360601,0.035292869272941826,-0.03443869332179891,10.541789289186424,0.7975758778731039,-0.5213961445850547,0.8025668365759162,669.0898666005128,400.7267124922277,658.6261069668084,walk
23.3889816360601,0.6596789293742822,0.15196479225925075,10.746657953483746,0.6518562107992204,-0.4078195436751373,0.08711146110662679,701.3587031442349,428.3372613196695,609.5333080772849,walk
23.439065108514193,0.6546673819303732,0.28212842671813815,10.790011770269404,-0.5747933937056955,0.23418779625459163,0.06054893021983641,608.8941776211301,384.4919917113798,669.7148423556717,walk
23.48914858096828,0.678252349021676,0.2923786092954716,10.6568318079176,-0.652906347026029,0.024169111476185945,1.2559810373429707,674.9067938649218,318.55733746076334,651.4567930547242,walk
23.53923205342237,0.7159550634220601,0.4213229433810391,10.828489395056726,-0.25297435298754734,-0.2856228881272279,-0.05474272340435595,713.8262534938126,404.7080291839877,678.2534556200575,walk
23.58931552587646,0.6977848350327261,0.12424063814651959,10.248054881660776,0.512256031123686,0.23003524640073636,-0.32783615831204016,724.9370925346367,414.8692199010999,638.6266320757021,walk
23.639398998330552,0.6852260322604263,0.25624369265428665,10.016159734074456,0.5997371673619929,-0.6021109383645883,-0.7128761743843943,685.8234792011966,408.6119268771942,606.5137818749299,walk
23.689482470784643,0.39366778909964734,0.03959156886564151,9.680098480240163,-0.012367721099093919,-0.41157730795804803,-0.3188637937808207,756.2956408661345,356.1520302259347,648.0603401453739,walk
23.73956594323873,0.07403567946592077,0.09475376922421283,9.521385122821208,0.5418622386707316,-1.1771744208107666,-0.23505488133349878,638.9904779800381,345.7889931336401,619.5386483525003,walk
23.78964941569282,0.028267374492802144,-0.24890302091990868,9.340221384751576,-0.8038245420972125,-0.2274000558596257,-0.15548426774052038,617.0782141514834,375.77107037253194,558.5306484286191,walk
23.839732888146912,-0.33669262162340685,-0.5151595318310056,8.99644636732148,1.6407485879470163,0.8707046534235886,-1.1235126011562322,675.255726351058,351.5733321098233,621.0496069130973,walk
23.889816360601003,-0.3369749901104969,-0.763562569529959,9.11775563301196,-0.32873633223766136,0.0644554609757453,0.718633209367386,662.2582684869,376.46826888431065,657.827137135625,walk
23.939899833055094,-0.1731036755964388,-0.4961275212953105,9.21287273147414,-0.07198151816237978,-1.0170882199456968,-0.15853256695206766,603.1261225012893,501.4675989386751,594.2687847398627,walk
23.98998330550918,-0.35923123226179127,-0.3286036908002798,9.242213641020841,0.5845799965621941,-0.2083512981811789,0.2955030139293559,738.8826935719828,338.0808726661263,660.4258524237005,walk
24.040066777963272,-0.20897663302314834,-0.023043091290122886,9.841814839847563,0.30008004218359263,0.6799906103511707,-0.8171395038986337,692.1557548143785,421.8270637908202,645.7868594988884,walk
24.090150250417363,-0.171811051572007,-0.14081752228488367,10.435015931967072,-0.5928608009364581,0.20483612304640084,0.4633790926383627,681.6058909170368,326.55341635901374,667.1996098182747,walk
24.140233722871454,0.17774440345936005,0.02514390785490539,10.390685275378184,-0.21234310117950334,-0.9294781343532487,-0.1795766242475369,613.8814025096516,355.2057961359933,628.0513040210085,walk
24.190317195325544,0.24637029270540722,0.15238595668606308,10.788720085078086,-0.4823842018546194,0.5189195691096893,-0.0953354323678202,707.2772253495267,330.7815089765941,679.4089281839275,walk
24.24040066777963,0.44242748798247117,0.24116150007506443,10.399459272997193,-0.07549850651938436,0.22077535133651907,1.3613276589870322,667.6001760151627,435.6030762147069,623.6233942507803,walk
24.290484140233723,0.4702863592812708,0.26379723128332033,10.788908594937805,-0.029553667359166185,0.7499785799626183,-0.6528881975862049,691.2568895281663,352.274431154611,574.8958640320884,walk
24.340567612687813,0.8659596813155638,0.27041587320387106,10.510687116315237,0.24022930401216,1.4254630992133945,-0.36610678361290444,744.3954015901702,328.1164201131531,637.5375683868037,walk
24.390651085141904,0.9715031436383964,0.45921701381446417,10.251278386099887,-1.0677595573072796,1.0876599319673237,-1.1490985130666411,648.4334380547818,426.1289748960183,630.4793302263737,walk
24.440734557595995,0.4865612523119474,0.2525205651159856,10.269354017575317,-0.6885094470154162,0.0376942372477269,-0.5439124304212353,750.863415607646,416.99179767323744,612.2421277483973,walk
24.490818030050082,0.6105939045489382,0.03925880555399,9.745154864408182,-0.8714697815279834,0.8217447170027212,0.07334124742340055,759.8721656343306,343.3915862939329,643.6478482526693,walk
24.540901502504173,0.4731326037147067,-0.16258178991283956,9.550620179953912,-0.925656243511308,-1.5033100945212008,0.7479773334750004,694.5534730294935,378.85114893270196,610.7809825847812,walk
24.590984974958264,-0.02390649434218127,-0.45860937130603724,9.140633715194413,0.521289477960526,-0.5966297069245141,0.8408164657529278,814.4979007510005,374.03011680252683,574.3604448840448,walk
24.641068447412355,-0.39217202229922127,-0.4829651336346874,9.066287819211114,-0.49663722194781856,0.004384791084160604,0.026693728923830116,710.6272920961928,375.93551922427554,683.5995063682614,walk
24.691151919866446,-0.29878632163351077,-0.5219384849201787,8.889672120809195,0.2770542065815092,0.1451342698895037,0.3353325082852248,676.5974513464944,405.56031373481227,624.0307843859415,walk
24.741235392320533,-0.6908197100458994,-0.500008550236497,9.195742040605916,0.7889319101922817,0.4964576811418015,-0.09894523134536137,659.1481489711447,373.09048506985425,675.9191878089106,walk
24.791318864774624,-0.7654514039633381,-0.3770612268583219,9.46894812070976,-0.161659263310799,-0.020523364699950572,-0.5758506887253511,679.9192082319771,389.42319293690764,607.0662652788378,walk
24.841402337228715,-0.5550064399955655,-0.1301249519770825,9.729342295420306,-1.2853841102075219,0.5861016214118479,-0.22227223842809596,740.0787812404947,342.5006176086441,529.9180524901309,walk
24.891485809682806,-0.3033833455713329,-0.43161626210227394,9.805313517932053,0.28182844721887657,0.08197278844803739,0.8860252237378461,647.2234621081308,349.78245265768936,609.6737945587814,walk
24.941569282136896,0.09370077610580084,0.05305349433032486,10.183163565062827,0.4394482112219031,0.21073394266624212,-0.8434362752209991,665.9674801501599,395.1384760792836,671.0901438829618,walk
24.991652754590987,0.0438518092913609,-0.09083738944735811,10.43768933873421,0.596911309993091,0.05605482993493894,0.3373416487009574,685.8677999774521,470.945739858911,611.7965828165462,walk
25.041736227045075,-0.04297825424055422,0.3941822645513836,10.845822330829971,0.6444264111219807,-1.2867772824724197,-0.09251209465648141,664.8101465647763,371.11266507523646,629.9866625795975,walk
25.091819699499165,0.542219378484982,0.40467197299541396,10.854923453633088,-0.8867842234005127,-0.07514602000178129,-1.2610944713826213,661.4464841698074,400.7829297913941,639.5114510442306,walk
25.141903171953256,0.7698091658787871,0.15788719213354965,10.682566696233579,-0.8549346044477861,0.6115790163392844,0.5040349928800446,615.2871719209531,355.85215568781786,674.2352472434029,walk
25.191986644407347,0.6429596140849946,0.2187595985772905,10.512590298106865,-0.6290541614802159,-0.12980726492210587,0.6974346474591983,587.5497909155933,394.52916962973853,554.3021965207358,walk
25.242070116861438,0.38375181729722696,0.31998691337886237,10.479213076081951,0.8229398659500421,0.4957190060959477,-0.2955752140192055,601.2305778571488,408.8004770035541,611.601413091411,walk
25.292153589315525,0.49166176089647246,0.4499381407697734,9.887947302633643,0.08831149162928244,0.4681317048116519,-1.0091496926573935,692.3030064198838,407.30577924736593,600.8262169029297,walk
25.342237061769616,0.5203233680836374,-0.3113192438724636,9.630436801196659,-0.12172143706515416,0.4772160127413042,-0.1464276602758741,748.4801322600962,417.9910647263183,639.64306061146,walk
25.392320534223707,0.2831544285220793,0.08085570399230163,9.355610509262899,-0.08330195770694557,0.7633586521421606,0.7259688974840702,735.4849045031498,362.3717770472919,603.9084579658428,walk
25.442404006677798,-0.23686381600348688,-0.5249498771723318,9.289636159422686,0.00904743213247392,0.49494721048467627,0.6478456996987096,610.1726332760902,417.96464867186205,636.1963027916835,walk
25.49248747913189,-0.4397767662200612,-0.5630639972903975,9.516783476253993,0.25347016964492813,-0.3712655048283297,-1.030870589619947,697.7381083880144,362.35003788986944,619.0267964896682,walk
25.542570951585976,-0.613839709988597,-0.4243090572798069,9.094331548603922,-0.21709193910609437,-0.11146908024641793,-1.7922257055771356,633.5361694245723,318.60785953118847,591.9323190507293,walk
25.592654424040067,-0.5809578676196394,-0.353698964518138,9.26811089598511,-0.3235155886520506,0.5096586418832394,0.5289749365590015,657.4908142914367,329.97776727115325,581.0059704181613,walk
25.642737896494157,-0.5842166187360859,-0.2241391945131148,9.437739312941828,0.1620941332818643,-0.8512327168757976,1.5275286825142589,670.5754804029299,372.43052369130993,603.482576346727,walk
25.69282136894825,-0.5584595274885379,-0.36745028042091776,9.652092570029655,-0.017748064596945702,0.2910231523020677,-0.28277719341935637,700.759410283424,453.2374305961205,621.3396723381154,walk
25.74290484140234,-0.3453054293563713,-0.2663862140593847,9.696018635075875,0.05770966254880673,-0.5684657503624478,-0.8940755429199123,614.2801999573347,333.0676124464079,675.5715038743182,walk
25.792988313856426,-0.09294836907496963,-0.16293947182977989,9.954502571329181,0.3239929628318789,-0.40319729135081067,-0.5885024828094921,569.6164295852747,372.9272608576435,569.4561565704109,walk
25.843071786310517,-0.07854887030826953,0.0754587493270332,10.766187714696299,-0.20186723206318227,-0.9149332706813417,0.6041394093670552,676.202237317468,443.0857778013295,579.6346724208045,walk
25.893155258764608,0.4344627258073772,0.2969120306202967,10.817617708383011,0.5633254209682212,-0.028642816724093655,0.2292042796493737,703.3696052613553,399.8997190110403,647.5272885741058,walk
25.9432387312187,0.44588613072750605,0.46304324402000957,10.586247537082528,-1.2155272152660739,0.002820492060721015,0.8103015411755159,590.8355467126216,429.7821117193677,650.5257222680672,walk
25.99332220367279,0.7467187882700127,0.38502421259571623,10.726655167862312,-0.11262723275556344,1.146537081104184,1.1196943816796545,629.3033694093851,394.8798143329487,593.4898266906782,walk
26.043405676126877,0.7517823362157523,0.2330232384591257,10.459461601893574,0.41706955183851924,-0.47000295320420343,0.2580714288474603,598.691008699974,320.51342737196313,547.1432918068167,walk
26.093489148580968,0.6883887365447168,-0.045795746421882055,10.459295365112562,-1.1066327896604544,-0.5885629658748366,0.11697735343130541,699.0646141421237,335.1581683049065,643.9851288340767,walk
26.14357262103506,0.3611552247881457,-0.07756962718345109,9.682218729098635,-0.021446579796998863,0.719552427985745,0.6327250682353446,701.0262668195166,392.1056434778,556.8640285778495,walk
26.19365609348915,0.3690221850368166,0.14404364834801175,9.668132515331875,1.0445237910255483,1.3392081361363672,-0.47608602671695244,602.8574198631936,346.83377852721236,559.3172474604957,walk
26.24373956594324,0.1700145207432523,-0.09058546719394432,9.246851546254582,0.32138099971263184,0.2016798799292885,-0.0681252834091196,624.6981973506046,330.578429239355,626.21523515221,walk
26.293823038397328,-0.14784944675455775,-0.18133460114948757,9.104477336845992,0.5858346623446071,0.5293712239052614,0.48780822567221366,796.9504119840675,363.2040000895304,646.9752804005777,walk
26.34390651085142,-0.2782557582585183,-0.38931631217933715,9.262879783140036,0.39559037703498257,-0.8551651487636343,0.7254821563239781,700.4525728038478,419.76323873525064,600.9669051325566,walk
26.39398998330551,-0.5909937531222728,-0.3480396087850579,9.005673275871864,0.7414825429356896,0.5080962571229323,0.48500893786125254,677.6353991412211,372.8825439810097,708.8442136818394,walk
26.4440734557596,-0.49646324867048836,-0.555299075696829,9.475465592796207,0.044198612803565386,0.48129459024538257,-0.7327927103078489,748.4893840520114,333.11117831072795,609.0282069472522,walk
26.49415692821369,-0.28004424711466214,-0.4298963320976049,9.445896284421615,-0.7622468427430292,0.5769603964003713,-0.9765505603701307,670.6503105042397,385.45843276341714,646.3515885212037,walk
26.544240400667782,-0.40822479630057484,-0.21770204669745757,9.966396003215138,0.23170264419175524,0.6760319649600884,-1.0202117433560747,686.6198447640639,330.0176553930799,559.0252609711741,walk
26.59432387312187,-0.1891370537732192,-0.07377977129760258,10.14331381703951,-0.8114696762390088,-0.34626188230303573,0.7841702061565481,688.0999120372703,401.54042396245256,616.9495036987324,walk
26.64440734557596,-0.031354434712709045,-0.24132213863231156,10.26004954766855,0.2923097544232942,0.15135799840820188,0.9843097738756076,717.0028123032735,369.98967020029545,660.6093508267941,walk
26.69449081803005,0.173605795935479,-0.15767307329920036,10.542012937628794,-0.8894392292409191,0.7089287461179273,-0.6014797666752457,669.9095866074117,350.61355389023726,649.4004147467443,walk
26.74457429048414,0.30922609920021393,0.20008116716808205,10.5013360668873,-0.27722871475433364,-0.1739488089224702,-0.32453469696340487,641.1489153823419,411.0089146223849,582.4317018254467,walk
26.794657762938233,0.455837040278815,0.4906314774629839,10.576861461197646,0.2865083781759007,0.8066476245540556,-0.2827115575242226,607.752345065373,310.06276985575283,575.501832047024,walk
26.84474123539232,0.7132164629164629,0.2197130932372039,10.538123263178658,-0.3778446844115348,-0.709760050935588,0.09236080535490342,706.5336664437962,347.8366782634536,617.4265954578864,walk
26.89482470784641,0.6899235825423138,0.330318703810483,10.375395045187618,0.7921717598704274,1.1883097367465005,0.27289048678126954,595.3119244213833,469.7522845423473,590.7919502508042,walk
26.9449081803005,0.4488441907151051,-0.08299219591448734,10.046592886113817,-0.19899597093071686,-0.778205890138856,0.006838578113787809,647.3826047502079,375.9758747439592,615.2022612921427,walk
26.994991652754592,0.5476867018576085,0.07719933258420408,9.7879752324498,-0.25784510084375284,-0.808425744463312,-1.0581476336072622,714.8319287140392,401.64755394784294,683.0886631833741,walk
27.045075125208683,0.2396036154457265,-0.14497402806908066,9.3343890543533,-1.4600848543884133,-0.19003083711677737,0.41303265276358414,722.8135708569087,371.69122436124303,669.4020809569842,walk
27.09515859766277,-0.2532736366819422,-0.48171940214827363,9.127947207313461,0.3043297216411602,-0.16886006233946776,-0.39643968944550284,685.8303795983096,348.76892509044905,583.6473348053717,walk
27.14524207011686,-0.17148045508090898,-0.43933933132848946,9.321714749494642,-0.656462110411104,0.7328021873522411,0.0679139169268488,656.6249844851944,434.8230115380927,640.8004084154364,walk
27.195325542570952,-0.20586253033916746,-0.008475424780763574,9.221078550941465,-0.49274826952087714,0.3962925944867103,0.43454237941980745,661.7012928172732,374.113802160822,672.2189369423766,walk
27.245409015025043,-0.40110005216236777,-0.3112887740486506,9.346434608041749,0.3854591140832014,1.0877402672854657,0.17772033380503563,614.8806517295995,393.7337555888775,562.0916134213658,walk
27.295492487479134,-0.32606802543401026,-0.4338921169546021,9.258186957938221,0.2500643833084955,-0.3027490671117954,0.5781733489309754,695.1007955605613,378.26740080255297,673.1778625185898,walk
27.34557595993322,-0.6741058513776274,-0.5913092106307272,9.5755254571428,-1.0035807954874227,0.24874715169028933,-0.022661494947375675,728.6384496505628,420.0435390345274,610.0567538868528,walk
27.395659432387312,-0.5327346264727015,-0.47111959205957793,9.828118789441252,0.4607087821997843,0.5921320169261359,0.19459639438758408,598.1106668803377,430.6992615266565,599.1733414256485,walk
27.445742904841403,-0.5579691460716122,0.04608746997755245,10.289641751864144,1.2331914762504212,0.9587302459858961,-0.5878413597062314,670.1709603939593,364.7242484567843,607.3424921641703,walk
27.495826377295494,-0.04060494293957824,0.32263420618416994,10.673059865498203,-0.032342926168062135,0.7758790405850393,-1.5475691878685645,704.6886398173988,359.6839714064798,620.1693936413964,walk
27.545909849749584,0.22430607883634007,0.01896230646116953,10.713502606851357,-0.44863651015356587,-0.1359586180373268,0.15613961240449475,727.9297486462793,319.20107937337195,588.329952875275,walk
27.59599332220367,0.2006888270085374,0.09540873120636686,10.67211317277701,1.7525745855851596,0.24197303387762778,0.6621441858889217,732.4692513977541,341.170906642983,623.877914658438,walk
27.646076794657763,0.8193090812964304,0.09486483997915965,10.699405050310672,-0.37120725214083045,0.02146197468845543,0.6008342974661405,660.2184012381686,309.44415135220163,611.492558456154,walk
27.696160267111853,0.8206011728405747,0.020010611769740727,10.655391722087998,0.1242101914642861,0.04607945873057178,0.5036596168132738,681.3706531682905,351.5696065111382,594.9407493658573,walk
27.746243739565944,0.4108719221165649,0.20239851046851332,10.353330161397043,0.3017336058789155,-0.11768291435297971,-0.8511990667639513,679.2633515324682,432.2647601573659,574.3855390808351,walk
27.796327212020035,0.4782918736516866,0.1660737614523164,9.590515488658797,0.20581937490942284,-0.8842717966472247,-0.008452175437194395,692.6146808269721,426.50059133673216,562.3726969513395,walk
27.846410684474122,0.5075805773375384,-0.2353062316024936,9.773504764647086,0.21848509127792382,0.7257230840679407,0.25874280136193967,721.2256549961617,373.9330689141245,588.7829621945682,walk
27.896494156928213,0.3136991171146579,-0.17097926602254965,9.367650479399911,-0.006000006097531824,-0.8641867167135008,-0.6646143533597292,709.0475687881662,455.93983838783856,670.6597659868221,walk
27.946577629382304,0.003375299087073416,-0.5134707509737508,9.1997396793159,-0.1785648655796503,0.012132556681516419,0.3015333263395063,673.5439617352388,453.7910367893571,642.0714437025995,walk
27.996661101836395,-0.19338452034360792,-0.29460596624241164,9.109721437479125,-0.01617230447360191,0.3755536257006066,0.9385634634446646,671.1884528705947,363.20820175126437,641.1383260372794,walk
28.046744574290486,-0.7026673868823013,-0.4835802799882924,8.991844501472913,-0.5051145437886009,-0.41483379807207293,0.5440766915786343,746.3988302599018,397.8474691475035,612.1397440402935,walk
28.096828046744577,-0.3988850112062347,-0.3671966081059402,9.181491051556561,-1.4593022006324343,-0.020240405778912042,0.024616093106798714,679.2240993112458,356.2530110506792,608.5504638832381,walk
28.146911519198664,-0.6403183743715618,-0.24718547593574797,9.451819915870923,-0.04626787688493562,-0.03600047465460591,0.5513545457573272,658.4586459873822,381.6696016622918,613.7703686813345,walk
28.196994991652755,-0.5167055658870662,-0.176313167901802,9.760848059758699,1.0782641103706097,0.866707372062977,-0.7943450901738106,631.9601051597001,392.8358249973076,649.5049236422085,walk
28.247078464106846,-0.0393270623263013,0.0243710158592432,10.013047281093533,-0.6990037023282004,0.5639169287848284,-0.7787797017068541,712.1063804192969,401.20527585418694,661.0741820500406,walk
28.297161936560936,0.010335469110413137,-0.11961654857356183,10.37149536126145,-0.9836921197838833,0.7854214619210083,0.2789686895335384,722.8787067045565,312.5747194491619,648.7900934250688,walk
28.347245409015027,-0.10287357743423962,-0.031141931883190144,10.489874645676686,-0.4507340982319832,1.2665712296545784,0.34613127992962706,658.7748746434279,360.61566730852303,645.2605214594684,walk
28.397328881469114,0.43957738950345093,0.275451120885651,10.398723548382405,-0.9834514564774934,0.7854872896679373,-0.33627781120982125,717.3291760523969,410.23925656281733,529.880292574635,walk
28.447412353923205,0.10050370439906257,0.5939963180872148,10.578391355367181,0.43781171102508265,0.7935384252802834,-0.02155647358839855,593.6870581330966,361.33064425630965,699.7077370300841,walk
28.497495826377296,0.4880421313324563,0.14307675384093518,10.572554119113267,1.7289620607737737,-0.28511013613172037,-0.5430212436887545,649.101072261909,409.2771107080687,633.716866942121,walk
28.547579298831387,0.41618548798010807,0.3623455199705998,10.273045564932787,-1.1903665686152145,0.8454127907084839,1.235426076036534,725.3712160100233,374.1931989316402,601.3937698035945,walk
28.597662771285478,0.5147329670868984,0.2758779710149106,10.309231899900874,-0.14580232886850597,-0.11067510620386456,0.8111296547770369,745.9892175652767,373.7764564497033,682.08886984743,walk
28.647746243739565,0.7214179793578495,0.2364415042091222,9.73294811608957,-0.497433496915625,-1.566815619808602,-0.5773910738412046,675.6158597152489,386.6834552104797,605.1563407888585,walk
28.697829716193656,0.46089385906915165,0.008639599325384037,9.57424881782788,0.6516239912479813,0.13693680949565576,0.3475842841568953,658.0745617552631,363.4998081958846,612.0802153588909,walk
28.747913188647747,-0.13273574821094491,-0.06232486131916454,9.349058162724157,-0.49894594970359013,0.26004919224579615,-1.1750256518007482,652.9814715487805,410.1538890244119,615.8858390131974,walk
28.797996661101838,-0.2858501754878518,-0.26298196506370997,9.140413881657935,0.5831040969479315,-0.0013637088968063101,0.6515744074849666,644.6568382954724,453.331279324448,564.8671768615134,walk
28.84808013355593,-0.4384869150989051,-0.7140120175826496,8.992577467704784,-1.3703459873737731,-0.08498147860091994,-0.030541686929046446,771.2178873403986,379.7520101116844,682.5166144237388,walk
28.898163606010016,-0.44845174361156276,-0.2577439229646335,9.174406885720895,1.9148732587312869,-0.1895868481199304,1.53027857336223,596.3830620616138,348.7098135833443,575.0219847558592,walk
28.948247078464107,-0.3956634841407919,-0.4758458736166388,9.20377300410486,1.6602876923693317,-0.48697183411501666,0.72424278579583,682.6675359889655,344.37886597951405,609.0314735030638,walk
28.998330550918197,-0.3409108733365303,-0.5323852770294843,9.369343818117478,-0.9720297389174117,-1.2306375889818166,-0.4042039872394779,664.1913857244391,384.95207683141604,646.906055195892,walk
29.04841402337229,-0.35046071811458074,-0.11118993208126893,9.890250399667378,0.8195104754368029,0.14812174015110421,0.09326137526646744,668.6801608803189,368.41077639805735,633.6937438604394,walk
29.09849749582638,-0.5536214843020905,-0.18252211216856928,9.589681753335158,-0.002211675855285165,0.6682419094725903,0.8850939244599861,675.0036445918372,338.8747919813998,618.9605304766212,walk
29.148580968280466,-0.08890698315386432,0.004377199357554568,10.212320031988323,-0.702613874249733,0.5181124796260971,-0.7421540305012255,723.1085470408543,369.68488105586437,559.6887490244371,walk
29.198664440734557,0.5383830352311744,0.2994169901826474,10.808126598536607,-1.2586545849470738,0.11786371661967612,1.393601260259702,707.7432395180306,423.33621833728796,568.9984918134376,walk
29.248747913188648,0.25417716178747285,0.5672699631942058,10.790975812410359,0.057592020101329126,0.23224902115437918,0.8423796666037562,683.4427816119966,376.65401200073507,565.6315727084764,walk
29.29883138564274,0.40206832069417353,0.24835486249864608,10.787261578005781,0.8363340734166285,-0.9069968642458323,-0.8230835369476702,674.940078746839,341.8434014029304,641.7519113881558,walk
29.34891485809683,0.3115547580577242,0.25289455911562514,10.65100620699684,-0.4173911598661335,0.4877688103999077,0.7867602251272313,687.5311653386244,427.22696913998783,622.4604691902033,walk
29.398998330550917,0.8790535298805843,0.19997173152425685,10.293954665630723,0.36898792646024525,-0.9276009464674119,0.07191180002976269,728.6340415613117,436.40171712228835,649.3887871680467,walk
29.449081803005008,0.5111141908929481,0.2410533360076751,10.362029644599382,-0.30138000081112526,0.8099980002568788,-0.4371061440623566,678.4876482284991,404.00292921906765,636.4164673753535,walk
29.4991652754591,0.5740964700737169,-0.1773259479835777,9.717649223586989,0.33318243516023754,0.33641109638518896,1.3012187152374148,681.7013690602546,376.89255411309387,619.9280372036636,walk
29.54924874791319,0.12706194428382153,-0.6031485574208908,9.408964235430348,-0.6397716282505144,-0.005633864073820781,0.938144651466577,674.3786541272842,369.532266497921,632.7946875497553,walk
29.59933222036728,0.09537159233905829,-0.27426195430432554,9.132473380375982,0.5623834392141522,0.2544346629844711,-0.15005614933267025,676.0639898886992,373.6860738563355,666.4473082944729,walk
29.64941569282137,-0.1369725461087909,-0.2809734208455234,9.019970731589499,-0.24342756598977258,-0.12679121061248105,-0.14743123217755752,681.143749661531,445.4596245137262,603.9330570484508,walk
29.69949916527546,-0.539496886559029,-0.7050606345312846,9.164627316312853,-0.10696500557058154,-0.9497325263176917,-1.0359201198613865,643.4411530666655,359.38018803837383,685.713074169911,walk
29.74958263772955,-0.4130813119907196,-0.5718788941149049,9.202472217959967,-0.39324911789721795,-0.5937338936117514,-0.012494508062702166,746.3824162576199,455.30784260917153,634.2742444498978,walk
29.79966611018364,-0.449602548254911,-0.3664765256536059,9.560688983905633,-0.2649459471568526,-0.169081289373664,-0.6225288794519911,701.5724284134399,382.59314528927433,627.5185881672578,walk
29.84974958263773,-0.3591308157285365,-0.12658656206023422,9.821822111755504,-1.3152734833563564,-1.6574038708101322,0.6622199870823637,649.4999581880113,361.0689598221145,671.7690091910506,walk
29.899833055091822,-0.04090924393983526,-0.2996826679699828,9.655432679615622,0.36557924771511724,0.09397938552627302,0.36696195181606944,700.3683565326227,320.3798787763803,579.2322086161828,walk
29.94991652754591,-0.182081287103177,0.012950996356753938,10.315814550798315,0.0749440858778188,0.008911454397275868,-0.16596177383411903,689.056884766741,401.7040455520452,665.6117970367459,walk
30.0,-0.13377288458786118,-0.11876101137136452,10.470354227454758,1.1524215941166174,-0.6229306951595055,0.3982504174330997,636.7158217386727,371.67791352940867,624.2694563721183,walk
