timestamp,ax,ay,az,gx,gy,gz,mx,my,mz,label
0.0,0.07824319891047722,-0.08876638057238703,9.963741068594532,-0.10450906356124298,-0.2738549953969637,0.6772163967173116,698.9151670150441,356.78205319694536,588.3628538984775,sit
0.05008347245409015,0.09126814153633778,-0.041237711209556174,9.913200682829437,-0.20394224155387983,0.23809847261716802,-0.12198968461618688,679.0729944671951,448.674021778319,596.1973101643109,sit
0.1001669449081803,0.06999938091760773,-0.03768890237473516,9.922137370700602,-0.4390990451567023,0.2922832060524168,-0.15228138791440402,748.3026510285601,358.7886684694085,555.1290661983704,sit
0.15025041736227046,0.04050839589907119,-0.038519088422956205,9.934250683715359,0.05259766043643802,0.14641067998636312,0.20672559836581547,653.020793142281,329.9494857368845,630.5258049533169,sit
0.2003338898163606,0.09467790826624516,-0.03438748815060856,9.93039773822798,0.5742350267834323,-0.10900483798907545,0.08885210279866178,690.4459096672628,410.3942378693696,667.1420865199206,sit
0.25041736227045075,0.08571903583119733,-0.07307125439188712,9.935408092634924,0.4800125556191818,-0.020275843830822947,-0.18776185025460626,719.2088854083945,349.3638337852999,635.7513909216577,sit
0.3005008347245409,0.07545998711501473,-0.0877662206319536,9.903973124769335,-0.014197815835853424,0.20837642301240641,-0.0027779788750834857,654.5756197803975,373.5254246385633,543.5470037230605,sit
0.35058430717863104,0.10337626936611852,-0.01272052707529494,9.898507075873002,0.11722861523370633,-0.18743998970776482,0.3124022457293566,629.9079386600047,371.10737843965586,616.6159278348288,sit
0.4006677796327212,0.09674077282162562,-0.0690313117264118,9.903440831917452,0.01666082637744033,-0.09149880632684443,0.3163275267404763,623.8039676304918,390.5353898035228,644.9712727454752,sit
0.4507512520868114,0.07762187109480723,-0.06651117681874871,9.906819293637183,0.04174882598245545,-0.2927561187529517,-0.043180788815899214,668.1680326913655,349.9334362527834,627.9153398996616,sit
0.5008347245409015,0.08509373523077275,-0.0804817768217443,9.939620789261449,0.33526681299692235,-0.040783007550039656,0.15640320006048636,702.153140931422,317.73590556319874,614.8815139620564,sit
0.5509181969949917,0.13727723674204922,-0.043957061022709354,9.896511662414273,-0.07194798082192773,-0.13180321993312305,-0.20137821190963973,610.8093190691452,377.6829739985189,639.8571816478652,sit
0.6010016694490818,0.06124109524494669,-0.09485055869049269,9.891450275704395,0.16698102679843355,-0.13121404533719064,-0.11116594105712028,712.0226271811053,339.9480207988437,571.1026386060453,sit
0.651085141903172,0.08633005042479357,-0.0471685025944934,9.911984668187307,-0.28463430175761617,-0.07534622612947703,0.30428504764627856,603.272505766305,462.50542556751395,571.9978695466295,sit
0.7011686143572621,0.09127386348284931,-0.05711842032596368,9.932069627754325,-0.14269478603424943,0.010430337539939386,0.09338535903583191,654.0572276702356,349.8888868301435,562.9415711578691,sit
0.7512520868113522,0.0842098403486108,-0.051594833821253294,9.921699957548206,0.29444149420335225,-0.02703572849000287,0.3145235815961919,761.3906808534306,402.53124380389767,662.0372183365967,sit
0.8013355592654424,0.03169803488136692,-0.055435487172821346,9.915754934792416,0.1485164573735294,0.3722936180057686,0.13335860747857298,680.4869415553138,312.1166200925998,573.4753051644636,sit
0.8514190317195326,0.09480914022834508,-0.06958346405042297,9.915183931869114,-0.24536260287362144,0.12645937033596422,-0.2623074811357193,734.5136990792357,441.8296492107771,609.3076485277425,sit
0.9015025041736228,0.06915545244745673,-0.051464248081656616,9.888680727062667,0.0951532099523316,-0.2944408998229705,0.031505356469217476,689.2811292022354,372.5889061292986,636.9965505278366,sit
0.9515859766277128,0.06842388979882899,-0.045393301018808896,9.924950411511164,0.2143394773656554,-0.270200697948172,-0.18663206694311907,676.3790232370592,430.4829538406471,659.5786878612234,sit
1.001669449081803,0.04781866411762953,-0.08613649478776299,9.933286544362167,-0.11390047788860383,-0.4221877664944144,-0.011350739142847942,648.584701809526,376.7043747125652,689.5062447879726,sit
1.0517529215358932,0.05683040989611307,-0.0341451353693207,9.900786769229509,-0.21051727757071284,-0.1802898489491038,-0.29770887867869217,723.0458703509487,477.73309006048066,704.2878111568581,sit
1.1018363939899833,0.09236610972589399,-0.03926290110936491,9.92706516027925,-0.15127586887684266,0.27316671515989255,-0.05545982956105045,554.5407328411931,375.71119475084055,681.7101409169708,sit
1.1519198664440735,0.06683909514744228,-0.086986335351526,9.924556703074026,-0.05643020307182421,0.222884250583435,0.4275557729215643,624.7196132999154,386.9663831039135,621.6509240102965,sit
1.2020033388981637,0.04650346701343497,-0.07268566612177896,9.931801900031859,0.17617806634330876,-0.0977689918932417,-0.5133176875984425,705.1031554615421,268.26216235610536,606.0884452430624,sit
1.2520868113522539,0.06952842797187092,-0.08098637786547272,9.915268933589724,-0.1356150161823258,0.03634707405811457,-0.08217897866865878,726.7701252321913,428.54336173733043,579.2219717094179,sit
1.302170283806344,0.1028641080885124,-0.07064044375233385,9.90047164851156,-0.29256175538630785,-0.6688578494450736,-0.28610805220028124,703.5004582440093,349.7419522958607,644.5815087759753,sit
1.352253756260434,0.066544126836657,-0.07318770735639706,9.936688348701036,0.04500307826418097,0.09288730330611314,0.2576536277162064,635.4127414476667,411.2228401743079,581.8127403128524,sit
1.4023372287145242,0.09128043824825845,-0.07186650233300815,9.880733479574998,0.1035217727869231,-0.03511244374262023,-0.2985164116592013,769.9578997255962,449.3922821988416,584.8740333362196,sit
1.4524207011686143,0.07688186100455804,-0.04905109486393845,9.926495460752129,0.01602265396280164,-0.23596224415877448,-0.21181913747834635,690.1736704826,409.002244273027,595.2743979465206,sit
1.5025041736227045,0.08337127846288628,-0.031064131408620563,9.939523038063365,0.03626295760324234,0.1841269129668792,-0.09982357347141085,674.4342004684596,386.5095538067036,616.42339704867,sit
1.5525876460767947,0.11517568163681956,-0.02420026481437862,9.955263374506472,-0.24372773754338786,0.2095719800685708,-0.05555813437444528,729.9001713221462,406.48699291773426,578.2713716481799,sit
1.6026711185308848,0.1224039535806755,-0.042481624684159947,9.923096130484828,-0.15486622681173245,0.2538954648576379,-0.04626586709877216,627.7056933995659,396.2602063370122,673.7273892038572,sit
1.652754590984975,0.08366199405861077,-0.012424565246392641,9.906960360266739,0.3124934971111216,0.09739961048274272,0.08175410959594444,694.5813308694625,423.58022565033195,653.5539333392799,sit
1.7028380634390652,0.1085224999143258,-0.05285389890935287,9.92613176957383,0.07047826219413325,-0.2680234045592938,0.1967175960907941,727.4396419502239,390.3645812945148,625.146997433774,sit
1.7529215358931554,0.07672991021044857,-0.09630462054981637,9.937769410685485,-0.13133266397535936,0.0600826638910973,-0.7237742225519804,676.9046403173318,319.28031344603204,589.5641840024391,sit
1.8030050083472455,0.10100877051031944,-0.07231847293952517,9.914278884438875,-0.05403751714885482,-0.21659099037132493,0.4242369960762999,685.8426069722765,408.064305985987,608.3528364533205,sit
1.8530884808013357,0.07695506423290582,-0.06038868998424835,9.934766073795004,0.2802535218169578,0.2391102707111704,-0.33670628791252394,754.9665711256368,448.39093661543507,699.4350950699169,sit
1.9031719532554257,0.08070770255758639,-0.12006629569738408,9.895030502564747,-0.4223668228156462,-0.39965704388458656,-0.6044982239423935,680.59333591449,394.53632917625185,652.0900380024436,sit
1.9532554257095158,0.08215049649528149,-0.08942357649091828,9.9181216927237,0.563933631613615,0.33545868041683896,0.25337904806555556,672.1703084231904,384.97179393216453,608.5551221045599,sit
2.003338898163606,0.08827363187603808,-0.04373794677865002,9.898518826541046,0.027551217519017297,0.13805539558560662,0.002918210063711811,621.765113753429,362.30369494369916,615.6784254183336,sit
2.0534223706176964,0.08096381914979812,-0.07140232675884858,9.926796846722999,-0.189365036984781,-0.3583634607634424,0.27979693135276257,603.9432291249593,363.47184297300697,637.5974900565495,sit
2.1035058430717863,0.11278296304568751,-0.023106987293581994,9.925645205217865,0.4013909055562463,-0.8893981188658913,0.01002301284357169,684.6057735038663,373.69776877725525,619.6723620516383,sit
2.1535893155258763,0.09765141612551209,-0.07046395267839985,9.926424941923571,-0.052747421376158996,-0.11329780555335386,-0.35385950301356606,707.8306996418362,360.9227420341645,601.3611571036877,sit
2.2036727879799667,0.04716272140295236,-0.05558809579631521,9.954161574322935,0.03599552418277884,-0.39429591719853196,0.0968005791663706,673.2022675063464,381.00310579015985,615.6926444090587,sit
2.2537562604340566,0.06698237518822422,-0.07883969669971927,9.938268314273357,-0.2170625969373935,0.16472400122600225,0.2415684853317962,701.9892994709485,466.50198779722666,588.7119111921845,sit
2.303839732888147,0.11144407984528731,-0.05253472477819923,9.945479835775828,0.16249085276479905,0.19672497840637376,-0.38105877903912044,757.6410334466791,399.9344686548689,648.6238028906184,sit
2.353923205342237,0.07749676389426963,-0.08712062637921246,9.953484167904064,-0.04725664134235874,0.08213025412210043,0.021245650845869546,644.7683228541289,432.0158076702563,606.6405211782007,sit
2.4040066777963274,0.07585491246110172,-0.09889645861241236,9.893102728089286,0.17752541971794106,-0.5963156626835426,0.2192009738345748,605.0319273196862,322.7914588015283,588.772927149858,sit
2.4540901502504173,0.08712388212773024,-0.0755425893885777,9.923853166365,-0.20776482149090836,-0.489313226551015,-0.19341504733728812,705.1732910598652,380.0633287249809,627.774389351067,sit
2.5041736227045077,0.10362104207288403,-0.07151541672498148,9.922070988370647,0.3527017589135812,0.046640561679935834,-0.07479108242110072,706.1364818056162,352.92719329781505,662.3610299390623,sit
2.5542570951585977,0.10181522721504918,-0.056546788464371264,9.919469934915073,-0.06464221520757711,-0.12079819155289272,0.5017896137526041,596.0796055237372,416.40036373874904,615.4886050271876,sit
2.604340567612688,0.054233900579192494,-0.0443107996104597,9.92564330116404,-0.34998755255036307,0.08927968693136812,-0.04232797164396702,636.7068361837981,376.9204516305083,639.2962908979933,sit
2.654424040066778,0.04644991595988551,-0.1101024009896254,9.9369791098126,-0.05236057125920855,0.0684580167904466,-0.5023886221823166,691.7050161211702,303.1665139739705,702.0900426243132,sit
2.704507512520868,0.0928650918128695,-0.054130929424731904,9.92927999965616,-0.44010940530248294,0.5377511874176215,-0.18562056031547608,665.7777905708264,356.098008925878,614.4645003704601,sit
2.7545909849749584,0.08113349453173527,-0.0664650926836671,9.933404186633771,-0.29756354012762964,0.44914151957418347,0.18848939187747546,586.571864134434,430.0074848709908,566.6272026568911,sit
2.8046744574290483,0.11786126444909716,-0.057258456830524045,9.923912340547492,-0.22235792343440916,0.17575905190736946,-0.09791407735146958,722.385270536905,397.1452784247441,636.0022989480503,sit
2.8547579298831387,0.10925629645667582,-0.03395386606566196,9.963973613009111,-0.0274931950411425,-0.06660171611115248,-0.02097938234987388,635.5357515540528,388.4468816651074,615.5959813653758,sit
2.9048414023372287,0.07109884555091332,-0.08951921834632151,9.92268770024422,-0.35474451163517084,0.1383353860079041,-0.012173076418622834,739.5675745195842,487.7588414269213,682.2448023952074,sit
2.954924874791319,0.0666527804145746,-0.04267997437162644,9.916257955859452,-0.05118086638398605,0.2062751431551885,-0.1491426201538353,706.3432305404058,343.217683153011,632.0530783407105,sit
3.005008347245409,0.06858594870159081,-0.03765771169697568,9.901626873939414,0.19091645925631037,0.06698047256871101,-0.2827366061261178,626.677654410679,310.1769279020979,663.3189294188066,sit
3.0550918196994994,0.08732505961325991,-0.07298770557864713,9.926075828161913,0.272457360505332,0.11161176632378804,0.4491875945735976,654.728608614487,333.66239955948055,672.058268025713,sit
3.1051752921535893,0.08238300142335175,-0.06844990180302449,9.934215278854547,0.3744692627944534,-0.13944503765180705,-0.16033739442211895,677.4280230921183,392.4653960803951,649.8495183810729,sit
3.1552587646076797,0.07466720484365451,-0.059938212292533086,9.9425628364557,0.3181178335735848,-0.08791889499316068,-0.0777581884545957,663.070674790204,402.50855635557167,608.3886194529085,sit
3.2053422370617697,0.0825811003148624,-0.07814255401617626,9.915966153270713,-0.026481758333558418,0.36908967139683163,-0.6484821353969668,706.1583517656558,412.4346828205409,636.3563175090699,sit
3.2554257095158596,0.08606641848270946,-0.046936058707449914,9.913055133079856,0.21960961133853946,0.11700460792410088,0.24809458016803929,701.1349653951149,366.69009568236817,626.456427202803,sit
3.30550918196995,0.10443374497543342,-0.053508771813267436,9.929504042781112,0.22773182108256626,0.18582809150809645,0.24647145958099717,627.7953594498233,346.76197562747825,614.6461212978315,sit
3.35559265442404,0.09200936616473818,-0.030881285168077102,9.892655553240186,-0.1397541923337109,0.165499487288397,0.11980043177737004,654.115606860728,321.9453721144097,612.578653655638,sit
3.4056761268781304,0.09334083648916633,-0.061754359073648346,9.902998293018054,0.06124431496521935,0.233192653735155,0.29085435400216797,702.5952487387084,393.1680706057634,613.0203245367732,sit
3.4557595993322203,0.07709197139106722,-0.057212087421943336,9.911657280844706,0.07194948192084355,0.015462183627667344,-0.8018059799229041,665.8150112240829,363.5112402663588,630.6341385974083,sit
3.5058430717863107,0.09612667820294599,-0.02991065164730859,9.938810200724854,0.02263719220086783,0.09993083938571765,0.0026108417207656403,666.9047562780618,454.29402772399794,598.8523711560662,sit
3.5559265442404007,0.09673696528258235,-0.058170784491463456,9.890888188556634,0.20169421876791163,-0.08835238238099916,0.31671602426343176,718.8538265072865,357.80508293239365,588.2193594487442,sit
3.606010016694491,0.0896864375504112,-0.06641577195495989,9.953560564509846,0.1301054663266571,-0.1436997831838789,0.34508092269580104,628.3906086711971,385.65844340245906,629.1063804534183,sit
3.656093489148581,0.057783477638321146,-0.0866431077200441,9.917901397465597,0.12310825053077228,0.028710634689131452,-0.3344830510338707,633.469863268711,384.9659203537333,585.0900038819623,sit
3.7061769616026714,0.06939169202928556,-0.030172547767980756,9.941019424750266,0.633992343022726,-0.08879270624840313,-0.3551975317850221,650.9969322159776,432.2684251274103,605.5263460688035,sit
3.7562604340567614,0.08456997882422836,-0.043294258054881615,9.891303388064777,-0.15610907545484506,0.10250127160465101,-0.25002164024651474,751.2110220616382,426.1415364352816,611.7369317917862,sit
3.8063439065108513,0.059731537259394785,-0.06845818168774248,9.946840381638976,0.0077588302384344315,0.29117162861010115,-0.1195035392596153,703.83036349656,456.0746055459515,612.1935563919709,sit
3.8564273789649417,0.08461417384357758,-0.0700582741453821,9.924583564058485,0.23388378875367402,0.014680407679162025,0.07803789632336734,693.9796185381616,348.35832366097213,613.8390139976158,sit
3.9065108514190316,0.08223569930641432,-0.01727892637877719,9.929837100625042,-0.12292447099125928,-0.4144743893619991,0.2071539957892826,737.2456820669763,411.72798866041194,612.7438583535851,sit
3.956594323873122,0.0906011335255829,-0.05587224708090111,9.905755074668782,0.18495218015251746,0.07997982993300506,-0.384944563619399,753.9348478964828,371.8709835482654,631.4914553736833,sit
4.006677796327212,0.05071273419080567,-0.07012841402332312,9.944678553254574,0.17918259619197935,-0.11016549871159677,-0.020591001488183446,586.696737490877,441.98955047787115,555.8792444950864,sit
4.056761268781302,0.0780112967286057,-0.05127349197506876,9.92158716714527,0.4620761927398869,0.1419734193763134,0.06988918596833353,660.9635660079988,406.5496906100505,573.5795287769755,sit
4.106844741235393,0.10313359465928457,-0.04926370209879738,9.923513538600682,-0.021932286552560992,-0.44823510065080546,-0.2380960574199245,657.1591192319727,388.8855795737965,658.2658806017847,sit
4.156928213689483,0.07066279962549321,-0.08923493214339268,9.900656503719754,0.7723722775216475,-0.22896405631266706,0.5299660664060593,682.9126588842789,440.9782799742226,572.8819413410883,sit
4.207011686143573,0.08578974266622884,-0.09821220845450856,9.902526714234254,-0.0460732034593336,0.1494391356811586,-0.030668476955906656,711.7026019477328,342.05298314612673,550.6955143600987,sit
4.257095158597663,0.1077972877217751,-0.08839987136043921,9.898704404820737,0.03970352833882889,0.00678321597509538,-0.12036488608268782,720.8923550771525,359.75581767096077,563.3706500527475,sit
4.307178631051753,0.09735006752708916,-0.07436837840572591,9.907883045394135,0.06796449765321967,0.08503405778780143,0.027768926146936587,735.43038899503,272.1924849299049,586.2498552136173,sit
4.357262103505843,0.1069936359615033,-0.09947271268125922,9.920969864384025,0.11611639418980242,0.3195365163116491,-0.10962686598878647,623.750929935014,411.92835108223375,604.1420441445258,sit
4.407345575959933,0.10305884663175524,-0.07223152286885688,9.898250908729633,-0.07813236268482332,0.5663177786906919,-0.27862028981229786,672.1236163790804,352.5034415930512,687.6409119133921,sit
4.457429048414023,0.04981723239430745,-0.016174863632285714,9.915614190536274,-0.1852436809503944,-0.20947845741786475,0.3672469488470755,624.9389207531912,409.2987997713287,600.8029246571825,sit
4.507512520868113,0.07386483796023455,-0.06939132073140716,9.935589523048296,0.2759227515769121,0.5080323138854917,0.13139658956441003,702.81219642048,419.4596691956649,654.5584516881653,sit
4.557595993322204,0.09963593379874072,-0.06232140659686998,9.903503496585659,0.006572910170675771,-0.00034458550292861993,-0.006574896143125398,684.3891016436734,364.11492838066465,659.0850400640016,sit
4.607679465776294,0.100273156523257,-0.053196528182588874,9.899283072296997,0.0009618838498719599,-0.35607903039639777,0.18545819141694644,657.1735899248382,362.2468996978496,618.3961108173118,sit
4.657762938230384,0.09537778505416197,-0.0719710036715697,9.961476555822555,0.13452613394313948,0.47215522135621724,-0.2782542004987075,637.9696234952139,382.5006426150005,636.3192160954646,sit
4.707846410684474,0.06145961954712645,-0.06987205821441317,9.918377511833084,0.29136904802518115,0.1286789738940462,0.2180639471539323,706.8827847033365,336.048306721671,566.1973091682937,sit
4.757929883138565,0.050455158643633466,-0.05709523041555238,9.928923919534874,0.29188998869155597,0.041628572895222274,-0.5066356099955012,674.447691412343,376.07903358918367,626.9449172205614,sit
4.808013355592655,0.06100214339173436,-0.06380955377422393,9.92164868109836,-0.08504631109603863,0.5211902085160088,-0.056066057417127724,728.2652674815247,390.89198481034947,625.6898084116292,sit
4.858096828046745,0.08936249843713899,-0.07243605793565704,9.897731413715729,-0.2460707420485237,0.2424757868105465,-0.26887472783775335,667.4430310523617,376.7006269957336,612.9155639992845,sit
4.908180300500835,0.07931536220695717,-0.08556660114960711,9.910585345779468,0.43916002357488704,-0.2556133361322138,-0.03579181535190472,661.1124245296718,428.6399158952885,620.9894471944302,sit
4.958263772954925,0.08083519118231361,-0.06391226135937643,9.879017809211367,-0.02137039002444989,-0.13166698187322778,0.1830839830430767,650.807431197792,390.8913482997821,582.5081127205151,sit
5.008347245409015,0.0802324305340384,-0.04874776815950305,9.924978000496607,0.09245673388837886,0.018215522013658416,0.3106242983061719,714.0116955758806,329.6659397437583,651.0683696615018,sit
5.058430717863105,0.0696199249414834,-0.05563687772193043,9.918983984215988,-0.2982691768545925,-0.5929586971835837,-0.12994962763892287,731.4841994174147,385.2299270648798,652.7077150689598,sit
5.108514190317195,0.0936799490507836,-0.04852267919255223,9.922788476696926,-0.19028665950243412,-0.26503283738872513,-0.13403800231230423,640.2432222845089,463.6757803396973,688.5970482013237,sit
5.158597662771285,0.0492490620547147,-0.07968511751912885,9.93453952856801,-0.06391610181192783,-0.03825639882025284,-0.323228501934912,717.3061642040392,391.6124750568081,623.6539524083819,sit
5.208681135225376,0.07267333181975191,-0.036030388965697054,9.941506385002558,0.007892013144343126,-0.0678193469415683,-0.1016171455017036,724.359014522997,419.1420824728103,601.4476626259236,sit
5.258764607679466,0.04127953923749038,-0.07700545317140788,9.944470614674039,0.09748927217477105,-0.26480046235079685,0.11574056315600773,645.6418331716676,340.70367762618076,589.0060604662654,sit
5.308848080133556,0.07268385411778853,-0.09083941492288974,9.93185984381637,0.5980718005974843,0.13497349391975533,0.36527520671755026,631.109587800308,376.9737764884676,632.1918328887148,sit
5.358931552587646,0.08922973847929691,-0.06490832355778686,9.940245531374833,-0.10217040252688445,0.15072023915729107,-0.05689498642174949,713.9760900925916,310.8923092273993,696.4675153572596,sit
5.409015025041736,0.0799625042976033,-0.06110270161874824,9.936769911232782,-0.35356994491135835,-0.031227783859150687,0.34188449109843994,684.2461853095243,413.971023916647,618.4436757003317,sit
5.459098497495827,0.093537233678737,-0.02817300983377951,9.89643043887088,0.20585137104925189,-0.06130361696901196,-0.023084051193462785,726.1771062427748,378.9717690312985,615.7959558202804,sit
5.509181969949917,0.07505503571033124,-0.06849661120644766,9.940309159258211,0.14160960322094449,-0.5488050005563007,-0.2086936862799407,677.7809303086867,372.9371367839379,579.1526867491366,sit
5.559265442404007,0.09274603236538725,-0.056527724114906995,9.917563722298684,-0.05714647029417537,0.0929002006082157,-0.03237974890301711,595.1458766819653,400.62537809305917,603.0621422725729,sit
5.609348914858097,0.06979236143881232,-0.028378366993781143,9.891471585728299,0.04436718187744839,-0.09786426053119507,-0.17624527434448417,649.0557609271866,380.0702267084887,653.4023295630859,sit
5.6594323873121875,0.04213765556931715,-0.08239639982334852,9.919727399113723,0.08944706065580794,-0.3091818145713312,-0.274870997766663,705.1705897082321,281.9704420615838,612.6499218990342,sit
5.709515859766277,0.05029690418833767,-0.03586982643899726,9.899243554880114,0.11903242833601707,0.10187009920699498,0.12134203695770392,635.9881398930414,448.3575626396897,550.8331266219932,sit
5.759599332220367,0.06704513191715564,-0.055978285478593084,9.91442383568417,0.24574357249575313,-0.03160609106673984,0.3702481993708064,650.9665457373766,368.5945401922177,613.6855444897622,sit
5.809682804674457,0.08660306104358606,-0.07266192928179804,9.9129835869346,-0.2601650858341442,-0.005990204382300157,-0.10599185284471256,667.6769736083671,377.8211136068577,570.8324192883351,sit
5.859766277128548,0.10874875022797528,-0.07019975391850719,9.913799458045068,-0.36604993423751914,0.2681301698074911,0.07136638749775687,663.8606315794632,332.6443042393316,621.2309596824011,sit
5.909849749582638,0.09639920490007273,-0.04781923144629813,9.902593222274078,-0.06121069105866907,0.3065218892204714,-0.2572362462553279,677.5461090999431,401.44931543450974,548.9494128188798,sit
5.959933222036728,0.09473354730943728,-0.03017010451855141,9.945632037344627,-0.11903382329780633,0.0839446507822504,-0.19771235546769092,681.8284254905268,364.4695895520932,637.8402519188467,sit
6.010016694490818,0.08994261157698051,-0.03223902731807364,9.908023382747652,0.28249471224609307,0.34472647212128915,0.11630951528689948,627.3992874714181,375.37437399161934,678.4699133893422,sit
6.060100166944908,0.0799549650862128,-0.06409447934870136,9.929846266104303,0.18111391492958803,-0.7651677776197509,-0.0786649173729263,628.227556248889,377.81781688911497,620.9459737338211,sit
6.110183639398999,0.09860708145110929,-0.04030684770344056,9.926380446308471,-0.2999119286497646,0.11370907955769743,-0.2577412535986249,726.1548247923861,413.2764117725629,634.0425035195552,sit
6.160267111853089,0.1206667111767834,-0.041453916951344094,9.947183989620832,-0.40076354101553796,-0.05596507682823555,0.07095317521672341,687.0621937405491,391.2677162908007,581.5784130734343,sit
6.210350584307179,0.062405732344890205,-0.06013725758430521,9.886894629078746,0.1457939474971277,-0.12910250163006623,-0.44873977432568984,710.7213215824125,362.5746848868219,645.5565375777363,sit
6.260434056761269,0.05803573634277104,-0.04331015973839354,9.946542616434991,-0.12942479313917615,-0.5460824494950488,0.21936121210593523,755.0476715138037,360.6732848828741,728.417168576073,sit
6.3105175292153595,0.07639633084340358,-0.0689060281411056,9.906981538852218,0.15920293424431253,-0.059869165668037724,-0.14911572490848024,643.6909681807142,347.3032327548432,586.7724402360664,sit
6.360601001669449,0.06645035459745106,-0.05525631419434878,9.890127723129087,0.42757458636604456,-0.03415752332023207,0.11010636953271076,621.0512784915763,390.23617133879185,585.3554123577461,sit
6.410684474123539,0.06829735042317892,-0.07242023688635399,9.90139415848302,0.1802806109667688,0.08082036241636287,-0.17125520238218198,704.0404156193796,394.4922051329254,624.763897360338,sit
6.460767946577629,0.0741481347404427,-0.0682426776041669,9.946426230704246,0.039199290770427435,-0.06003885272520249,0.2265987170698754,696.5191533005454,371.46106487815706,536.5647180820023,sit
6.510851419031719,0.0837325959732999,-0.03957869944195476,9.940572174766347,-0.03509114079769945,0.15392461048958309,0.3497085091583554,715.117722216889,316.2555984465387,625.9903302823079,sit
6.56093489148581,0.048509051353261445,-0.08390610226275401,9.884710701758179,0.13850860670116763,0.20678825512379628,0.1489518636659628,592.5757882806311,328.7983970895298,587.7596936519772,sit
6.6110183639399,0.10809570163606913,-0.04350512315725402,9.870218646409587,-0.5620898004116336,-0.27319809834532477,0.08680078240908815,689.9703797018552,344.7886154539795,563.9031058357072,sit
6.66110183639399,0.053576594989036344,-0.04959576690658599,9.90057214970082,-0.04593238304683791,-0.20617983002137102,-0.2981084938025846,713.0416819871663,425.34103818955,642.442485125844,sit
6.71118530884808,0.08803007331149695,-0.06102784739636118,9.936532204718965,-0.052497004939908214,-0.16828443954587116,-0.04980057890107369,663.176503323593,428.8465619072049,657.9926005977057,sit
6.761268781302171,0.0777090175413587,-0.06345845543682864,9.891062351952398,0.5063556282891309,0.28292019817183756,0.11338658411810333,723.9759861586921,368.37323829027173,619.5221906860234,sit
6.811352253756261,0.07256159915735878,-0.03741027828458816,9.90113367988568,-0.3707063359266902,0.5490760529618163,-0.2852731551707546,656.5159818002882,363.28688052294643,565.0939918366814,sit
6.861435726210351,0.060695955977565885,-0.05524491073812173,9.929129463677208,0.21698469599207945,-0.5201499356569342,-0.4954136211864231,651.82718608013,360.2959978172072,610.6558161489812,sit
6.911519198664441,0.05215096153706318,-0.05787682052656439,9.975958010255546,-0.26302398898397067,-0.17738005604993365,0.14245628849339736,672.4126785577579,298.20163075557724,634.6672570363648,sit
6.961602671118531,0.07730382185160375,-0.04889236647345327,9.88755864851449,0.09801831838871966,0.028603264184895776,-0.34131124358599824,714.1464876078921,416.1470367623443,608.4509974927314,sit
7.011686143572621,0.0630867962284304,-0.04264881862927471,9.90492065096058,0.2082189864410962,-0.026873860651696346,-0.04501653114272802,713.827829482675,406.98003287246894,601.098213836477,sit
7.061769616026711,0.07729124194631255,-0.0809820870777871,9.97468429563257,-0.15715246262109014,0.21435583355381782,0.4237049481794126,691.1086958912456,400.04043071198936,645.6313571983869,sit
7.111853088480801,0.0731223413639227,-0.07605792245774826,9.907794862268839,-0.2191258301059334,-0.20811390274730263,0.28194735337793864,692.533520340961,379.64648195006595,534.3683207748936,sit
7.161936560934891,0.10081170557609916,-0.08540155759689624,9.896782118946069,-0.1808358711718577,-0.016120391770023397,0.013857132929624755,621.2166627790614,415.4796993933635,619.1885754911589,sit
7.212020033388982,0.08900666006501116,-0.07143074985134212,9.946705986868407,-0.11093305101700987,-0.12378056273802988,-0.17174117591133126,609.6290108109781,401.9975943087928,635.4052086647372,sit
7.262103505843072,0.08566648410885518,-0.07246803351879474,9.915631150491253,-0.11450474359424333,-0.1920274371855925,0.02497684733301411,676.2666812723529,348.5317244932594,689.8200437549076,sit
7.312186978297162,0.11438674537592074,-0.05588675282584405,9.92328708978942,-0.03213083136651096,0.05643453541300306,0.20093841582888897,711.5544656669523,375.91826653067295,662.1572471305747,sit
7.362270450751252,0.0802022120654078,-0.05517663041109943,9.944903327427248,0.10523679458395446,-0.12196226576082331,-0.34368102600957523,630.7237438982822,403.5979540469314,637.7689670639787,sit
7.412353923205343,0.06986292216819584,-0.11161251654742588,9.966825112704921,-0.10653616526468473,0.12056736351473749,-0.03720498426602957,665.6655035489107,418.4792357606546,610.296599226329,sit
7.462437395659433,0.11642038008135921,-0.053679727567943675,9.936560778831852,-0.3319239211247614,-0.10679317792276878,-0.2682697239688418,735.5661411848923,391.7022349972024,522.518306915717,sit
7.512520868113523,0.08710455343872167,-0.05325399610460416,9.9221091095145,0.0038728964160132896,0.1531631621126528,-0.16950681091046893,790.5468414777047,419.13778884354093,653.9950372055525,sit
7.562604340567613,0.06905771101027623,-0.09227368943264311,9.898557074419726,-0.08052545057821077,-0.40505042797963425,0.02897416942305452,703.82540437172,376.0838429080066,592.5590952717521,sit
7.612687813021703,0.08020048209153947,-0.057854084131996664,9.933211173638115,-0.15270230384290367,-0.0563060987898106,0.021377800753223323,651.6781972399913,415.1362380713248,650.3937613513801,sit
7.6627712854757934,0.14485422862500014,-0.07560324642802517,9.949666678107171,0.24065559426575997,-0.32688320999881887,0.35476771512416627,674.6716776271484,350.2470067316654,646.6367912929148,sit
7.712854757929883,0.11277808250734206,-0.0677949858035139,9.922701100599596,0.1437247010855328,0.18899376580977917,0.15806983502938474,660.5178639386714,402.1519078194302,569.0223703593688,sit
7.762938230383973,0.1024943572271764,-0.008104352015062169,9.917342885667267,0.014381193235915886,0.347758928724501,0.169559452412252,671.2530635155324,340.7587906686306,551.1228010838049,sit
7.813021702838063,0.07509042795453265,-0.06868609865243143,9.925923757780794,-0.1683027997575792,-0.11230029497379698,-0.02542677698618592,664.7090502764732,364.6763754276568,622.298072284016,sit
7.863105175292154,0.06854159323185888,-0.027176729164726528,9.918630292985943,0.200782376366014,-0.018285830211379712,-0.6473370648704835,651.1868787526647,343.89855420943786,694.0736855976958,sit
7.913188647746244,0.10220005250886088,-0.06801223112164864,9.898568216278534,0.1562847080912848,-0.13898794010320076,0.15566032557160647,666.7491561922814,416.9379551586894,570.2686688680262,sit
7.963272120200334,0.0844832782063797,-0.05594990507348037,9.940451017700983,-0.18550831163313286,-0.12277295694756549,-0.46060015312527675,702.0194148044229,324.1855827336842,590.9122891157255,sit
8.013355592654424,0.09214675574798858,-0.0750071423792456,9.895500949856586,0.023892419167239894,-0.011026089214814211,0.200430515442394,711.1875703920946,365.19335526745067,704.6429675283686,sit
8.063439065108515,0.09583249513328163,-0.05989686710979226,9.92169354516452,-0.1373425645819447,0.2047942954041193,-0.04877599608930959,737.1239394857548,340.85804538548354,574.1510634753577,sit
8.113522537562604,0.06051317665896056,-0.07962751283374561,9.892165388885996,-0.07521259242167204,0.016749967916031668,0.01900057931164931,718.0620600441907,421.07301344900964,602.4827935053571,sit
8.163606010016695,0.07960521717203116,-0.07694750450276533,9.894331053149955,0.048350092409758905,0.4125453779975806,0.023112380293975957,679.200715219056,396.75459477390484,627.533296674793,sit
8.213689482470786,0.02020480651952683,-0.05782590611363556,9.90068851644629,-0.06298453964600005,-0.17482336492536837,-0.19855946390178417,682.2014277024282,394.22745849669536,760.0999119786212,sit
8.263772954924875,0.10618139087901081,-0.060607866583796965,9.94412864066638,0.19989610667306848,-0.26496743460832717,0.11839956144617741,670.5944949005016,393.019263002191,669.6792816114479,sit
8.313856427378965,0.07146617602044929,-0.037721227707897716,9.92940855059144,0.4546224095869485,0.2304470000664846,-0.038200978726357734,713.2801905073367,386.6957292108669,623.262933309003,sit
8.363939899833055,0.05698583357250017,-0.060227654442727395,9.891084440967461,-0.2830678949594076,-0.22462499159475083,-0.30947406073012435,701.2906323420937,371.1284260883634,633.4420098920373,sit
8.414023372287145,0.07537272452759419,-0.07928547077463781,9.941302290733235,-0.14303730985736357,0.1248061796146304,0.46542169898516705,684.7258086793413,385.57713279522636,682.4118835052075,sit
8.464106844741236,0.08798505595371461,-0.04551710278592507,9.924040161507977,0.2498073773367465,0.13813979142592137,0.2173582054961095,813.7504114319216,403.3386538886551,665.6560594431187,sit
8.514190317195325,0.06798409669234148,-0.0403544921003918,9.90914330126988,0.10196989795125318,-0.23647708462430264,-0.1418554095383146,690.9875169832171,396.87710183640695,611.0690364455845,sit
8.564273789649416,0.07221586465203561,-0.041099153689477946,9.918341577663435,-0.16324681164635868,-0.4312477593323697,0.2934163416930732,608.4053881088051,363.631848934746,564.1095457793379,sit
8.614357262103505,0.08160096841541008,-0.07374366045973955,9.947055708961242,-0.1734283730325343,-0.7503260917292992,0.06997869076932067,663.9306339092961,456.36984154018296,669.1052760543887,sit
8.664440734557596,0.06484920380338376,-0.04524528519082187,9.93544110881231,0.30404635461712126,0.11848439163769964,0.09559665986591195,718.0274443237506,394.0309909587999,569.8516231257712,sit
8.714524207011687,0.07880975024899058,-0.07914856985549987,9.923367753059074,0.03105780810453825,0.01624948597323205,0.043495082698756266,586.3502189316939,360.40480883616834,651.9149454350957,sit
8.764607679465776,0.06822054862770101,-0.061697916591697384,9.908078562936181,-0.042347643987606445,-0.034750824359061766,-0.4915924193293716,794.5072596958925,395.6621149470369,593.2974283213006,sit
8.814691151919867,0.11249902187499175,-0.052099939993948116,9.925435189725434,-0.3057002625558565,0.005921708690700666,0.09548671122286724,688.89800345926,373.99558572929897,659.6442300149992,sit
8.864774624373958,0.06346857279479348,-0.07074093265643908,9.919768904005268,0.3139208012033167,0.23912322442208842,-0.3809733789262459,694.2079049274959,311.80810841667994,667.8268510933266,sit
8.914858096828047,0.11856923334189776,-0.010715583363859665,9.916700197009165,-0.13229670209848174,-0.008517155915824231,-0.12479887682745265,666.2015466787651,431.37616446937824,582.7082679421411,sit
8.964941569282137,0.07613986384699747,-0.05052015192591811,9.93015104010664,-0.2968142266029008,-2.0028214849676995e-07,0.19426067467404762,675.8479221906189,407.357048047405,655.6245043494253,sit
9.015025041736227,0.08233851235782101,-0.030750760343723333,9.910025531906886,0.3493140113350703,-0.016761570685540014,-0.22936217641609197,601.241359726374,456.9945523979027,612.5764117915219,sit
9.065108514190317,0.06143516770066089,-0.08613180119072548,9.953743380084811,-0.31113317385088185,-0.19096310158100244,-0.12198161641558705,608.3106413359359,380.0500405265828,655.8829717184086,sit
9.115191986644408,0.06817109603825555,-0.075469061739973,9.9307071087437,-0.13785725091936477,-0.0020807265124647653,-0.3204749666970609,708.2897966005197,382.5014759473334,571.8415935828363,sit
9.165275459098497,0.07537261429788411,-0.09506350184686851,9.912693612028342,0.25872134528529095,0.06934235094703409,0.34551520485108456,777.8551723462152,392.63673428795437,616.9743660856957,sit
9.215358931552588,0.09687647192239232,-0.08499222244478283,9.897890618984293,0.14499724444242446,-0.40574634051447833,-0.4666990755692639,670.0179095423647,475.75777586016204,600.171457409758,sit
9.265442404006677,0.06308914273837095,-0.0642910190969461,9.892892732068027,-0.2985746775436394,-0.007739663174168082,0.29136744138673837,777.9758669146058,383.74604836098985,547.7629509743381,sit
9.315525876460768,0.04693333076685044,-0.07546770554794248,9.937257013355985,-0.4600877411826771,0.2768056610355438,-0.7237779170788565,636.6197568367395,429.2566370167068,602.4848658303123,sit
9.365609348914859,0.11061945780300678,-0.10373339394785883,9.905284298612733,-0.3567716232756542,0.11143848133013269,0.2691837324598113,642.7405839134399,367.10529820830465,651.5253308643006,sit
9.415692821368948,0.05900357618251703,-0.05184334535645756,9.881024981610281,0.1639791996559156,-0.1550205398717086,-0.21186794946549795,658.1804504279527,417.9333166341999,594.7534964467995,sit
9.465776293823039,0.0687142675974931,-0.07740276422619569,9.89882036641068,0.22030863046925153,-0.15208185217841622,-0.05612613872133871,702.4544922725087,396.3900081576628,700.4812554502128,sit
9.51585976627713,0.09317916780006902,-0.061659271249673915,9.94453381358312,-0.039854980940580306,-0.0008484116782575499,0.012750061646910348,642.6704132670903,360.14013851029694,646.939626373874,sit
9.565943238731219,0.10531466542389356,-0.0652613725943773,9.931608792673428,0.4027429591242428,0.40876208788546203,-0.18646473468735103,729.0400024891579,416.52017714569945,614.8920851443462,sit
9.61602671118531,0.05024550722128142,-0.05393323831801361,9.923453376905133,-0.4711591414202803,0.3899383668885902,0.17746036824856679,645.3275092392743,364.4452060555338,562.6432807364514,sit
9.666110183639399,0.088858357185152,-0.06025767043416693,9.891788602235629,-0.014942431420691914,-0.0032733804226135984,0.2737640906665311,669.7000255613208,329.27673328020273,591.5317932049525,sit
9.71619365609349,0.11099735383541301,-0.04222454486332945,9.92704521202439,-0.19480098217505135,-0.17343690292262506,0.020993589249959827,691.935054463911,440.2979890402968,633.210130236333,sit
9.76627712854758,0.08893686373345146,-0.056411419565672506,9.938381491044446,0.3400515051103772,0.10365107909794508,0.22251287696850286,723.4285849309503,380.0450628466938,648.6253189297777,sit
9.81636060100167,0.06798106592945516,-0.10141184211756732,9.937855826327047,-0.10377312267134518,-0.13223770721738462,-0.04314823086830629,648.6990233353274,387.30233575260115,608.7648279227651,sit
9.86644407345576,0.05699622195436728,-0.05987853612394223,9.925657324012077,0.20144890142024993,0.19167660476218606,0.04290809109048306,679.3336824115115,424.87785831717844,628.016390175769,sit
9.91652754590985,0.08511952309159226,-0.0366735775963468,9.904554945955443,-0.43369573363007374,-0.2639893547573017,-0.03889031638608523,726.0587960478587,387.9758569775082,679.1666026241217,sit
9.96661101836394,0.09280716462454841,-0.064497003758871,9.940007728422017,-0.050627737010034,0.30901777728159546,0.03885799479169059,710.105710970191,414.3068984032341,630.4556578197218,sit
10.01669449081803,0.09257158881653449,-0.0910583623028344,9.914424004769176,-0.36957569094857723,-0.14116384663433643,0.08681117691356988,690.5134707683349,314.5311885190704,650.6502128665486,sit
10.06677796327212,0.08337221026460517,-0.04772799303636369,9.920874715894028,-0.1018533776590147,-0.05030961110780126,0.1531531289819881,628.9964506043666,389.760486617336,676.4734181322392,sit
10.11686143572621,0.06719779820446974,-0.04711948223713321,9.944274944087784,0.5996561183699491,0.047850617278334076,0.15081593530579213,709.524189956734,366.8833658787506,647.9371365834402,sit
10.1669449081803,0.04163584532720938,-0.08635017133171059,9.94798295689982,0.10385937573963193,0.11106113510736379,0.17725845723788483,691.1633451744767,428.61841880245635,634.1941037076095,sit
10.21702838063439,0.11057311271635593,-0.05036672216577638,9.90814317878111,0.02632165294428385,0.47827082180520175,-0.07799161954232693,723.0654480711435,409.53648941091166,605.1589994446068,sit
10.267111853088482,0.0858323825565557,-0.07623523818770633,9.938389794432638,-0.10183765630373352,-0.08720771833772235,-0.3951627448355113,674.0167963791332,369.57836698002717,578.5369555681091,sit
10.31719532554257,0.09377309337423098,-0.10850284012964503,9.911228943903518,-0.20211391185013305,-0.4515977798450918,-0.2656316550195617,670.1319707998153,390.4863351033797,645.4923248113167,sit
10.367278797996661,0.08951651532720319,-0.07901628359222912,9.947194781380068,-0.0989138307515802,0.19472579951357918,-0.39155349133901773,675.8256421462113,347.0157618976537,601.4838055976027,sit
10.417362270450752,0.06400232261851284,-0.042681914880878705,9.915234321574088,0.16579819728760714,0.26771432116470556,0.05921306237697611,693.09939442289,411.6817615273599,593.7814029774304,sit
10.467445742904841,0.05520279315391412,-0.05625849715862714,9.878737760171534,-0.017687455328555073,0.35565413907272675,0.15651576198305397,638.6585399253046,381.0653282546111,634.5159281275027,sit
10.517529215358932,0.07260614928681208,-0.07884717298465557,9.92664302268687,-0.03176148492744672,0.10111837408341523,0.19662567010163412,721.3711263282281,391.4302621424337,673.5503802591488,sit
10.567612687813021,0.06282881692170988,-0.042529060026789384,9.917769360233104,0.21257730186236573,0.2876556817961498,-0.37562830609678194,702.9660186536703,312.1980029365214,612.0949948886096,sit
10.617696160267112,0.091833627095512,-0.0579140017190155,9.923634737185006,-0.09015610251131857,-0.06048662964702335,-0.5355670640885994,652.8724748553637,338.9674299400456,595.1710128555297,sit
10.667779632721203,0.08421209151204061,-0.1036721367543213,9.963344770080374,0.535513735290726,-0.18429548020359984,-0.29300522766131926,714.5035086348146,405.1866319213859,590.43395411601,sit
10.717863105175292,0.10372086845990747,-0.053599625044150556,9.920912676260476,-0.3316231970940225,-0.06853937516104076,0.1443843698180603,760.2408267872516,402.84099719207654,612.6275145342933,sit
10.767946577629383,0.07733586164472252,-0.07251230130272336,9.926885083671857,0.05574239660825901,0.23838459961103428,0.06801273711262339,691.8532050949575,366.7382823856277,606.9041257014736,sit
10.818030050083472,0.10642742611848562,-0.025781830355476022,9.90074607129674,-0.024070167286345288,-0.16931490018286133,0.004706487807918881,655.9805385506769,375.61346223857953,604.2559870916806,sit
10.868113522537563,0.06927205297688437,-0.04231633899145781,9.909720113374483,0.25097059452152265,-0.1322665989951646,0.13596716698844905,699.1279985931498,394.3381908270342,558.0924207822966,sit
10.918196994991654,0.03926462007506228,-0.08998682611424379,9.932477431922841,-0.3617213362770109,-0.14985555185040952,0.12988179476860384,657.1126790468506,327.17707801892,603.0299874530101,sit
10.968280467445743,0.0860106985750989,-0.13077338466658536,9.914081037667762,-0.037114777224159165,0.07366769142652742,0.33778652961953837,581.5340123862031,334.1287039837846,690.3572248539172,sit
11.018363939899833,0.06616238114796395,-0.07729409446084512,9.9619195622824,-0.022509100342280056,0.289524700207778,0.24092415441928045,639.317031233673,357.533169360882,625.5218971945353,sit
11.068447412353924,0.09135977446940134,-0.038080756338427404,9.92764163737231,-0.11359907344557699,0.3948783897496537,0.05922953669596929,718.7354609587146,427.8918305812402,573.5936268140575,sit
11.118530884808013,0.1236557737479663,-0.044256421000497044,9.876255336673765,0.0513630587996176,0.22425736180463612,0.10457652977346071,708.3725720574232,356.31808799122524,597.6391201959057,sit
11.168614357262104,0.10176194989061128,-0.05422081772230545,9.9395760983733,-0.10147684976898064,0.23532708284829784,-0.24032154396187988,753.3261744418318,385.76764878199225,694.0060447004768,sit
11.218697829716193,0.07457125133270245,-0.061299434454572733,9.895806192469104,-0.24679865753985128,-0.36698102528463167,0.06788543934977817,696.9060690483362,377.18358709672947,595.3702489497282,sit
11.268781302170284,0.05970790747418432,-0.06892940531539132,9.892757462340528,-0.1095414030735384,0.13587888636793038,0.13906190708643537,676.8510532085678,427.85311020417305,589.4850402751862,sit
11.318864774624375,0.09523998589315333,-0.07296696200293919,9.93187674085645,0.06901287528036679,-0.08903480379428529,-0.07259214103122182,636.526272821798,426.264518846099,653.6912886725936,sit
11.368948247078464,0.06611114186612556,-0.0509359438136076,9.889214571189372,0.34330497831339113,-0.14271427413474724,0.07014396138896158,627.1937315816745,420.5847224010765,648.7746866044037,sit
11.419031719532555,0.08608638638884164,-0.03895904748925561,9.93045560060185,0.2058494446598515,0.4274207509266246,-0.1518443378486983,692.4296503647752,477.4689184630639,617.5988746399968,sit
11.469115191986644,0.040499548090190234,-0.07099339985701052,9.939031628677382,-0.26405995498053114,-0.21350519264002674,0.013107667975815017,666.2849733702698,424.636414312766,620.8315675915829,sit
11.519198664440735,0.08855227951067549,-0.08143158449046628,9.916252600519257,0.1691894017187163,-0.32697893740712497,-0.1921555382024316,749.4189253151743,404.18281121247253,518.6206839701056,sit
11.569282136894826,0.07907508926321592,-0.020233324743849812,9.90025368233021,-0.1323127952535673,0.15535558062131888,0.2331554426608481,646.4693451321094,361.80355574322095,509.87438494669954,sit
11.619365609348915,0.07452468125107237,-0.08462666838521099,9.879968070695837,0.17628787977880264,-0.1591144666737371,-0.04802729903465753,757.3686569098788,406.6842712055769,543.8871087484401,sit
11.669449081803005,0.10190319412418945,-0.07551381087567603,9.9261011467742,-0.028293513521758743,-0.10675483331070154,-0.09922559586475754,732.8188660291422,338.5156544891181,639.5610628778587,sit
11.719532554257096,0.06933769668477256,-0.08424338678061111,9.951757801805156,0.00027860888325491025,0.21884974516247033,-0.34612518937429615,725.0703273797172,414.4774483456944,681.9577776268588,sit
11.769616026711185,0.05162063786659896,-0.05088619101059702,9.907328581838948,-0.07165141102021791,0.040205076361486035,0.06481127930027489,736.524401194617,339.8555714673921,621.9336939784466,sit
11.819699499165276,0.08357594051998907,-0.03209156749951005,9.894711744284455,-0.09823646826431293,-0.19604998687278444,-0.04952227449841973,652.3582430589886,364.04272955271244,650.7004874256104,sit
11.869782971619365,0.06189389963786655,-0.08706090047675444,9.912642185383577,-0.6559471782730959,0.2397099867851895,-0.29409877223152797,655.7709216651018,349.29202181099635,603.4336837146129,sit
11.919866444073456,0.047015723293603616,-0.06358888790369636,9.900468712402297,0.05467616020738958,0.2240131422561769,0.09664478158936893,655.5636435107971,391.1396085736462,612.7475417310874,sit
11.969949916527547,0.10538375043191256,-0.061789930495718945,9.923498993827002,-0.03101496115029541,-0.10383407953439863,0.005471995770993389,686.215788514427,455.14574586569074,654.8673222330922,sit
12.020033388981636,0.12504848912498084,-0.03924137469094066,9.958626077940698,0.6294749940053859,-0.13571322788234072,-0.2275560457765231,702.572894251316,410.7061166833955,605.4122368366537,sit
12.070116861435727,0.07454645577196242,-0.07365257216944394,9.928441813067186,-0.01262769614089921,0.24203672601795645,0.5242291067181568,630.0520159572529,395.55843822874806,642.76085812158,sit
12.120200333889816,0.07720671433012785,-0.040583532647579586,9.911482312128046,-0.048242039135961,-0.2887352946137563,-0.1148813754994535,696.0498748200051,422.3793522630879,653.6498906121094,sit
12.170283806343907,0.06773097039693766,-0.07381933931397468,9.916765406417964,0.0851087317918846,-0.30005465263934084,0.19852485208760914,658.8335262945847,416.68959324695726,608.8082386422954,sit
12.220367278797998,0.05846281348353212,-0.06559570561188015,9.961280940862252,-0.43799576287200076,0.0738661702900919,-0.5336532814906553,587.901672896661,367.2130163824975,595.9660040529811,sit
12.270450751252087,0.0771305687493888,-0.07259687220329221,9.898235685335536,0.15562884757682915,0.0011933478174940275,-0.00911543069613011,650.6707681580023,439.23342319728783,585.6576639901618,sit
12.320534223706177,0.07553115367914984,-0.07445465181002749,9.902137983612228,-0.12965476694024078,-0.6075799385210487,-0.10149406782201309,590.7427147637823,402.20343721310405,609.0054213036967,sit
12.370617696160267,0.09241645988720566,-0.10580131600435472,9.958000927356279,-0.08266211868767573,0.39513139174846046,0.004741969746372588,718.5787319794083,427.46845672946085,611.576146761328,sit
12.420701168614357,0.07832164140903568,-0.08227032532602788,9.949122322338782,0.0390593693593931,-0.05870638410975565,-0.36131188622400773,665.3966489564716,368.40626087388523,656.6941699844687,sit
12.470784641068448,0.0938780299741615,-0.05313593720365182,9.946476752871437,-0.23019040834041374,0.18177672976802303,-0.003110174363874151,722.1588633279695,334.74692265796955,681.4419373950606,sit
12.520868113522537,0.06749901356134286,-0.07817891436313701,9.934308011236354,-0.13864241064439212,-0.0710505290562704,-0.15936640977301547,709.8493223865823,358.0429481237942,621.5818221040042,sit
12.570951585976628,0.09250479971944078,-0.05321982345321324,9.92906143394587,0.23373119615003343,-0.3807999166692668,0.013622840316996407,683.4164857825264,370.42560826211417,645.5350576367371,sit
12.621035058430719,0.04199956794157722,-0.046436924159254725,9.907221502972988,0.10253074253083595,-0.02154464516217935,-0.5654694100232747,709.1775644064569,328.16162794244366,623.0759657020122,sit
12.671118530884808,0.11188750168664341,-0.060776273700921216,9.980184978158523,0.33276201597129773,-0.061136426990191985,0.19143856485334165,725.8051175865774,433.90147928505655,571.3149647246405,sit
12.721202003338899,0.0682209485769193,-0.06448662828694945,9.919046993118675,-0.04607036447156417,0.27312816934545714,0.046078663583041836,730.3833267296776,402.75384681733,578.275805073608,sit
12.771285475792988,0.06088632572645128,-0.07934144843042884,9.950832584310799,0.30409336819274163,-0.4631725961296541,-0.033725199746435376,690.6910576192257,418.0940234253409,608.7344552858228,sit
12.821368948247079,0.04038566079106986,-0.05085332780208248,9.92472503649666,-0.012912046663513674,0.2622312913197676,-0.3105352605013403,641.1035049763792,426.0290962015846,653.4912557535224,sit
12.87145242070117,0.06359732440418836,-0.06086232656295716,9.91000137307958,0.2536677602571411,0.3258616437445437,0.4175223015652817,711.1344137404204,383.61963121342615,551.7250940877975,sit
12.921535893155259,0.10817468575060372,-0.043526685027451786,9.920220901492957,-0.16312354616778488,0.4365608330042771,-0.2230031635144878,660.229367932312,397.8454031295518,632.485252132423,sit
12.97161936560935,0.045406587959639276,-0.07775828127741269,9.941284968120549,0.5124778597775141,0.0032800701665421043,-0.2180685600156661,672.8029696896402,287.2657126318327,576.4019336929126,sit
13.021702838063439,0.09891381126304159,-0.025409321890893163,9.913480630871417,-0.09338893749789577,-0.053839885174261054,0.10587622626708204,616.9633137627411,394.4780742100171,606.9820901691135,sit
13.07178631051753,0.06360266982668998,-0.05911661108307691,9.89993787835087,0.26010333225934346,-0.34618392940103,0.3600239423909444,656.9409652655136,387.2945149746918,621.2151028314819,sit
13.12186978297162,0.092560958040869,-0.08209069275647862,9.90896754741977,0.1566145058934297,0.06709483574675572,0.4062085700132951,735.5161723950163,320.7905640940746,626.3551937030896,sit
13.17195325542571,0.08741407011924289,-0.07940059450120289,9.909454699655557,0.23353744282925248,-0.03785031413540309,-0.06235303982538877,699.062884966362,384.97212615317943,606.3628624261653,sit
13.2220367278798,0.08955397641156373,-0.05874566527478398,9.89609474369407,-0.18122560311598077,-0.14374160729996732,-0.14850348525767537,618.8603901253518,419.4178156485249,594.3351392915631,sit
13.272120200333891,0.08091642963714274,-0.0340158568611848,9.916689598199966,0.2866194799929916,-0.27800772001714663,-0.12983993486343387,630.6436077132382,397.22211757462946,602.5892354725684,sit
13.32220367278798,0.06280661207008817,-0.06670002165652564,9.906981467324226,-0.16167323899893318,-0.05389113940448121,-0.2711887500046185,664.3564234362944,379.71082657889355,627.1810273873357,sit
13.37228714524207,0.08960483128330426,-0.07563047064844383,9.899258995740993,0.06600692873551363,0.31883192670208377,0.11543872228592744,708.7989989020372,396.4037618164299,644.1995349137618,sit
13.42237061769616,0.08870511522541823,-0.03524158108342315,9.947657036606897,0.06040723168507828,-0.21443787577324797,-0.09735004636595987,646.4634784929132,421.77488603044816,565.0253005781085,sit
13.47245409015025,0.08103305772660986,-0.0831994450111945,9.881274582388436,-0.2271670198746981,-0.15123442098260226,0.3190070855203421,626.4298642174049,396.28097751623375,639.4541326766962,sit
13.522537562604342,0.06336470904106714,-0.10200194421091366,9.934549286428194,-0.12982451248469554,0.11481364389620524,0.3034794484534824,686.6095804630667,347.4170575111239,528.0981259294725,sit
13.57262103505843,0.08622870924813768,-0.08648921506078887,9.92555872496827,-0.10259878788031525,0.6546093191946356,0.30914539901951227,679.5636504530014,360.47297790677777,544.143292003025,sit
13.622704507512521,0.09161932228826342,-0.04776819420347681,9.930775625265621,-0.06305698036485928,0.16060145014231808,-0.5053950021104113,721.788685063774,357.08130018343985,631.1734253657959,sit
13.67278797996661,0.02231476775816804,-0.10151243464166582,9.910657708859146,-0.15746002206651422,-0.304958061648266,0.07677382748293703,695.3746351391125,357.098531547915,651.9175270888134,sit
13.722871452420701,0.08822744081629698,-0.03298957547516759,9.901939286010542,0.0077872328517554976,-0.190500206347457,-0.4023592885981292,739.9764444873249,425.1128428175896,603.1700392069035,sit
13.772954924874792,0.08701177730983456,-0.09008663431316238,9.89489676871793,0.6109737728078349,0.2564012029106297,0.24576926149975326,682.5553665441748,372.60138884484417,627.0131830455379,sit
13.823038397328881,0.08493418048344376,-0.04240288697112176,9.894076972905165,0.03940034562079928,-0.3189819382684672,-0.6917083978683749,659.7198697135502,435.86329240697773,657.5436689723268,sit
13.873121869782972,0.10185126521362817,-0.06254032217501153,9.876264118370925,-0.22620514785554624,0.13129991500136307,0.12291768115678083,706.4842052124956,323.50159691188236,620.639566183305,sit
13.923205342237061,0.10106317893669511,-0.08885797117855836,9.92911981421053,-0.17193018398365942,0.4314644458950765,-0.1685763498792273,702.3833237023066,426.7091985626835,658.0289566291592,sit
13.973288814691152,0.08056374648679,-0.02276267603709546,9.920551759306226,-0.07605892580019187,0.07375161812593523,0.10428097398271785,715.2177485742474,374.2329634265059,582.8682157792341,sit
14.023372287145243,0.04791078896711738,-0.07464679958104985,9.916018025637218,-0.3827744802878812,-0.16909573315353493,0.2949784540166996,673.8160406714204,432.8940404912627,632.7589256033218,sit
14.073455759599332,0.06104892807948001,-0.06113962741993188,9.918778754836362,-0.0595948147899815,-0.44313016116757264,0.04416638052416797,625.7458353994751,426.3522196364658,638.1704372281081,sit
14.123539232053423,0.07320678802870774,-0.042570734633884263,9.916130912495696,0.31225792490170245,-0.12936847148998445,-0.3083239266566586,756.7922646048416,405.5326736422607,588.0481532448271,sit
14.173622704507514,0.07500388499551137,-0.03326232863686628,9.911843965641918,-0.02329703298948703,-0.05855429300386337,-0.007038519528956034,682.1310300496325,394.94009009685556,652.7927997191204,sit
14.223706176961603,0.05401367925413053,-0.05438633359781105,9.918935447888035,0.04895195048275805,-0.0020232864065014592,-0.07048126361994163,718.0600417484466,413.53072012786487,559.500742313181,sit
14.273789649415694,0.09710913530213469,-0.0676911487179167,9.932958758092477,0.13677987670313632,0.1949722719400604,-0.30441930813507145,709.2917219102922,403.2650614749942,604.0418837440702,sit
14.323873121869783,0.05197164519405804,-0.031774519916905,9.930483560759466,-0.27000123495321415,0.2986973692838049,0.3006931579052003,591.1078056162412,340.1751369388147,599.9803789608701,sit
14.373956594323873,0.07539626459793845,-0.05520565369226278,9.92475708557353,-0.054072644414263446,-0.1674204012304886,0.4484431251182008,724.0340102735921,372.5608846950809,670.5950190245823,sit
14.424040066777964,0.08959817282385471,-0.06089404570938444,9.896607222305226,0.2660581298291685,0.40795769413508914,0.18979235094972766,663.6783090435645,444.9986076023473,626.8694958132631,sit
14.474123539232053,0.10695901749002808,-0.03282066695899931,9.916075572404056,0.15390313846980735,0.4616265877126965,-0.09484590293305709,718.1738962831081,427.5906254869589,532.2459569112553,sit
14.524207011686144,0.09348977816756988,-0.023053652260058947,9.939946763749298,-0.3004113740638425,-0.012451914879386072,0.12544497713113345,660.3232257262963,430.078360292231,592.3664838923589,sit
14.574290484140233,0.06787988873153825,-0.06412354841117193,9.948653932869119,0.15697742056331798,-0.14593290858091051,0.06182077455174431,662.4887306909986,430.57710903919815,623.0639191613444,sit
14.624373956594324,0.09367225697542307,-0.05041581994035747,9.881930257984521,0.10959579981055727,-0.011163800969149594,-0.3746508123647803,643.4499915737417,442.0132577934288,569.0030546913363,sit
14.674457429048415,0.07376787908223195,-0.05461930305751707,9.881104773198652,-0.4747447960057495,-0.3999453142651652,-0.7808752917777182,630.641217856916,374.91546716332806,632.823989849092,sit
14.724540901502504,0.09659321727847486,-0.052190078948406056,9.936305080081267,0.35979893363610366,-0.03155367581333123,-0.473599519067716,721.5699626447544,360.4783759483684,663.0445776188855,sit
14.774624373956595,0.040926070824196914,-0.046296038594019824,9.910481413163653,-0.3451559713820985,-0.3431831585013264,0.07284686166506339,669.584255077172,399.920932876041,623.0264862494216,sit
14.824707846410686,0.08226405765535447,-0.06016750376983767,9.921637667604713,-0.18157832985001018,0.18201955822156551,0.18476692588952207,618.910288867344,406.348432485883,580.3644421047896,sit
14.874791318864775,0.09446643142014663,-0.03406527186656523,9.963716619749196,-0.10067922035685589,0.272959063930315,0.6495670890409787,659.6854713866783,408.78014597218055,571.316879121016,sit
14.924874791318866,0.0532944639255757,-0.06117630461454321,9.913977063197212,0.19849157782198595,-0.17297231797136262,-0.5335450926902882,735.1101185745132,424.97314662148756,607.7555778697813,sit
14.974958263772955,0.09992435049669914,-0.06667944583079129,9.921974576476298,-0.27037379744435336,0.23245669061163507,-0.016341544187321616,725.9978191274374,426.24233339171445,573.2407361294709,sit
15.025041736227045,0.06681024796627935,-0.05864434474629403,9.914962650981549,-0.14177778307243336,-0.11814837137020222,0.2350853175350282,691.1403597493166,384.60825709129614,608.0848446805219,sit
15.075125208681136,0.07935197793251896,-0.0735959946344766,9.897753061821309,-0.23164151320307597,-0.29978851609507895,-0.30551320590013253,724.1775415824785,415.53929939944135,639.4419187919134,sit
15.125208681135225,0.08472529693045214,-0.04639033325380751,9.907401881353367,-0.25291000024146115,-0.09379827864875104,-0.02753548941349791,761.1131366181006,411.6599919110211,629.2941126387395,sit
15.175292153589316,0.08628077401937449,-0.06491198429596737,9.902205163717678,-0.15303406698685537,-0.1242792926464449,-0.1081340829284839,681.8886198793384,387.69378982888736,611.1269824971716,sit
15.225375626043405,0.08670821407574147,-0.037487058030996695,9.958131889969968,0.15789654180207766,-0.1673279059885459,0.2619779655847623,777.7415195045041,395.3928399959531,598.8273824995453,sit
15.275459098497496,0.0818775782661847,-0.02884483001453132,9.893694043829502,0.22547790852901622,-0.3616311197273446,-0.042253170177449416,723.9839976241035,330.22792192362294,633.8259315303934,sit
15.325542570951587,0.0761163175095784,-0.0647999832297739,9.9314354430265,-0.4789338010606981,-0.21237645255980775,-0.2208477676641555,712.9260076063599,380.67877649008864,602.441459808981,sit
15.375626043405676,0.08206060282157544,-0.03422533992461292,9.920380585343997,0.09354393991693628,-0.04360894700606964,-0.0013139530984940513,716.7587543929243,397.0496517713171,733.4506302095907,sit
15.425709515859767,0.06529699732002724,-0.07679947801182735,9.921969458993912,-0.020012285697341207,0.11944283966035595,-0.3727526242368138,679.6629005062529,353.3204150506638,583.0517816229604,sit
15.475792988313858,0.05052991170000342,-0.032044172891008985,9.91242452834047,0.13942728761653855,0.06959109019131969,0.11366348601808249,685.0029600686441,411.82695631158435,563.6757401293878,sit
15.525876460767947,0.05029904273201855,-0.058068659618249696,9.919706070222603,0.21116959868701202,-0.20714869133648775,-0.4032358689612401,587.4603450199538,366.6265915082313,651.8153528361547,sit
15.575959933222038,0.10480945805838457,-0.09636696452725416,9.958461231077775,0.18109966441224737,0.22979694504218728,0.21840371018843008,600.4150782433063,358.41323636198985,585.4466779812111,sit
15.626043405676127,0.0536799529291046,-0.06394710268858271,9.925826088596265,0.19625681980405965,0.22547335959983525,-0.03199205428730738,657.6246271034125,413.6666671257014,633.4329258795848,sit
15.676126878130217,0.11273383126535359,-0.040819711795832,9.88859577336663,0.12248432579257675,-0.12052407236792369,-0.5573619683334428,636.6590269149816,408.91831065807844,529.1063159477908,sit
15.726210350584308,0.0867480596589259,-0.07698885843650667,9.917517399790912,0.057310503286945896,0.18194301654560896,0.07116711125998043,605.6748098060652,388.4934817516956,589.7612593540525,sit
15.776293823038397,0.08770498277065711,-0.010831011311531684,9.910012850432608,0.4146157945196483,0.1489285915122343,-0.2757082118921371,706.670142841395,442.0167948078216,661.1573202648508,sit
15.826377295492488,0.06795838895637979,-0.05684366612922052,9.920623319061335,-0.1842179301272099,0.09609547893808056,-0.02431867585330554,700.8649884320688,363.4672756851365,628.9069295815964,sit
15.876460767946577,0.042691228613787595,-0.05171199998356211,9.93043179695601,-0.13355932940407525,0.542317133233613,0.2890354793292697,596.1122897481912,355.00086830372726,662.8231429847327,sit
15.926544240400668,0.09929650006623375,-0.04742174474153388,9.917269889835573,-0.09774804451448652,-0.01804703228913273,0.046258899052389196,722.613248963781,400.25166883339864,663.2069230263564,sit
15.976627712854759,0.057441255394158106,-0.08688474828975011,9.947067284062076,-0.1307614423348376,-0.3340353268861905,-0.29565681745303524,701.0881299435806,402.5742537646737,670.6531553555718,sit
16.026711185308848,0.0802987755415374,-0.05648671211159315,9.918175495128686,-0.06897458943739039,-0.41376217844328184,0.33619038306019294,632.8275298154521,387.8000040674696,633.4987735638939,sit
16.07679465776294,0.0529788016579965,-0.05117905589637981,9.907305058330087,0.1594548101492312,0.13355270550636045,0.12668940681257823,669.3051464889568,406.1274082625143,573.5037712002022,sit
16.12687813021703,0.09210313433997327,-0.0933564494155665,9.93294191096105,-0.06091564046674218,0.116644799853933,-0.15138116817162678,725.6966028719065,417.65812309666495,641.682463222763,sit
16.17696160267112,0.06161815233215656,-0.06833648743918051,9.883147724520189,0.3005206933533096,0.033938628478308114,0.2814250770531579,714.6134400655909,398.82258684629335,565.3532875212975,sit
16.227045075125208,0.10177802673541089,-0.054134465289923425,9.916186907226784,-0.2321770261139193,-0.041128411429057855,0.3985837046006895,687.374120474943,419.65203175135514,493.61345040149126,sit
16.2771285475793,0.08530743339599212,-0.06121899131988414,9.933733721540483,0.20704298067625973,0.025505039693707765,0.11600952457030879,609.5000989072794,409.57150568024133,596.563587550805,sit
16.32721202003339,0.1004775497162556,-0.08048194896325897,9.918229275307464,0.25942251037977987,-0.11697098023324408,0.39101561592177264,617.5559628618447,361.8496530060791,649.6283660852928,sit
16.37729549248748,0.07753680522089208,-0.08074589334175789,9.91283704098621,0.03704619314269971,-0.21648298026786783,0.12263579446155276,696.2768104449433,458.5860921136875,598.8382937813358,sit
16.42737896494157,0.05936028462269389,-0.03431115685571505,9.876825411142187,0.4476390268653571,0.14109482838770046,-0.18991236942782508,696.0191389060383,357.52032206004236,584.854260776463,sit
16.47746243739566,0.08828376963861058,-0.07848910651909194,9.920841524176938,-0.025714083031457245,-0.11830968484385061,0.11735783106336646,743.2077011300773,335.979890843506,628.2334601126682,sit
16.52754590984975,0.08378416481732572,-0.07438689193456474,9.89087214040486,-0.3974646384081804,-0.26749506359378394,-0.3147972463185127,781.895882926028,391.88114559595834,621.6562679844658,sit
16.57762938230384,0.09742149627473004,-0.07816751335060212,9.88773036726855,0.3977349618673296,0.14496056488955164,0.19565194008964854,765.432137519871,426.3654905137303,568.4405050558316,sit
16.62771285475793,0.05195416409281475,-0.04640997394021139,9.97578947418661,-0.44521784410674925,-0.3186496795548954,-0.21754698785941595,736.4932796028216,396.0782022755585,649.8076193823199,sit
16.67779632721202,0.0953457180838332,-0.039336158913298794,9.941855245048616,0.2603010929134249,-0.5345923245470725,-0.10600158585025299,800.3506721154666,383.8516572215781,661.1821006545506,sit
16.72787979966611,0.07795417381260193,-0.039470407579872385,9.91914100068363,-0.2192447840727212,0.2348609889914179,-0.041803628450924335,707.3525409635976,351.1158379528084,677.9212931401194,sit
16.7779632721202,0.08057028750482492,-0.05560241234843953,9.940717446481537,-0.11824112865137346,0.059778894654935064,0.22443091918987534,715.3606920141139,341.4282568151687,589.4015645680372,sit
16.82804674457429,0.06066596445826901,-0.04982478428537511,9.925438567857713,0.1851529136918618,-0.010860288096571231,0.10096318460051952,634.7636476191608,321.46495311668434,623.8380845589658,sit
16.87813021702838,0.10049081056041981,-0.05201162807060957,9.904077225407027,0.26468048995504706,0.004200761349688592,-0.1878180421860536,704.1709717017175,398.5428804727809,527.3549117509438,sit
16.928213689482472,0.0636616140953023,-0.08514042547277864,9.907086119120697,-0.3896462055119823,-0.2291347984897996,0.025447675245189493,737.812187716497,367.0937183056428,604.4766220646904,sit
16.97829716193656,0.07334277389100663,-0.034836484236259346,9.907327881964392,-0.13257351212625967,0.14165234233140905,-0.2705649894667655,634.8980621191103,354.2525075599848,647.0268417330335,sit
17.02838063439065,0.06826951524374669,-0.04766658466732186,9.936241051284439,0.15521981117225825,-0.2002750645452823,-0.09776066785263539,609.3680259500895,330.9692558283956,643.7951885567211,sit
17.07846410684474,0.11942025500863704,-0.02889283515406671,9.896901066090749,-0.21501286869902667,0.03519028006966834,-0.05510981418228563,684.5585605809005,346.7701717985246,591.7193200752015,sit
17.128547579298832,0.0911691225919967,-0.07135834997562146,9.908442339749845,-0.2591095662461567,-0.15253062586987381,0.16787247706198297,678.5794652618893,396.42362534670536,705.9229743592342,sit
17.178631051752923,0.08158784012647415,-0.04803531753865121,9.913840286396727,-0.09228172873268516,0.1565138730766301,-0.06563518767674975,654.5499642265539,428.7314945502685,729.7558090308455,sit
17.22871452420701,0.05020026014993904,-0.07794907454664018,9.922209664449696,-0.09476542719841595,0.21962321320406714,-0.3767039599640059,705.4068585255006,403.13890144439125,601.5300591870264,sit
17.2787979966611,0.10010767877204606,-0.05229960528308989,9.90651190446894,-0.6671697969949015,-0.07581292061404454,-0.2754163817384009,733.0016426053061,358.11678414642813,658.1448504243638,sit
17.328881469115192,0.09309414025298691,-0.03249903232045517,9.914926732528524,-0.03908929044385556,0.2632427103010901,0.20238427280633225,660.5127022422914,375.35596237777384,663.0385218748124,sit
17.378964941569283,0.08145341932560035,-0.04639402041326611,9.9638120374273,-0.05033771417427344,0.19296578921086274,-0.18613012957414266,651.3860290912789,357.91515828191064,646.757062046174,sit
17.429048414023374,0.06638735137075427,-0.06551584465611951,9.897209313863407,0.1561896239216388,-0.2967249121613184,0.46201863287715855,617.2976697736719,419.20720716093666,673.1000330217042,sit
17.479131886477465,0.07397396363046899,-0.07774589970115074,9.9361135216884,0.10627478827136448,-0.17538478008953187,0.19131272144351338,732.5939339772599,312.3852122112108,633.8661362160382,sit
17.529215358931552,0.047546368150699875,-0.05935435649300493,9.890213258215361,0.040261163039738965,0.18610030237267824,-0.3846159738377131,639.6390570710043,318.0711140380653,648.6263678524124,sit
17.579298831385643,0.07235059009017372,-0.06641497440801844,9.896795987771538,-0.1585043490080081,0.1670763977647458,0.19541682219885195,617.4344914968749,391.49028688563203,652.2960340702757,sit
17.629382303839733,0.11524435248793129,-0.028848947413031203,9.956920407265605,-0.10366562328108778,-0.24116231695869275,-0.1492091528069047,639.7290468761671,391.49654184619885,583.5119360518543,sit
17.679465776293824,0.0318758393238658,-0.07803970074088694,9.913734651098586,0.40734298174205646,-0.47800280800403133,-0.1334219749361581,699.988837896898,368.5871587301551,614.091740485969,sit
17.729549248747915,0.062275288701793746,-0.07508718436825648,9.93714459504218,0.17371385722498825,-0.5807458178117767,0.21371777250182836,692.5777947876496,435.51251198902685,674.2624233255777,sit
17.779632721202002,0.08032476514247984,-0.07832698999590365,9.928451069381563,-0.3481170118108771,-0.19897336047621803,-0.149224159061116,631.4202724524407,410.808218438203,585.6898256390355,sit
17.829716193656093,0.09763226142854886,-0.0479339722379961,9.9038885422604,0.29078410502007723,-0.29852541352254097,-0.03453694250759833,679.8086887849029,339.4703234932236,743.4070614449747,sit
17.879799666110184,0.0868658352513459,-0.060517330021551775,9.938606156200692,0.0790228215216036,-0.31894564684044263,0.15143327526128286,619.2492944400855,402.82520414181386,671.4851324796128,sit
17.929883138564275,0.11040864816782432,-0.08402994127631536,9.9186260099127,0.07932097617295107,0.4629971289818223,0.11996354819848996,652.5915816992768,365.43574098901865,637.2184936312538,sit
17.979966611018366,0.07126398167244502,-0.0802821477546383,9.919525180354317,0.10981534495809922,0.03937847026334491,0.06922561910013915,640.2950983727427,360.3200630288654,569.6759338714834,sit
18.030050083472453,0.046887685459901525,-0.05518507628390177,9.911852291002429,-0.02414290456388961,-0.43622674577513965,-0.05640585069454671,683.6991031963566,384.32791536462764,620.2768868135138,sit
18.080133555926544,0.059134675785135545,-0.04391257804094384,9.924214941698509,-0.17434328733318274,0.05637584726252069,-0.04685666557436114,679.9720051543629,403.7507476336287,678.5717909360878,sit
18.130217028380635,0.1026178374527668,-0.06288848591286648,9.940673969620034,-0.3035302804620205,-0.23171711826978725,0.3203019163457154,613.1485639378618,435.1842104243352,658.9523536352741,sit
18.180300500834726,0.08948177842854556,-0.047566123904077245,9.905602819743002,-0.45805527382063294,0.07141268102703699,0.04187520674912014,672.1376055926243,324.64638112926406,632.505719432753,sit
18.230383973288816,0.09160697941032714,-0.049155949682786346,9.91149006300452,0.8441018831832721,-0.019006654352053617,-0.3261525940567345,588.7935018999767,382.37794146393935,606.4114261923684,sit
18.280467445742904,0.08652813826714464,-0.06334756612416755,9.944312053432549,0.24410437073814056,0.3692902536015575,-0.21618716533358825,624.9263387547246,389.3228325378867,592.1675641186278,sit
18.330550918196995,0.08879082231264725,-0.048834383579197276,9.934595197149582,-0.1282103589055746,-0.054031548356737444,0.05155554548435694,674.0379507419657,412.2492444309382,610.9442808962366,sit
18.380634390651085,0.07930208653030416,-0.039800777279250174,9.904290745615125,-0.08734858278485141,0.4063156066197398,-0.28550554218055585,701.6662308858712,386.64616105211206,615.0946181665114,sit
18.430717863105176,0.10043294221826272,-0.06500921802296736,9.9307416739455,-0.04874576328996698,0.31033854410782435,-0.14226029684617947,722.6473512266425,341.4321652060654,661.6952205531752,sit
18.480801335559267,0.1083062971607866,-0.07665978400760619,9.912984353079315,-0.26120735557309255,0.28232054214189983,-0.6922691062342695,674.1921884524403,377.41893119049894,670.1054771293743,sit
18.530884808013354,0.07968256674055492,-0.0902554613737786,9.913548934914681,-0.20828069960178308,-0.3364459678650383,-0.3826888267505273,692.5741968768151,415.844366418741,621.247243456857,sit
18.580968280467445,0.08134402415942828,-0.0707603317837181,9.933948582058058,-0.2060285152399692,0.14882706977721621,0.106351649119473,616.0496969327909,405.86107056683375,670.4267922026547,sit
18.631051752921536,0.12833110256293934,-0.05353540040444971,9.894178363836973,-0.014722138656850969,-0.30397405980554876,-0.06592463078233894,633.939558665204,398.74681641726715,608.9429535526488,sit
18.681135225375627,0.10519470836271816,-0.04730633004551736,9.907081954004422,0.0835405097893293,-0.06771691677576933,-0.1534245680949188,643.557561304009,425.3884958902454,599.8667684071227,sit
18.731218697829718,0.09125951470663356,-0.049864836747174845,9.913898234774049,-0.3135127914749326,-0.2877486039457625,-0.05085750292325602,694.0021424006902,465.0922841266996,596.904429436386,sit
18.781302170283805,0.1211297197897714,-0.10360390376672458,9.960557808763781,0.01611207541987149,-0.23294313143148623,-0.3557030876537239,684.0056378159071,311.75240359458945,615.637946994325,sit
18.831385642737896,0.07584734507518942,-0.037762471924748395,9.929681893054157,0.17416722282981165,-0.3310516702089117,-0.11013212876357256,673.6209157297068,429.87324348431736,617.2743761119976,sit
18.881469115191987,0.09979978201435637,-0.03544534896130501,9.907938226354984,-0.16293666224009015,-0.16933739625969987,0.008143017798271661,692.7128007609198,387.80755745003717,523.2491885586567,sit
18.931552587646078,0.055406341272138844,-0.0020477142248921873,9.91850885068367,-0.34078286915599965,-0.008114131229222412,0.11744332377103166,634.373529752479,328.91112556027656,610.7593358369278,sit
18.98163606010017,0.11198460185142534,-0.06228188009217996,9.901819507110023,-0.11318190395349444,-0.280348220381379,0.10006127968834896,687.2871124023351,332.2574519344468,663.9464088129724,sit
19.03171953255426,0.09322053507686387,-0.044469111537032396,9.924412751815337,-0.007189497157906843,-0.06320495659961865,-0.10311396210232329,650.4969930588965,413.7149245748217,643.0171319501605,sit
19.081803005008346,0.058647220294893276,-0.09405339328760584,9.907279846561735,0.25347883921573217,-0.13895868728425187,-0.2553650328119158,684.3674140353568,370.9063887344023,632.0036680221231,sit
19.131886477462437,0.05893720277887512,-0.08983727760740282,9.948119890910933,0.21961233420984583,-0.34766214618085894,0.1566327082692327,687.9295088648797,370.3248457346586,567.7995331596051,sit
19.181969949916528,0.08975998157521968,-0.0671085473928166,9.929054555613876,-0.4389502110513599,0.16559711675489022,0.17169108261402385,663.4054135890486,397.9779183021943,556.5731039887182,sit
19.23205342237062,0.09539550298465531,-0.05518330588805085,9.934832726333177,-0.2124214503464675,0.02911249620511483,0.02453097158824363,639.2665947085746,408.25941844795153,609.411911647125,sit
19.28213689482471,0.08104016734820899,-0.09016284884405007,9.868761424971234,-0.13185752700975914,0.17545307737831964,-0.015242945114884221,671.4745013869033,438.1022139437,643.2779424200831,sit
19.332220367278797,0.09806995323294232,-0.07626777070821963,9.927093219232471,0.788084763009911,-0.2115248799084569,0.17250931651854745,642.4908487659966,427.8165283709152,620.3267513327727,sit
19.382303839732888,0.13075855546200957,-0.05566464940432667,9.98913320594086,-0.09018123052373019,-0.13701042098864202,-0.5037384809519093,675.045366252816,448.7522640893334,630.723228254748,sit
19.43238731218698,0.06813987523581898,-0.06097235270787759,9.922213061065621,-0.13872887807250714,-0.259291938483933,0.04031659225554925,650.2456716320398,322.1130239420191,631.2506074259354,sit
19.48247078464107,0.07677942496392122,-0.05948271990703748,9.936731845029593,0.17560219226621657,0.09014801585893874,-0.03969258643126384,649.0170348977531,436.98522594644805,586.1879675023397,sit
19.53255425709516,0.07236154780139258,-0.0404426621720773,9.888212507132986,-0.028027595279398732,0.5545419813692833,0.01132970589814885,650.0192562478413,449.4285988071655,527.0240917264621,sit
19.582637729549248,0.09285596694254895,-0.05520989628590222,9.927231152110572,0.06693626357150356,0.15443620379327883,-0.07467768349781273,723.9374198467646,395.7154297754188,614.1652036214336,sit
19.63272120200334,0.09099395693867077,-0.06992297067323264,9.911233765737068,0.02092263890604756,0.21371735431728034,0.1524492830110588,675.5664114501474,413.0977365254642,606.4587806178552,sit
19.68280467445743,0.09404668678170594,-0.07769356458107775,9.961748297639499,-0.2697951559230998,0.047502952087193594,0.4699566700530995,754.2062614766027,454.32353200563375,610.6594394944358,sit
19.73288814691152,0.06134759275661048,-0.07601456139307555,9.916808338680296,0.22607359367721752,-0.5339775664027501,0.2415595788797619,710.1607711391822,376.49406668515786,629.0605978605263,sit
19.78297161936561,0.06860937861006997,-0.05027278416983593,9.896282672288857,0.08360723485818819,0.14222739037882678,-0.014132617162701273,595.0946442740668,407.16420320101236,616.5849687588483,sit
19.8330550918197,0.08862826223236049,-0.06223616216145135,9.893021658131069,-0.008155487460145843,0.5038545367928198,0.71285662165838,560.511208789105,361.7420497680714,605.9222579288253,sit
19.88313856427379,0.04289569578240595,-0.037809852908804294,9.912062180285867,-0.27283089418876333,0.13784196137803034,-0.6272398751468953,613.7139698353116,364.74847852360614,582.8745177134955,sit
19.93322203672788,0.11315094906689437,-0.06125942895627423,9.9445917447352,-0.16396676688551132,0.06067911276532866,-0.06844433095227365,621.7887040179788,351.15550456957766,669.5682010991188,sit
19.98330550918197,0.06856964559261011,-0.06865000154527824,9.97225610915533,-0.1062976157316644,0.09512978811840378,0.05127091847378257,702.592425466683,369.4953008249932,525.6956744707345,sit
20.03338898163606,0.056405328558056564,-0.03670652988196403,9.916817661783936,0.058729290307941925,0.07156734589657233,0.048079950175720025,712.6095210603925,381.3542416320456,577.1950757753741,sit
20.08347245409015,0.04472922276035034,-0.042028778272623496,9.941004149583375,0.31126858801892954,0.07528636790719814,-0.002889623370435448,711.4151589666268,334.2171955196641,621.1187929945663,sit
20.13355592654424,0.09722259360994986,-0.02594107527292719,9.939988269581981,-0.3159048135974405,0.07571029494586265,-0.25111784186452646,751.7776191572864,435.86968405724906,637.3748888243842,sit
20.18363939899833,0.07194421455195919,-0.059120501486720545,9.903033153796539,0.2130813818720973,-0.04667183346739363,-0.06151520353072221,677.098020291305,436.52149453269953,626.685308865447,sit
20.23372287145242,0.11468586468972744,-0.0727062383266928,9.930024191153887,-0.03546908823156011,-0.17850474183183468,0.20310738795445363,708.6707388166076,387.01591350311134,525.8250993639306,sit
20.283806343906512,0.08110465389426104,-0.09723618044092411,9.905880110710264,-0.14096531350542077,-0.19437256279837986,-0.3725095498257972,650.6598690897066,407.05910195137847,594.63205058512,sit
20.3338898163606,0.09056845707336335,-0.06250769853592131,9.920900217502357,0.27661271799730835,0.5126116024159169,0.02816206579060417,648.0326921837865,359.72956721756157,600.1952303645658,sit
20.38397328881469,0.057899871301573314,-0.023145841415634943,9.926925902036503,0.01094760573018949,-0.28891243668132915,-0.04744674066335076,723.1403085920565,350.2084014006428,625.7661897059052,sit
20.43405676126878,0.10207726576174034,-0.06159580120327426,9.931531314360994,-0.15340694092154677,-0.25957823161949595,-0.1139011288397037,733.1048206044096,324.27588997630954,595.0144323999118,sit
20.484140233722872,0.07306829076954727,-0.046604522164567605,9.886021713479261,-0.03769687242928405,0.09138693296743405,0.2508983816193609,714.1946678800268,423.4131641174655,542.7926465058197,sit
20.534223706176963,0.08357498332001694,-0.06579017139159357,9.940976323693222,-0.15606699811068758,0.005175846427303664,-0.286901023594299,667.3753643432038,411.2775096599839,709.6386631894482,sit
20.584307178631054,0.08242240323778766,-0.06119741279432592,9.902249413143991,0.3190004029652666,0.41823629455743466,0.07225974297901695,710.3943019948066,369.57492427992025,609.169857513096,sit
20.63439065108514,0.0920422749658302,-0.0007959615227257077,9.920654585131585,0.34123869828925457,-0.008017883422204618,-0.27250004393911653,587.9654229930559,422.61370362295924,668.4208305303085,sit
20.684474123539232,0.04552439920280347,-0.07266889228162793,9.924683480181454,0.03733817556683701,-0.09496392644896579,0.3633874302560957,600.2011309262625,389.2987654460539,673.1754076487618,sit
20.734557595993323,0.10470817966394567,-0.04444911875657763,9.90923464761607,-0.15803921717018707,-0.12501587522949367,0.5462754734977537,718.0614651575004,402.6057035522744,664.9670760105042,sit
20.784641068447414,0.08509113593853532,-0.0537206701024525,9.899148380649672,0.18551068722694106,0.18306459500042674,0.11137638543975938,718.5961826296565,405.99254037918763,560.7418270065666,sit
20.834724540901504,0.05602627097051972,-0.029357411524956023,9.943214106814713,-0.04733178842963147,0.043469901086299646,-0.2583285021802407,675.8335861002862,363.66028523548425,647.441434171756,sit
20.884808013355592,0.10564985303649715,-0.040169421423337154,9.899276376612935,-0.2082393477281363,-0.32745245608463813,0.3368201081727481,619.2442621119754,398.2031506408446,621.3151327892264,sit
20.934891485809683,0.08695711916296349,-0.048789891375495525,9.925198501394677,-0.31824674719050244,0.020685707499325127,-0.5304232501766987,635.5140917900324,335.58747439727836,640.0461344400776,sit
20.984974958263773,0.06858825765841106,-0.06288032269399851,9.932242457951185,0.03412510302953269,-0.08790446455808276,-0.02737040129821878,706.6899555880723,400.16583335652047,671.0117783072858,sit
21.035058430717864,0.09226182140157853,-0.08439059781205442,9.935338976345495,0.05177401324731875,-0.18783666263558296,-0.2278717184227184,674.1910241441545,382.05280492776376,665.8144940653176,sit
21.085141903171955,0.08616043224732889,-0.0785380716334943,9.950517880098303,-0.24068694085801612,0.24523081864134988,0.4697289430774777,559.8883554484366,517.0652321497184,600.5554190626242,sit
21.135225375626042,0.07655743121966792,-0.0761640819543194,9.908351886525963,0.2524501158988594,-0.3058288800184498,-0.17787390029998681,680.6378914827244,382.71923836941374,663.834720766296,sit
21.185308848080133,0.09366563222924587,-0.06469404906380262,9.910241155382193,0.37224388386847596,-0.21168949394975636,-0.26017789078612497,729.227974338695,310.07577015648286,597.0434909429425,sit
21.235392320534224,0.0977356484811403,-0.00557438395208372,9.946747625337936,0.00922979994153068,0.25472803236141056,0.09694544654413133,681.7688315755717,410.273729693651,647.7464299954172,sit
21.285475792988315,0.08290357312886627,-0.07186244975634537,9.9233206261383,0.08330029481262352,-0.20537282859399586,-0.2804309999281604,709.4033751595697,367.0718189453326,538.5118894996356,sit
21.335559265442406,0.10500122980210376,-0.06056462813013216,9.928212663765251,0.01383063958696702,-0.11554137428046626,0.14350651806183826,661.8473226376436,297.3346351492938,567.4906895563261,sit
21.385642737896493,0.04923108265352654,-0.06838205918282914,9.924118917095122,-0.15744408016595346,-0.27562033094152927,0.08756649077071418,632.5305121394114,360.0320573505656,644.2812160862803,sit
21.435726210350584,0.076652560681704,-0.08167003032129232,9.923212235659394,-0.1655919974388526,0.06992148429244108,0.11644673747919268,580.6419744753962,409.7092906213325,605.6786720773713,sit
21.485809682804675,0.07885039402506976,-0.04829473060474059,9.906674374081781,-0.39397478426074223,0.157396837794192,-0.03280764695218968,653.992936000191,391.05644866470874,521.4698856102261,sit
21.535893155258766,0.08071208201366334,-0.032651091524439,9.900370388165147,-0.07385461260660081,-0.1328018858766131,-0.20160854858567906,620.9409339338536,370.5739053707235,564.3024445589385,sit
21.585976627712856,0.0794178545053757,-0.04015121564091652,9.931943373883131,-0.6595788720787837,-0.034827557034254344,-0.316280295020851,723.8493524567011,429.7840631059659,625.7896446732511,sit
21.636060100166944,0.08843507141406873,-0.033593040647199646,9.889505619294889,0.09232933764217773,-0.5688426638945364,0.40496501927322753,598.160687941345,420.6934308473622,570.2242943839301,sit
21.686143572621035,0.06442494560970562,-0.06736055920072515,9.934777175101932,-0.21427064549630037,0.225461227527058,-0.0844436119324772,736.432520943171,348.23044664266126,549.1470438656584,sit
21.736227045075125,0.09123310664332258,-0.0722434479741158,9.947924268383387,0.014185102977030224,0.11851117590584888,0.18734839185018096,731.0108907277292,396.3352693000339,641.953841441894,sit
21.786310517529216,0.0702959947855746,-0.08122257697959401,9.901573451767764,-0.3422818942199259,-0.02474669992382508,-0.25425947985823916,699.5361117019187,383.01485060711127,632.5838686814658,sit
21.836393989983307,0.07089761928113117,-0.06340296637541862,9.899421126927274,0.045910844178794305,0.0630314426311724,-0.10561671722658227,679.9767123722883,387.98994693602543,653.9642736549057,sit
21.886477462437398,0.0914023586429598,-0.031834964514157654,9.94585665172089,0.05341787168291608,-0.3786526308386205,0.39601326537860676,692.1451727044711,426.40302291368374,603.0738836559349,sit
21.936560934891485,0.10345562827871443,-0.07179013642092046,9.92369917484336,-0.3809590894795342,-0.21123939300202926,0.1667379003679513,739.2591995334842,380.856840327112,622.4493702307433,sit
21.986644407345576,0.07345439149010823,-0.04049566383123704,9.908336363259913,-0.05238193627838572,0.11766010974156398,-0.25501338989915356,746.372119651014,384.3726985312501,604.3926960323012,sit
22.036727879799667,0.09559624625298518,-0.05179952936358233,9.929357567490456,-0.3945892619905437,0.3434433235566669,0.07542404532219056,696.0586480544681,421.6033377081256,581.4239280650928,sit
22.086811352253758,0.10587958348865968,-0.06128026033100981,9.91036321977804,-0.09907579223304482,0.0895649364304641,0.3106911325107338,612.4497605114584,394.0290902444742,593.7367689401691,sit
22.13689482470785,0.09461942293144096,-0.055343246080591414,9.96660728134006,-0.32981823029868257,0.22653682970687272,0.19852203138455618,734.6393497371594,391.6309956743127,586.5667202481737,sit
22.186978297161936,0.0747799233778169,-0.03960552805355719,9.967712359784507,0.1317468325791093,0.08220152142227337,0.20233636863602178,693.2933929618868,329.7382184244921,659.4993464580587,sit
22.237061769616027,0.06038725453193719,-0.06391553004872726,9.943991795982543,-0.13519992699899533,0.37385532527073123,0.02659706900017798,559.996500177865,440.40014353431434,652.2141798456831,sit
22.287145242070117,0.10308727818383492,-0.0831760562215371,9.931495911532343,0.062101707288124156,0.32647317246172036,0.27830159840146645,738.4692425661261,401.6491992231224,605.991046363079,sit
22.33722871452421,0.09336420493262322,-0.05217018202617412,9.919849290867457,0.1396243736180106,0.44118734626951467,0.2178862502770064,642.0790696803781,355.4183843037209,520.5496471368664,sit
22.3873121869783,0.0738476730898116,-0.05082147457678381,9.947647274964826,0.11608713389084156,-0.08606015793600198,0.3542745976358542,645.3217186075483,388.71949022046306,650.9109417376603,sit
22.437395659432386,0.05028727972525042,-0.054489068174571886,9.91547160122811,-0.1501277801316439,0.07817085936802387,-0.41935571247317205,612.9407070793935,368.2750750796268,650.0691574599788,sit
22.487479131886477,0.10289616701818824,-0.08670527585472645,9.896797953565482,0.0934014027638707,-0.2271299121474826,0.1282856858590343,624.4862895569606,384.7733110773022,541.6213288755006,sit
22.537562604340568,0.02705402301285445,-0.060529064413671285,9.931361975865642,0.15289346712679616,-0.2528969857450439,-0.3340170769854975,682.6039119794707,432.0729284637042,586.8511679521346,sit
22.58764607679466,0.09041686787706861,-0.06294101948395409,9.938165287039482,0.5498405860755252,-0.027603313010773133,-0.26389386636632073,761.3979891992905,315.4717852344694,573.111048342843,sit
22.63772954924875,0.08076500161281004,-0.08432106759845581,9.939931824456206,-0.19063847781162765,-0.016636885159743604,0.6644669837931708,629.3046233478547,401.4906764169543,611.0180801044703,sit
22.687813021702837,0.06876149218068942,-0.07177481164108812,9.900723724329321,-0.31859243545620286,-0.0913005260985192,0.02938793333864122,581.459016009251,437.5063002520259,628.357762238436,sit
22.737896494156928,0.0735685962156526,-0.031050911505751025,9.876245972165314,-0.41412179884127226,0.29365368987991924,0.28612456404536707,715.746713439232,384.0520516103472,671.4141734701092,sit
22.78797996661102,0.1078329535273495,-0.0684741409677842,9.919574233404592,-0.07566657099026221,0.5948859416310207,0.026300217043771192,698.2146786141076,372.0199084748057,608.6052418174667,sit
22.83806343906511,0.07838216371448611,-0.0338288040573991,9.929737098801818,0.24223889990267855,0.4425664485274856,0.01701426787538561,678.4341863847053,355.66673140232683,543.6996394763426,sit
22.8881469115192,0.09050631778039818,-0.08492211754723239,9.909756363120081,-0.5281040717506733,0.34511911066855727,-0.09124027866956597,692.8261816842025,411.2564153198199,656.7591085955573,sit
22.938230383973288,0.12926329026219122,-0.08188310028646317,9.924868698930855,-0.10278353316466513,-0.2541086368814657,0.22897727608227408,677.9329021225535,319.9560584603695,713.129638645605,sit
22.98831385642738,0.09455962461021607,-0.05121935065859917,9.947778887741704,-0.0207146553461824,0.10881286810786842,-0.3578785340527163,679.887896835973,456.74158574694354,574.5893142100854,sit
23.03839732888147,0.09652321788588958,-0.07425162074379019,9.939793731978405,-0.0760216592718357,0.17051080163032328,0.4300387401667528,729.6312854800572,419.9345207832916,606.3131724361234,sit
23.08848080133556,0.055101858711818316,-0.039476443206974576,9.914005406512924,-0.020752864414112414,0.3463389095081428,-0.007456628436707284,672.3038395277092,424.3606010468475,575.7642416608115,sit
23.13856427378965,0.08034190345961872,-0.060659064341558815,9.921500867171428,-0.14109902040080016,0.10814854717631411,0.19786654018919828,781.388761854427,387.10197342688946,567.5152279830531,sit
23.18864774624374,0.10259741962337891,-0.0702204208464773,9.910811817499209,0.06794035118721888,-0.32888825877112615,-0.0667643937617509,671.4830397726752,360.7641570266366,641.1394440832498,sit
23.23873121869783,0.08353753608221844,-0.0835238030771904,9.913043174848367,-0.16648341153065727,-0.031818932899024856,-0.06719164172312526,648.376812505278,326.11691900568974,602.8177568599926,sit
23.28881469115192,0.04069745632681113,-0.05728199037445062,9.933495828521352,0.08727698589954787,0.7526220072214387,-0.064358658416721,684.9233345114103,374.48225362080717,598.8156750939131,sit
23.33889816360601,0.08514026736899245,-0.03436822262432746,9.906955979456903,0.23531443420581663,0.344737646311478,0.12394418052529325,713.0091664530655,438.3548359400985,588.9180517648972,sit
23.3889816360601,0.03533412169432738,-0.060228921001256056,9.907419004770091,0.37667598239187766,0.07046661980039318,-0.276874755049902,654.3625994562453,422.65422732953505,654.5502086359451,sit
23.439065108514193,0.10218169439981631,-0.04456808311007693,9.911867512588767,-0.33129326698156397,0.00020030048959904955,0.16675196511423834,614.3832639665673,339.88322143040415,560.0526223446766,sit
23.48914858096828,0.0735826483546008,-0.06339007774387391,9.926956167101299,-0.05888875830652687,-0.2925306044195844,-0.05592626024138042,744.4552899530322,368.1741369672641,596.9241879213146,sit
23.53923205342237,0.0821928825214186,-0.05958120338704285,9.909209764804766,-0.02373984596055245,0.4115484469382469,-0.2364678122602591,709.6421469210408,379.2707345034999,610.0701908180567,sit
23.58931552587646,0.10462519526692177,-0.07610214586606108,9.898230006538212,-0.20111479592132026,0.1528096669473926,-0.20930660414982985,699.1106901027161,456.2757893099314,626.0966502327415,sit
23.639398998330552,0.10041498803469,-0.07637363310205464,9.915892784507301,-0.1789419810298378,-0.2032185904227437,-0.2861378801967621,744.2801278317255,345.52179554093215,629.4200117580552,sit
23.689482470784643,0.09397894751311721,-0.07090695551473236,9.942053603570292,-0.3113241938719639,0.04776922831482669,-0.1271798411643143,677.6664607211239,415.9373998339631,546.4820346661596,sit
23.73956594323873,0.0993434872853846,-0.055686148500370646,9.941175488172858,0.13626193852298116,-0.2463670833830304,0.06274810802112643,650.1657633476299,392.903464538815,662.6395736777192,sit
23.78964941569282,0.09129613206104636,-0.07284162035248241,9.918545706659753,-0.2281039150261895,-0.0796242888659954,0.006215450963478217,699.8903176764803,452.4564707415875,657.5320794827101,sit
23.839732888146912,0.10068008713507906,-0.05355890662295145,9.935223236732915,-0.5564787828857698,0.11852953623565292,0.1557266928840621,691.877953925089,362.6554706464772,582.491881800054,sit
23.889816360601003,0.08867781994406568,-0.08459535836932754,9.88137726983063,-0.0016375421861547495,-0.045309401207197106,0.1201852755850373,776.4029202874048,354.34691484871814,651.957418454177,sit
23.939899833055094,0.10027193635327995,-0.04756569551612537,9.935394521414867,-0.2273805441032301,0.24399020637106258,-0.1462668142172657,606.0187174366376,405.9972085003677,594.8988270835944,sit
23.98998330550918,0.08888289576073326,-0.06315237874951399,9.91237269729831,0.4591285508600467,0.4419537158634494,-0.18883094123731547,665.3750714329298,422.56941921091646,578.9252177054667,sit
24.040066777963272,0.08978233766429844,-0.036488716124531806,9.938399289595553,0.11651074794739077,0.1368288592276896,0.3531283805016282,758.3818861860766,365.3579868502068,648.8535238198319,sit
24.090150250417363,0.04269591172380648,-0.04930839614169148,9.932162416020386,-0.15846955401406404,-0.11000393337741336,0.1250147670135294,650.1908012367653,366.44772846298906,622.3154849908148,sit
24.140233722871454,0.069112247951419,-0.06359711442939577,9.93000996558264,-0.2325422267538135,-0.2895961623656466,-0.20902249709784054,641.3748439326887,375.0489872015252,600.5049256702007,sit
24.190317195325544,0.06076173917775966,-0.06316215946398274,9.967439899594792,-0.3928954634886314,-0.004270338074696639,0.1973756874165225,660.447408696707,408.8146924093816,638.5318965658679,sit
24.24040066777963,0.07670176094038564,-0.06837392000103308,9.894942173521816,0.08583681288846268,0.11803808437186693,0.36491810977476874,653.1610476596339,356.0704843729484,661.440937466066,sit
24.290484140233723,0.08861890808038271,-0.031832134142804,9.924315061717868,-0.2397341455561606,0.1828505027648187,-0.12625990051978223,694.2702350164406,353.97146958725864,600.4266930710421,sit
24.340567612687813,0.07088920721470905,-0.08627724353326913,9.90012216595733,0.13747711265140314,-0.16841970374904414,0.10089609535365798,705.2134715518074,416.46407542454506,544.1330631513256,sit
24.390651085141904,0.08510003406940939,-0.05215196347969896,9.92655408129725,0.08723838648157911,0.3195244683437606,-0.1384119541262599,725.519882601872,307.1317843352285,638.9994593352397,sit
24.440734557595995,0.0776845915051313,-0.05213295409084452,9.92841011636288,-0.05110149231815668,-0.12182022318564198,0.07875991181864657,670.1611950453544,446.33692837694855,614.7110339718442,sit
24.490818030050082,0.07865842638536337,-0.037828515311769804,9.933893807695991,0.031170760846989075,0.13062296768646153,-0.24765577902985447,694.7940058474135,357.0480819028516,629.2768158169139,sit
24.540901502504173,0.0694231200227069,-0.052986632320262045,9.876549035502062,0.5384328409162525,0.19158134846963784,-0.10994586217201686,657.4550590944398,393.2262630153117,688.7989984638474,sit
24.590984974958264,0.07771081967265003,-0.0742781320660304,9.924352004395052,-0.040721527015860286,0.3020660423032299,0.24890425690020068,657.6469923830235,363.0404184681763,665.861491208097,sit
24.641068447412355,0.04468490681211961,-0.03859639765897818,9.914953411690899,-0.037525915423036925,-0.04061083464828217,-0.4454905170476642,682.5801424180486,382.09195163003,563.5438012964637,sit
24.691151919866446,0.07824063336983199,-0.05874233646512417,9.97523314528715,0.0727950058107364,-0.12437521823857219,-0.13801376081051425,703.4642023613866,403.3558927318975,589.2913529348266,sit
24.741235392320533,0.05934441959536313,-0.044213809799147026,9.883329557503735,0.12520651181837256,-0.26900299757615564,-0.14577458295965867,617.9932090541314,390.666737655564,624.2414781417018,sit
24.791318864774624,0.08218813965966283,-0.040723727202070126,9.943390655013033,-0.18424281275819754,0.3901418845691811,0.31459629864502947,627.4449709482333,458.7954591934166,594.9814102416997,sit
24.841402337228715,0.06570289890499127,-0.06183788813324219,9.905233872918863,0.19969094488604008,-0.15356440021093423,-0.32774852338821336,660.089215755263,348.55624858378815,595.7522013545516,sit
24.891485809682806,0.0792253508082047,-0.07557202681422286,9.924654532705892,0.3822560236502312,-0.15242203052837344,0.34079525649607983,674.0292144309041,416.19422008812364,661.8458127372809,sit
24.941569282136896,0.06877932997914873,-0.06000168538929798,9.946709915273923,-0.19286327772136788,-0.37386810292228884,-0.016636341390535186,704.4039282689237,379.3035556682339,716.6458530107909,sit
24.991652754590987,0.10554406354295928,-0.08046815936394663,9.92837442336993,0.15028957059386133,0.17983399182792184,0.24269194042387374,665.0208921878677,363.7519348531768,580.3098781496012,sit
25.041736227045075,0.10159573542091849,-0.03567475395737155,9.91188031472351,0.10428481154881737,0.16354661169439555,0.30743699443583905,635.7730786218552,380.3518143350394,608.3503904911372,sit
25.091819699499165,0.09246405851046437,-0.07342524248312464,9.923857693374483,0.13818255273495667,-0.025274804665629667,0.1480429668860832,619.4588916787422,360.8300383561166,605.4174259393524,sit
25.141903171953256,0.10580071718586655,-0.060931913825738974,9.918764494120444,-0.30103839656184733,-0.19855129690529186,0.16438269534250619,705.8472618173321,427.1628211961148,673.0089404324328,sit
25.191986644407347,0.07035074155868455,-0.048232013708569534,9.926864269532228,-0.11383774071938142,-0.41226268555198387,-0.18012407038020978,672.483997654583,457.77386637672214,589.4285565151595,sit
25.242070116861438,0.07979454814458378,-0.07236744217787434,9.949505510999959,0.320086004288169,0.10335367445643551,-0.026087612630494875,774.5178615631083,422.879400251236,574.9056061885021,sit
25.292153589315525,0.07569926538122622,-0.04092914193493455,9.984921565018853,-0.1489745918460535,-0.04001415277807038,0.3912810341764337,736.7683953214364,367.2244798855284,634.09035203395,sit
25.342237061769616,0.08673917378551586,-0.0500504356768398,9.875914940558564,0.035839365927060954,-0.5630313943981501,-0.3410651486968189,668.9574512015145,387.794967592571,602.947540927671,sit
25.392320534223707,0.07672571370952087,-0.07192095733208817,9.896290097210404,0.013950430067534013,-0.07678921930804612,0.13894997096731868,683.4848833265384,380.48915594505354,596.4971580846835,sit
25.442404006677798,0.07677710033968699,-0.06910171015416149,9.892712779689942,0.04876828755095803,-0.40117307633324567,-0.1300026272127939,582.6869334570338,422.9936708499184,576.1632951725264,sit
25.49248747913189,0.08116500697570089,-0.015331224377106316,9.91703758978246,-0.15409180725382995,0.15039366324970763,-0.04223382838645165,645.3905007194915,356.6664898723364,577.7127998504034,sit
25.542570951585976,0.07501648134033372,-0.06086864707743624,9.932326440307786,-0.1560574362354243,0.03372799878669918,0.3651034232194816,694.5592019677084,334.6947148051106,649.3522031489907,sit
25.592654424040067,0.10480518192430402,-0.04006057566033054,9.929487735262294,0.3921577302288186,0.09116365050208901,0.28088534208885446,687.2459457098477,462.99308526668483,614.6362743306686,sit
25.642737896494157,0.0698467748362135,-0.048740866052388594,9.942148396488324,-0.04145184453795313,0.30348541358821957,-0.41411689890359565,704.5977204032519,383.01970591862914,567.4041777943448,sit
25.69282136894825,0.07837636909557363,-0.030636223600942012,9.940598084248343,-0.5979123255959008,0.10279233973042273,-0.10732646722617789,684.7590692647157,350.4703066036771,624.9423103121787,sit
25.74290484140234,0.06289692186791523,-0.041906216182841474,9.889125328573828,-0.28524040615880397,-0.24834027253250895,-0.03631370413803132,618.1143751030917,371.8699706719977,587.3364941416422,sit
25.792988313856426,0.1076680636918995,-0.05523393339988427,9.925170094699233,0.030934436953951337,-0.4278922303457703,0.23723812649559373,729.1516101362029,336.63943124395115,688.9827752496674,sit
25.843071786310517,0.10659508294193809,-0.07040998591114184,9.920179188061358,-0.24000619463556785,0.3128258430684254,0.20571827774926077,616.1703308575629,371.8577253070574,660.9552214467167,sit
25.893155258764608,0.06638933431700089,-0.06340785020002558,9.872241126674673,0.22657929308116007,-0.06662460868860691,0.04232526032202939,637.2982814399993,424.696090245754,593.9639060047945,sit
25.9432387312187,0.07022431719292815,-0.04865443250799253,9.93090991055893,0.06468868154430825,0.45039597474323473,0.22294933588034135,702.6823644029449,385.9954824234112,597.4024438216086,sit
25.99332220367279,0.04647066983174782,-0.04769042240776729,9.902133998395202,-0.04860233735866122,-0.28134197547828216,-0.5236240963596922,631.1428066859685,366.94925132425533,623.3820467123245,sit
26.043405676126877,0.03813142025185713,-0.04381029507694503,9.887857134941077,0.4459110405421714,0.006921708848527994,0.38032167858703986,654.0877791930658,346.00740178581077,652.6504685027962,sit
26.093489148580968,0.07169832850652352,-0.08419689795185548,9.942266167229915,-0.19014664752798627,-0.2749482162915627,0.09031787382124708,667.2798078500019,380.46930559889825,623.7686105233886,sit
26.14357262103506,0.06642269171052428,-0.050029105143127174,9.947717373027352,0.22781609098254438,-0.26673913839719837,0.19347868792700013,642.11274309683,389.62521306967193,644.3058579166191,sit
26.19365609348915,0.08516223983096838,-0.02584451453739616,9.92726317543754,0.4797519950372791,0.3235367379692355,-0.01304702404374514,668.0291959958085,344.1604965337596,647.9729069561921,sit
26.24373956594324,0.07064296117015798,-0.07827951148067103,9.94578628428788,-0.16900128574563092,-0.2161289290332833,0.21513625584594515,661.4174614832034,369.14631018659435,600.4251116588466,sit
26.293823038397328,0.1063780769026009,-0.09612677677786599,9.919785745417835,-0.22692161348736586,0.2554408781985679,-0.0019295904073960686,656.9209604803904,432.63343194598724,675.4565250747725,sit
26.34390651085142,0.045487489017074105,-0.07200974926685075,9.952605196487823,-0.24371050602653274,0.46436625013227834,0.21341813142446409,704.6853511817781,370.4464825343321,688.4203222732692,sit
26.39398998330551,0.09099564181898469,-0.054076935928869585,9.914542560353446,0.018861046155350277,0.10958704097102624,0.07314970485198731,770.5493099682033,400.17287449376863,654.9713939545186,sit
26.4440734557596,0.052373155214128816,-0.07221574294264718,9.93731592848067,0.2894253185327444,-0.12511185790935409,0.23461805492153445,674.5220030059185,433.865910792401,612.3003886322596,sit
26.49415692821369,0.08877106040061532,-0.04957326676312184,9.88115314747281,-0.05279036404544154,0.18820773080160716,0.009859486005679064,570.681497278634,349.25636694742303,660.0003306841795,sit
26.544240400667782,0.09517897406745007,-0.07968519928975985,9.938528070671433,-0.012417006431360003,0.35217941617810733,0.7454333240346599,627.9075334728846,368.36876911866756,614.6079894030283,sit
26.59432387312187,0.07430422542341525,-0.045759404077084745,9.883477039140805,-0.17934664512082196,-0.1664570481601547,-0.24701800076492417,624.6425281744129,410.6136224005477,585.639257994691,sit
26.64440734557596,0.06675769232222131,-0.03575557621209707,9.941381546217519,-0.3646447913237977,-0.10308383740748056,0.47142965117495356,654.0370399578053,403.9345066011034,693.6307204248945,sit
26.69449081803005,0.11804207673076877,-0.06736020027606646,9.924300873901162,0.3979338332997807,0.5595863829957053,0.30937275757805904,645.1829298652247,361.56304144975303,615.7416139038802,sit
26.74457429048414,0.08797409134242222,-0.045178430736520184,9.933387813718232,0.4331342425347538,-0.29103306220567204,0.3003000495553377,737.4540145492703,411.0559671461704,535.79300445443,sit
26.794657762938233,0.06426707071410667,-0.03692853624906893,9.934417555213534,-0.09177776856449281,0.17044327014885802,-0.08318240498257484,669.2120681753039,355.1152014832469,544.5847972187039,sit
26.84474123539232,0.09277611547005052,-0.04471324534912405,9.91222132658509,0.0799965286907077,0.23830696588946151,0.2511917969329836,607.4233829460462,365.65139764426965,528.809450943527,sit
26.89482470784641,0.0599625695725913,-0.09158893829093072,9.955344291412057,0.1958992690938095,0.08175152517832002,-0.24578986549310272,653.8611105484777,445.9558656896195,608.4838195625988,sit
26.9449081803005,0.07710592981239489,-0.0679397949688659,9.934905218670936,-0.08904855667774364,-0.06002963708364845,0.33069166615180035,627.7753585587762,393.9726700400256,629.1371607416742,sit
26.994991652754592,0.07503058289528532,-0.07730693385148407,9.931052487781498,0.11591520962723104,-0.2731012231593199,-0.15673220394789494,647.7875454483672,374.1762291065016,635.6118710455573,sit
27.045075125208683,0.11424198427619886,-0.06595058522658978,9.901756464167295,0.2768792214056535,-0.17801992028162036,0.14178308268603548,670.1105102458636,413.494970891887,665.5701725133598,sit
27.09515859766277,0.07706051747061385,-0.07735496622681935,9.862519302658024,-0.09363788773147191,0.37462366918461654,0.08898439585342463,736.5326015353976,436.1220155944179,614.6219152688511,sit
27.14524207011686,0.050488260742944865,-0.04612308635153013,9.899229149115394,-0.22986010539075,0.02674291081110382,-0.46333037118986237,683.3698541882843,384.92642331694924,636.9841056777237,sit
27.195325542570952,0.060378651155796395,-0.020915253156096388,9.95038832171813,0.004492701913495371,-0.4000420445159751,0.13705129128601562,676.6599624789203,336.91102076422743,711.2898261384299,sit
27.245409015025043,0.1113832093582133,-0.058151442957992225,9.912776914069882,-0.4723633222163675,-0.09763544664559151,-0.24733234738809717,723.9009269802102,450.9085227653651,759.8878646006542,sit
27.295492487479134,0.11777830387009151,-0.09612653807308107,9.895456889380533,-0.06255915326181853,-0.35634187751496693,-0.26709222263839755,688.0063629290096,348.9438882824671,638.6969442307267,sit
27.34557595993322,0.05856905813638142,-0.06281317573243805,9.933509302176509,0.010921856657162714,-0.037985451146523526,-0.33747127233016766,685.9987634595975,359.1212509484452,649.5919687000294,sit
27.395659432387312,0.09667856981196399,-0.07094716168102785,9.92003337480596,0.3005817157287954,-0.2715835145247463,-0.3240119792242899,720.772366535375,378.3609684031846,636.9296995272932,sit
27.445742904841403,0.086190081402076,-0.026025095851929997,9.967637624513687,0.18173516409409377,-0.5360169944858155,-0.22491615384603317,751.3181033268354,410.2627869243951,648.1403745749627,sit
27.495826377295494,0.07221374550102486,-0.09005332166194426,9.91203366709571,0.40166607346363115,-0.01621645551194794,-0.2031860240375746,609.1476290806165,378.22259624074445,634.4760558348105,sit
27.545909849749584,0.0580594860904504,-0.05731884412521171,9.916865789003507,-0.5777571464150595,-0.1504793435930225,-0.13565605883826656,741.0117554103589,376.87346503314865,609.6769223838713,sit
27.59599332220367,0.11307298186645219,-0.04530142595036978,9.923517544257367,-0.07654599347563357,0.04461643044702031,0.18445527632995287,725.6209845299121,354.12258954534417,570.2048049200603,sit
27.646076794657763,0.09328297355004853,-0.046904364717603064,9.905442276676713,-0.16644480896025737,0.2347331003867299,0.1698723192292794,720.1201508969077,380.8939365154348,610.0732233136102,sit
27.696160267111853,0.06634737832264573,-0.05238513976157044,9.895477372171134,-0.07810761112665977,-0.23897524426720612,0.17579871832476077,695.5002880023129,349.93860170524835,599.2838224534291,sit
27.746243739565944,0.08019692641579355,-0.0418737654267083,9.900376990755966,0.2225684253823916,-0.3487761076881925,-0.03273468545819525,690.9013940318034,350.5289881436262,609.9974797071984,sit
27.796327212020035,0.03845106205030355,-0.05747381718119276,9.915218386580491,0.10451838304697442,-0.028623395138961893,-0.19914360713143345,699.9398234299412,433.6177173869204,572.9084033926266,sit
27.846410684474122,0.08371247485590383,-0.06599680571282737,9.941749544824727,-0.014590865934228852,-0.4451117592820427,-0.0376942646345614,642.5270755622045,421.76886671755744,664.127030026908,sit
27.896494156928213,0.09906184927248797,-0.037901262536315386,9.933991246636003,-0.3258246046236477,-0.38759245043123475,0.100433202535569,620.4310741707384,404.69269517164383,591.1543359259241,sit
27.946577629382304,0.06430572971130698,-0.05703145115145151,9.920354029077997,-0.29484216742711744,-0.27441316331020543,0.05985999686542062,618.550266645703,376.67508675958965,616.6584956425155,sit
27.996661101836395,0.06156573767396674,-0.07087375871348181,9.933398606685728,-0.2297024556616901,0.19218179975156843,0.1778284773162567,602.2174696507632,405.5202299559132,600.5881547629551,sit
28.046744574290486,0.0577021701652793,-0.029844048487236537,9.933161914963788,0.09121153787764053,0.17048503697546877,-0.23381103180362692,641.3878617458951,357.7468298306533,574.9748466839235,sit
28.096828046744577,0.076493814032742,-0.06186199903089657,9.90503749074359,0.24401098193453472,-0.20698165654348302,0.06373346644020879,695.8986481179871,352.33593845237016,620.940056732571,sit
28.146911519198664,0.07241486315404637,-0.07236792354699545,9.938522727827653,0.0278297852275564,-0.3459775566079013,-0.16791911149333918,704.399644335125,346.5071376972444,550.2567313834561,sit
28.196994991652755,0.06792479325580465,-0.05019493131779784,9.89222296695826,0.5797564555424695,-0.035804716041265824,0.09366117465304721,759.0196603717437,336.82084375170405,635.2111869062683,sit
28.247078464106846,0.09399204763970921,-0.055248559355334,9.935037366680108,-0.018665435542201837,0.00427931761811222,-0.34315570639532544,679.1449066862352,368.42126736875065,670.49517762881,sit
28.297161936560936,0.09704345345116933,-0.05083415535339779,9.920003650798655,-0.010373807158219088,0.0391632342914623,0.09517158111063453,656.6629824206753,401.0736695636885,648.6486094728743,sit
28.347245409015027,0.09329435525963575,-0.08707998795010019,9.898672332402246,0.286614408178357,0.09988651192024582,0.5079784888106513,735.8792856863805,361.785802651408,664.3213783163603,sit
28.397328881469114,0.062326658840047774,-0.06177236596084761,9.918135232649481,-0.20086139941991324,-0.30666866912507706,0.06727285168517028,740.5680070275836,366.42070645775055,544.2356968841871,sit
28.447412353923205,0.10571369511635134,-0.06166249578339071,9.90523660392248,-0.14175276700201367,-0.12600738734059194,-0.0572292616269101,659.1452567708519,454.2452755688606,591.3844603758992,sit
28.497495826377296,0.06060252860758815,-0.04277915398397115,9.945416824195139,-0.12860223650322034,0.2862283368269368,0.3825553942163683,643.8814006117799,365.2553878100849,554.2538618129561,sit
28.547579298831387,0.05721439710056933,-0.0452023789676438,9.888318010300067,0.13471164800270713,0.0742433691750146,-0.033830943274400116,669.013074921571,435.595092659883,593.4884742986271,sit
28.597662771285478,0.08511960937897711,-0.06319263179979989,9.940677973404288,0.19803167094728732,0.07906156980132549,-0.014890428368562171,622.1564866946458,400.0348885873385,634.642549940232,sit
28.647746243739565,0.1061874078003001,-0.04410850110464598,9.88359068053474,-0.7131098258951097,0.2940077785349968,0.0375249062264309,569.2581747706198,278.3813466908715,661.4273087919621,sit
28.697829716193656,0.054825278532310825,-0.03941467096030777,9.918576130672816,-0.5472277341168602,-0.199350696808883,-0.01837826790744012,687.1470800873082,431.9455429033711,620.8440010532557,sit
28.747913188647747,0.08011851683985811,-0.03248298769731469,9.951661440816768,-0.07448989580567751,0.18440527501432014,-0.3053163363314037,706.3151729275119,344.00866937435876,552.0513708508265,sit
28.797996661101838,0.11308588301074698,-0.0768395632011544,9.918459376868578,-0.1266465988812122,-0.47332939829423154,-0.04376357567248681,672.9796890470437,347.41780859831886,577.6701643168163,sit
28.84808013355593,0.0877968592308061,-0.06831791408285355,9.94144831755321,0.5336110095634446,0.08702000729426411,-0.062086959219611694,669.021158347138,381.92290170686545,585.9647569073258,sit
28.898163606010016,0.049192307549261766,-0.08331125449247521,9.911991466263064,-0.04739651616276268,0.21333134013546326,-0.3060898792771031,674.0359968544628,394.7805770242423,601.0111727315982,sit
28.948247078464107,0.07882860131449473,-0.05821757628304109,9.949743586893158,-0.016535967867698398,-0.08905232154731602,0.34493392426655106,742.3700285017915,378.2321487971203,527.5757803045951,sit
28.998330550918197,0.0625624480915978,-0.07177006024183978,9.92337517170368,-0.1362492753030286,0.03445304427645609,-0.23612670558410956,665.9367986308982,408.6928767463469,630.4123437381969,sit
29.04841402337229,0.06304610211437754,-0.06490769638909405,9.944228656733376,-0.4090921151071875,-0.1824955951943674,-0.3632457447192949,726.9758956905223,373.7358539425299,603.9937771106302,sit
29.09849749582638,0.09962063161290648,-0.028355170163148403,9.924141797003522,-0.11985050689936483,0.7355009034171649,-0.00454474328697854,648.5950793602,444.10212214856267,671.692516553605,sit
29.148580968280466,0.08308812182095952,-0.07031049173586909,9.920933099999438,0.4073966398463325,0.36682089632005754,0.14340369980862566,671.7195165114836,420.9033761083226,592.0299499690109,sit
29.198664440734557,0.07668090082485363,-0.08676065669824407,9.92395368636364,0.05158149052948162,0.24600906802800918,-0.11472530083762802,696.1043135916137,393.64351475177375,646.4607372335854,sit
29.248747913188648,0.09815497420471443,-0.059935776903491576,9.957149975448441,-0.22569447682731703,0.19479689340081485,-0.11864668038678071,726.438040136238,369.4352050739751,627.367801884708,sit
29.29883138564274,0.09137006943915948,-0.031044897069467586,9.92464612687916,-0.36254206768985053,-0.0726712766941425,-0.2828775298031981,668.1126138622625,353.60785257742316,593.0994916107154,sit
29.34891485809683,0.07612541583849408,-0.049637297271275395,9.913839885752935,0.004309990512723238,0.04114174348926075,0.1436228931079732,707.7208108243944,402.8399109937457,635.9279703097692,sit
29.398998330550917,0.07628162770582582,-0.06757579662192688,9.953735394576332,-0.060859517384209874,-0.2188779346003766,0.3180688652014527,675.9169282068935,456.17655031568154,598.5365487027725,sit
29.449081803005008,0.068875431670399,-0.01237644682061672,9.909128126802942,0.14220511169490246,0.2844877266183493,-0.2341176037273428,599.3131269423968,427.5099953924355,641.291058084756,sit
29.4991652754591,0.08016772599006268,-0.04324886058335123,9.943803059888578,-0.3952779412164095,-0.19952700969164694,-0.034779992558987595,712.8696015128729,398.9238094693186,640.6773685841546,sit
29.54924874791319,0.09158129892729246,-0.08199177410534124,9.918167060667272,0.014616115394505635,-0.10774815218938145,0.11856038823104866,723.3811394700427,379.1673830828836,601.9463742807661,sit
29.59933222036728,0.10499078663972028,-0.10870377248691115,9.94235533635827,0.11366881643849439,0.18031147520494983,-0.10323777010832398,687.9725032052976,366.3449793543083,701.8830222417931,sit
29.64941569282137,0.08338037541428167,-0.06546974581811911,9.957031252818535,0.16945946369148412,0.14047535448754106,-0.3931635223601135,677.7290892037956,502.8981485339024,663.620632378123,sit
29.69949916527546,0.07511312987632654,-0.0630763743571989,9.957331264054693,0.15451436619019893,-0.003959767686194793,-0.1880832709947076,575.4242362215439,366.99472742296405,526.822640231494,sit
29.74958263772955,0.10459103858313075,-0.051842940067579064,9.91123534239926,0.16483504778657054,-0.3320818754743258,-0.12039146936406629,650.8000308818176,494.57134407573744,620.3158413348099,sit
29.79966611018364,0.04870701646165417,-0.07038026513602924,9.926918580290165,-0.11543807014596753,0.09622144058233476,0.21481373150697222,665.0755755920575,427.8726455248053,630.7108917467131,sit
29.84974958263773,0.061226568912026075,-0.055572710878159744,9.892185769216903,-0.019637458440361525,0.05300843080564922,0.11193234119572833,641.7654375854755,391.99047215161715,687.4800759684593,sit
29.899833055091822,0.09761930407411168,-0.0664150656618402,9.93774530812316,-0.223214601197067,-0.18461461045793034,0.4736409688603179,619.1524141994272,418.02474815668336,584.2392030814751,sit
29.94991652754591,0.10132098802981064,-0.05376133801745095,9.910977800833372,0.05404590416226246,0.014104415721233192,-0.0627783794984057,630.903926216911,376.9646920728242,653.6778877661819,sit
30.0,0.07674614057139562,-0.061183254648900974,9.919101591567163,0.2108767182236282,0.1261749022193898,-0.1236859308901274,661.6867640089484,415.8307325234297,587.5757312406663,sit
