timestamp,ax,ay,az,gx,gy,gz,mx,my,mz,label
0.0,0.05789547030422422,-0.039460557357081996,9.925409065548848,0.1697567277539047,-0.17317599092545324,-0.3577849649089508,674.5605305149554,391.9916129578138,560.6680750594066,stand
0.05008347245409015,0.09313205822338383,-0.07620112764101639,9.920678986597181,0.1435413602258599,-0.040247433090728923,-0.05544072333554061,682.3095015325359,423.0567025596192,630.5774726813395,stand
0.1001669449081803,0.09587776331400132,-0.04415929802688777,9.867855511571339,-0.20706294730241717,-0.4379631282411351,-0.026065274975831797,643.1548750568262,378.801743963638,513.0632563791426,stand
0.15025041736227046,0.06667714502286531,-0.01991690922020306,9.937567407133375,0.24881321576455762,-0.11135300030065423,0.011858580165924813,638.3672826788276,396.6569157197929,610.4940950865147,stand
0.2003338898163606,0.04951858651372226,-0.0602518859020264,9.916715711850213,0.0056360711402519935,0.23814315483699358,0.022794290220825433,671.8862731700369,398.5376678543955,672.2752870358544,stand
0.25041736227045075,0.0708249713932003,-0.06188858462701789,9.873549610022831,-0.4305841657270295,-0.06029830438048945,-0.5109387234184306,638.4082756281117,392.7912935499055,561.038226864188,stand
0.3005008347245409,0.05851817042561527,-0.07384418777695459,9.970904977834605,-0.4349399554425484,-0.07011743986500679,-0.09153232917235331,668.8009760271523,408.96047796272006,653.8008127597155,stand
0.35058430717863104,0.018692754297902514,-0.05379831466007902,9.949175154747081,0.2805404449541595,-0.028669888960839263,0.046513769905940965,693.4876098283252,386.4759782944331,701.010794646473,stand
0.4006677796327212,0.04180135933037035,-0.06874372283283103,9.915135994952188,0.04795383466135381,0.2708452564526579,0.32213191016020315,713.3181203231981,342.0060224849328,676.5248862187232,stand
0.4507512520868114,0.04728988531818097,-0.07667726074790732,9.970192642314977,0.007004569805318002,-0.23360149851519846,0.46693447584755626,758.1028580684178,393.3992620273008,578.745863970636,stand
0.5008347245409015,0.04226274289103937,-0.06204159522090889,9.90915496313483,-0.35480125756781244,-0.29353868243562364,0.5493978420214017,773.3219218158376,376.41348810723343,569.4110057465857,stand
0.5509181969949917,0.10930698133311366,-0.013867299371538293,9.948679611411515,0.40201991278134347,0.0031067573067133252,-0.26583692649316615,671.21257442112,310.29359505248595,597.9117311225646,stand
0.6010016694490818,0.07669296746488473,-0.05180895670394762,9.910688695133842,-0.26243590603387207,0.1501539487536021,0.25558200494450156,674.4370399048076,411.5490842315601,627.1988209956481,stand
0.651085141903172,0.08078960284901024,-0.09933693600654825,9.910816317516481,0.06037914286233572,-0.0774595051128095,-0.161615697369833,699.0312555651647,412.4200934824804,635.5891481437218,stand
0.7011686143572621,0.08370584045390422,-0.03207166726498435,9.901891391732526,0.18729102073499718,-0.2635961004895188,0.020370616752762496,658.6376202001301,402.3944050539105,651.6538747274897,stand
0.7512520868113522,0.07276890676317531,-0.09064313462261445,9.977892940236037,-0.6389232577152563,0.16300400810334317,-0.3698202289789219,674.9883214593231,362.8740379246203,676.9805859656851,stand
0.8013355592654424,0.05167939358607515,-0.05258305978079126,9.89310747520797,-0.10934110084712109,0.09494649052745376,-0.023522902982183874,712.0441015022986,379.30958971727176,624.0573822821653,stand
0.8514190317195326,0.09633105071202183,-0.03866636458449109,9.948099531250655,-0.32338840346349995,0.13966636966728224,-0.23986684062950317,692.1099025106239,400.6584119664674,577.9235462828736,stand
0.9015025041736228,0.12890200846811656,-0.09019777746520265,9.945674085632248,0.12122828338753934,-0.13147912821045263,-0.11363751979434947,659.5872356077182,395.8143194088826,653.4882396013141,stand
0.9515859766277128,0.12375339666501738,-0.07093586208075993,9.909945365597205,-0.21245149734959226,0.0625978228793945,-0.4265220356832331,693.7156019993985,356.78184817494343,609.2069429801346,stand
1.001669449081803,0.07729766253110068,-0.06679531062283212,9.92051180340223,0.33947076120667985,-0.24246197199174507,-0.211222628006052,764.8854547703896,401.70961902359846,646.6838609093464,stand
1.0517529215358932,0.058881972897032245,-0.04935170780095052,9.919727231721085,0.09296292896766219,-0.03829032765381621,-0.10539000319130137,730.3793061552769,463.6252348517694,688.6830184334138,stand
1.1018363939899833,0.11395045681543092,-0.08555902757743639,9.90556831124894,0.2388660571705242,-0.2483204099107644,0.14650945449432834,740.5735094009133,358.8453547396806,512.6905722063134,stand
1.1519198664440735,0.07298759107047302,-0.1410714279332292,9.935499235628738,0.7043494370617264,-0.572930476163397,-0.3613006896675009,701.9556055066782,421.23512843757396,610.8964733408235,stand
1.2020033388981637,0.1244217511706722,-0.053438648507524375,9.91590938919568,0.14511239290814973,-0.3667051871907602,-0.05220409947574268,641.4366976856514,404.6270868014537,664.3705233324604,stand
1.2520868113522539,0.06979241676729009,-0.06729172182515117,9.933030275735584,0.026050553146297006,-0.1801288986638927,0.29377585114950144,745.0993313554259,389.6521621142401,552.5191107057933,stand
1.302170283806344,0.09498834768972061,-0.05918228592274493,9.95983543644604,0.14764951906766594,-0.07811967887354139,0.09296815227896903,652.786464637465,382.4090238305287,614.9708537240101,stand
1.352253756260434,0.10541543195805292,-0.11787020439181736,9.929546059939485,-0.11507741983850478,-0.00737760419764381,0.21302703196568382,699.4197540477467,381.6798640641971,585.6025511822368,stand
1.4023372287145242,0.057894955710329515,-0.06847245287141385,9.952465514706184,-0.17868305487615424,-0.1360686293220465,-0.3143217960852531,744.3386550136318,363.11761490550856,608.0313885874297,stand
1.4524207011686143,0.0767816793370148,-0.06016678384963184,9.938413005552041,-0.14868333831018157,-0.31316654357121115,0.10896103531175086,699.2441115396289,317.3043985807861,576.7749885598773,stand
1.5025041736227045,0.08086126354619862,-0.06681721337556568,9.846545685693911,-0.2233166121826756,-0.4902464332915923,-0.022806530241350122,685.6280651584881,420.7849662860101,596.584643962674,stand
1.5525876460767947,0.07081609180050295,-0.0855879253498732,9.926131069716279,0.300828944712135,0.3086414137057026,0.012683681231904421,706.8392680048867,421.68094239082353,511.6904012459213,stand
1.6026711185308848,0.08976826356261981,-0.07572535134149103,9.921364408260542,0.07393306918312545,0.2654348842887464,0.0967440666536246,694.1766469133572,367.99062042686614,615.665145802471,stand
1.652754590984975,0.112313154440952,-0.10615127795919477,9.914387684946622,0.10119276005215613,0.2549246384713015,0.689918157155267,775.7567442411072,390.1071124092393,613.9934794129932,stand
1.7028380634390652,0.06813944586843061,-0.10560369388523057,9.93183009740259,-0.033319346499804836,0.7609757581203486,-0.25988600615498264,641.2002913473884,405.24392495405385,572.1459239564326,stand
1.7529215358931554,0.07245532347768453,-0.07038171246998956,9.934140973314152,-0.1126597736159217,-0.25915902106822664,-0.5143567466914359,742.80998228488,364.64156067813616,572.4298826536162,stand
1.8030050083472455,0.0646784259774474,-0.04674519300806445,9.928261429379532,-0.1254752740009609,0.20449786237895953,0.37359768338995264,734.0294806224678,412.74881095916146,594.0070764538715,stand
1.8530884808013357,0.012655132935917801,-0.096019452951555,9.919201222307702,0.20444319135057915,-0.05061840899322286,-0.20276492439976557,755.774017789376,351.4216041118648,631.7255744071933,stand
1.9031719532554257,0.07138941840317732,-0.055377034895259775,9.906838308727032,-0.06163341256499004,-0.12448650470865401,-0.15026418037842987,698.1550284505713,371.87633129128676,622.3874694650234,stand
1.9532554257095158,0.08654565415534526,-0.015983466329152443,9.933468462864797,0.14117900344249512,-0.05949351845832962,-0.42111049362891917,636.7496297242993,339.092567276361,566.9222859599627,stand
2.003338898163606,0.12282099073471234,-0.09205341182111931,9.886762331763782,0.30043860505657544,-0.22670408958150687,0.12213023140990184,700.5253028955284,415.4717122987221,621.6053591690383,stand
2.0534223706176964,0.09769534122063223,-0.04077481413648429,9.912059783367598,0.20067420509104278,-0.3969712999097802,-0.025882231955139622,703.8612875000553,415.8108499280518,627.8516591291033,stand
2.1035058430717863,0.07512952970469446,-0.11627283825845999,9.9559059227568,-0.17107366451062436,0.6398890701794278,0.26573122985767283,639.5862155881413,335.2879637569734,626.7330025885618,stand
2.1535893155258763,0.05734747196526143,-0.04725168790994101,9.911440852273131,0.434682711861669,-0.06638842376226549,0.10570427130327421,736.0966298265546,332.01327537691304,696.5809202804973,stand
2.2036727879799667,0.11658284114176738,-0.04166425467475064,9.892296559047415,-0.2780251779225866,-0.2214232188616512,-0.3190568122787152,659.6653052674103,449.757324891193,639.211735294768,stand
2.2537562604340566,0.15059127886785828,0.027207443722581756,9.904193232710702,0.3135110549769204,-0.02971994509224128,0.21828209289437284,694.2529909364521,377.7036812419564,580.1619664374579,stand
2.303839732888147,0.017746742250634315,-0.11742352930888489,9.906830561572967,0.155395788012901,-0.1880820834826412,0.056409281075630334,807.0531772255454,393.5836015665419,545.5893334487926,stand
2.353923205342237,0.024712081020285145,-0.035679441076445745,9.905924841765875,0.3463524789060673,0.2887398884428205,-0.024096704488355013,707.360097454167,427.3203409897068,572.0580176150222,stand
2.4040066777963274,0.08361039247491658,-0.07114227416841605,9.896875426993576,-0.46281241563137326,0.3495599352901742,0.06439989155409478,748.2048099649567,401.2067167979706,572.13202685027,stand
2.4540901502504173,0.10359865712803437,-0.025969408513961276,9.903256572035543,-0.10291890249432468,0.06100199408302569,0.21929623682937585,737.5767126514822,316.40446214483154,596.6001291645563,stand
2.5041736227045077,0.05100808953719239,-0.030408799146420386,9.93037180757502,0.10265129799993224,0.2365568804567071,-0.2175328081867008,693.3648824724362,336.4850048438042,613.5216346604464,stand
2.5542570951585977,0.07528785731341113,-0.045129092414222846,9.857758932469693,-0.34780918084433404,-0.10735582873223187,-0.0045251611768424935,708.6068253721195,410.95685373975095,595.3544027136252,stand
2.604340567612688,0.06187406716671141,-0.08096150261764443,9.968597702156647,-0.22737252838275976,0.03336760803642702,-0.037681018235151124,685.7481111253954,335.645125354597,653.9708794106677,stand
2.654424040066778,0.06698902167430874,-0.06270955058831189,9.890744396471073,0.06968765682263423,-0.15076856407443054,-0.11110756882852933,674.4276140968244,397.4127209602666,635.4077972180116,stand
2.704507512520868,0.05622252775267767,-0.046141483616022744,9.917112805128374,0.2674140397593183,0.14592346895224975,0.10790932183548244,589.5601467891418,393.82085746407614,585.7641550796013,stand
2.7545909849749584,0.06417338998196935,-0.07191231446773128,9.928216687640031,-0.053907923124984436,0.596454398811911,0.41546566011565944,694.0244801252051,411.2368654840607,617.2912369788809,stand
2.8046744574290483,0.09964122909486231,-0.040363157903078886,9.916536434785986,0.41201155269368883,0.2783204346632219,-0.00626683670122683,726.1670369961919,328.28591486696905,518.7575383672274,stand
2.8547579298831387,0.08609638980516346,-0.05345953865748124,9.97326681619497,-0.25388696537060795,0.019612813230676998,0.0907730464536785,722.7873014625937,406.9751345822851,589.7082269686724,stand
2.9048414023372287,0.08377145571865592,-0.09027154059821843,9.891845968771495,0.16819805260910364,-0.32753852406667144,-0.19744120264410073,668.4231872194247,404.3575006190795,673.9635827616091,stand
2.954924874791319,0.08573392159191237,-0.0843385437842325,9.900451108504578,0.11597394801921128,-0.05646969113594616,-0.22844325486519712,702.8597142421331,344.99981021185465,602.5074934589359,stand
3.005008347245409,0.09621337484322057,-0.11575328006662106,9.92970227265184,0.21200544566657975,0.026528333295773344,0.2051979899982456,656.6879301304425,382.7551079234725,623.7668444931296,stand
3.0550918196994994,0.062384838356166705,-0.10249652188938273,9.96219015797184,0.0415920786309485,-0.1154614848063852,0.18938601626812576,738.443615646355,419.0928011261279,596.3880579264426,stand
3.1051752921535893,0.06761640971243431,-0.07064088868407992,9.914786997991252,-0.13329464619516931,0.22270419562478652,-0.23939144956678335,659.5871908087522,415.86381645119434,603.1769624329443,stand
3.1552587646076797,0.09636104566172513,-0.058466320255123536,9.929204968664521,-0.046266218059648846,0.06625406490763587,0.025206941500717266,791.4975069427305,325.3469121505743,651.0240663497159,stand
3.2053422370617697,0.1161031649450866,-0.0628649528186998,9.946038939969275,-0.3005409185579354,-0.07082713662687795,0.12310850303675587,674.6106505068082,355.2658766487537,662.7135233844205,stand
3.2554257095158596,0.055803227120739166,-0.09041153421704762,9.979307265004719,0.20276287306408755,0.1540043652682841,0.05413380598571371,702.1985335310591,369.7930545562072,662.5548209967526,stand
3.30550918196995,0.13761137198403606,0.0072689457492315784,9.875701721926315,-0.6108292336829224,-0.19870379556606563,-0.08915251078167177,702.3083125790196,417.6286893151678,682.7132209104577,stand
3.35559265442404,0.11052162596045699,-0.04865261797552309,9.97332338414659,0.2036837387982754,-0.6401768609678309,0.15107502538334827,708.8644542063745,489.5806239376477,613.9209176054418,stand
3.4056761268781304,0.059924749637294494,-0.10872973878160062,9.923520327519103,0.0052837800522398445,0.056660935908187646,-0.18525480386209378,712.8078675526774,373.0633120272511,632.5059160575005,stand
3.4557595993322203,0.07584128231194881,-0.03050944500342916,9.925356033218044,-0.16378769949495361,0.1387884250487682,0.16453738537886037,749.3108821909755,381.24887308044816,641.2685025879265,stand
3.5058430717863107,0.0678721763404574,-0.03868714546229643,9.93583405719117,0.14977021553353034,-0.07934728621228515,0.04412597446355635,719.2052243687644,372.3290112716009,590.8223171788029,stand
3.5559265442404007,0.054501444454520834,-0.12458734515533577,9.9311384103624,0.15381264330263586,0.0076038448908032855,-0.0014314919382616195,676.7360197750737,421.12212987698655,635.3617002009629,stand
3.606010016694491,0.0784024041384333,-0.013878622690248275,9.957578707927338,-0.052007339343194355,-0.078813973423395,-0.16503139823189406,657.6840260520811,404.91357352166915,614.2903844324698,stand
3.656093489148581,0.08495030932988355,-0.0549115822266656,9.928148120999921,0.27651320543017754,0.28393573136732475,0.1206829176775386,706.8429028279461,375.4467189980183,582.0321724262284,stand
3.7061769616026714,0.053751384730342244,-0.08534523758265593,9.87431407903264,0.34951811496720403,-0.15786733615896448,-0.4405161616081844,711.3343467862684,471.09068052250075,606.8079307916187,stand
3.7562604340567614,0.09729217367960297,-0.00986624951597253,9.90368522859498,0.12901565076992175,0.16031358150818092,0.4004326098449095,671.2319460556544,378.59233916057633,738.4360057438664,stand
3.8063439065108513,0.1353545826479249,-0.03757727643330593,9.914696305466219,-0.01790475624168168,0.21482559276735846,0.12593216345139904,623.9146231685004,442.22127756327507,552.7103636323818,stand
3.8564273789649417,0.09676767470063763,-0.022233005537424314,9.929195346267765,0.23561167674583627,-0.17776960093238453,-0.02580329747512132,661.1967117702628,380.88329330847,625.3112420035917,stand
3.9065108514190316,0.0712258375037012,-0.0789723882103628,9.893598779373209,0.35525360199017053,-0.013755381957663845,-0.2650927459780517,701.5180031098718,382.2494416217593,631.4496611220077,stand
3.956594323873122,0.056597450035436904,-0.06202280517357475,9.951805361546073,0.20885276434483455,-0.24839259019031149,0.5229268003385308,623.151633286292,486.5425024018,611.0026601112378,stand
4.006677796327212,0.10098730700110752,-0.11459727314546808,9.937981658480776,-0.3230133677038263,0.07908188547677285,-0.3634006010565023,644.9757362612938,406.2299105922864,652.0589494125223,stand
4.056761268781302,0.10855466466572523,-0.01655400762590166,9.90565217389404,0.33398670234225514,-0.2019261112712318,0.059728347634646024,685.5272033537178,388.70134806852826,644.43084048004,stand
4.106844741235393,0.05310353598283832,-0.04100587598276975,9.903061799440716,0.2615671953777988,0.2742868345349434,-0.36556502624796977,655.8485869933838,416.6079628597594,544.5590604212422,stand
4.156928213689483,0.09214107557276811,-0.058997545845035,9.920789719839798,-0.139205764744701,0.31468382853831744,0.0002979299194113399,609.7850353536645,365.11720709705867,577.2479076941127,stand
4.207011686143573,0.05434256736168393,-0.06853106858092711,9.872696259247995,0.09405168483506145,0.20194787595042227,-0.3358226866570614,658.4909265344654,379.19767242881875,624.8758291795592,stand
4.257095158597663,0.08770491939627863,-0.028284508213907954,9.911008784502028,-0.26326757298593795,0.14102082256229959,-0.27892191494132157,672.251594192885,306.5428457419563,684.2195743778767,stand
4.307178631051753,0.08609517442904924,-0.0818512982986138,9.874226331830286,0.37646205323375603,0.2462870958744261,-0.07618213336059936,707.5138255779644,339.8429756888241,649.6698581493768,stand
4.357262103505843,0.0839998430382142,-0.07258290581169898,9.92840023668737,0.11547500477627651,-0.3104006668194669,0.5198470872484489,636.2050633497128,342.6899993861126,632.888560423174,stand
4.407345575959933,0.09988024661019188,-0.044456388746102506,9.96206988216078,-0.017481782724134018,-0.15862344954469051,-0.1688699355643661,677.768352499201,449.80699366883516,553.3544347571246,stand
4.457429048414023,0.05783514041235545,-0.07523174653540188,9.926627207301815,0.035529814174428076,0.086508077147027,0.2986163721682033,690.4248998712596,430.2045558152893,655.4653575931015,stand
4.507512520868113,0.06331747918745727,-0.031895667373150735,9.92521772058269,0.24207155268823558,0.10184738317511864,0.19950307992558686,706.145361737951,387.5205474255477,679.3364039888835,stand
4.557595993322204,0.10996922244638711,-0.1133171928583365,9.942190440906623,0.1265191316589324,0.05713035678737534,-0.13329969259553887,716.4608300389848,384.96137540649744,634.6424456691819,stand
4.607679465776294,0.11333570737182597,-0.07908290449876026,9.911375649275888,0.12269696292776895,0.08984361026306996,-0.02893724056384261,622.8253300396481,454.42676881181353,636.5160474665882,stand
4.657762938230384,0.0711595983881086,-0.0824273562996998,9.905984449530745,-0.15772028863583246,0.08801282038817158,-0.0001501771136158743,670.8435107918442,315.51787104446015,530.8792344613723,stand
4.707846410684474,0.1011553472539228,-0.024977475172313343,9.936018260847902,-0.21774561952726623,-0.34954532705140795,-0.148089535053749,615.1502540136755,363.6523100935156,666.7056786773951,stand
4.757929883138565,0.04505704653394415,-0.06314924555568557,9.929833021657512,0.1793580256333905,-0.029984259863016914,-0.03183384239072122,676.5265003649362,378.67386115589056,576.203480248427,stand
4.808013355592655,0.09635774967949812,-0.0800914984863688,9.964018415521346,0.05163565965807231,-0.12159644758468863,0.31763374685860124,684.3940772941914,392.1091656787002,621.4651233882713,stand
4.858096828046745,0.025223086767210322,-0.05099654516691931,9.961018417470036,0.023705794175682728,0.13366120247391589,0.2741591461433819,676.8431307869391,364.01651748384114,646.1078332825361,stand
4.908180300500835,0.08799356425538196,-0.0887140438420341,9.927206896046672,-0.057711794610857174,-0.4046575527829302,-0.0537527763143371,659.5753201589938,357.5130026126914,639.0752913742625,stand
4.958263772954925,0.07220437475530339,-0.07473622750965658,9.918047944736559,0.2131242245303648,0.13905926288193185,0.15431775881985954,591.9798653030527,371.5039285894829,660.9296273183345,stand
5.008347245409015,0.06762176535300786,-0.021322482772480812,9.888874058756427,-0.2959953468831344,0.27626660158907734,0.12828465368942574,692.2615071607202,366.49712292432093,576.9691666001293,stand
5.058430717863105,0.06955801655792843,-0.06387241456183325,9.926167077026294,-0.3261006935035543,0.4415622853255657,-0.15940918519076833,661.0363590216124,423.3780984898984,538.4129822351656,stand
5.108514190317195,0.07481179173861842,-0.07023341610835176,9.85782635716603,0.17845381268009555,-0.14333193159954824,-0.2823275049582501,713.9036294935271,391.5407988434947,540.1461584185106,stand
5.158597662771285,0.07216949332786565,-0.05163434211196696,9.873020745954559,0.0897493444143105,0.15983643322306776,-0.26740642562597733,728.1224231688536,420.4125334952435,630.6552845550889,stand
5.208681135225376,0.12387494143323202,-0.06946687785859036,9.916728280571135,-0.25621689708370043,-0.3457875752611672,-0.08590782915088861,718.547041655929,327.17971777700956,631.0705263093579,stand
5.258764607679466,0.0964404045108163,-0.08236748533964362,9.930137822650549,-0.3418158996251461,-0.26935231060440135,0.18811061461183115,682.2244607076183,430.4408416007226,595.2462391149564,stand
5.308848080133556,0.057739533970491,-0.10936813979204127,9.931380300296276,0.3759318535381004,-0.17591858804820956,-0.2501616966690453,679.4585909746481,389.6180424417246,538.6547673351515,stand
5.358931552587646,0.054568122823966746,-0.055304726720051586,9.925854637725003,-0.20401467014600255,0.2825456906042441,-0.05203000496347391,753.2333952813132,338.01719048439406,652.0875997866519,stand
5.409015025041736,0.05006672726684065,-0.055942101492250124,9.884707269073923,-0.047637243706169834,-0.1674807201376298,0.32958563079966696,660.939262862087,347.93839222586746,607.2112063337729,stand
5.459098497495827,0.13496182848375562,-0.0529511834016634,9.941447898274294,-0.1703592564499416,-0.5505631594039959,-0.10325717117131487,619.6987527066914,369.986057973979,633.1435409733094,stand
5.509181969949917,0.07859652834270484,-0.053667898817367804,9.926664144870427,-0.13014283262992216,-0.2662698869207916,-0.2831576096400666,689.4183126893454,377.619485422757,589.2130992009146,stand
5.559265442404007,0.07808636707207418,-0.017361132443757823,9.944847485793339,-0.15945865022025152,0.33106173141081086,0.08845309372462948,658.643033800474,356.99254877362523,633.2542884658681,stand
5.609348914858097,0.05631591129126737,-0.04996130377668629,9.939891706875324,0.14269371924367147,-0.027944072250696176,0.15890510906819497,645.8836345306221,377.8049114954572,665.7830343863318,stand
5.6594323873121875,0.08383878267617946,-0.0339577689015621,9.942294237594664,0.11209496479296435,0.028063356936130702,0.34701958710121417,651.4931882458512,426.414794369527,678.8374724087801,stand
5.709515859766277,0.0898354324344605,-0.006816589501561936,9.890651522958617,0.33872538019206033,-0.3789698670940619,0.05001531101495534,624.0941065002511,381.34449255992575,635.9219469947639,stand
5.759599332220367,0.07516826732731294,-0.07347007998894006,9.940266152503368,-0.20717388488528346,0.056006672525720815,-0.21867625734006346,690.0149288564113,454.04626407282547,723.8792218860863,stand
5.809682804674457,0.05830945811287197,-0.04604236475517001,9.925122356315061,0.15394382338474336,-0.14138332161869124,0.23202019986178288,669.8686578981736,434.83768324977393,505.93267797930224,stand
5.859766277128548,0.04281376346089347,-0.10971671391991641,9.924928427597656,0.10793419856636098,0.39620753216844323,0.1926712238460828,701.4197210577258,407.52128034409776,599.8071070046042,stand
5.909849749582638,0.07265793368550527,-0.038351505806961984,9.904894603972979,0.1332961292775595,-0.581903786078222,0.19970226714747907,631.0061466087689,379.43538364146906,667.1023734794055,stand
5.959933222036728,0.04411205299992618,-0.0732174607881713,9.895603368444572,-0.06055482367511586,-0.3346512264632896,0.43376022231852407,691.3986469304233,363.9465520529953,616.9871569161442,stand
6.010016694490818,0.04684125058556366,-0.128398871793541,9.932636230487653,0.02593768197263723,-0.2647189025473999,0.12709461647403944,599.3990965877496,406.7772527147136,699.5389858153661,stand
6.060100166944908,0.10967451956467367,-0.058247486148101005,9.889146106565828,-0.23583900512211825,0.06065962099582527,-0.03842692831824455,745.1341746222024,371.9097634362513,618.0551297632336,stand
6.110183639398999,0.04955491208386069,-0.0877673846593837,9.881689444263893,-0.52462437413588,0.0022593754838323046,-0.35572610593237514,728.7587743351038,379.8039853401176,622.7633392462661,stand
6.160267111853089,0.10486983279961141,-0.07004605377145312,9.883787497605532,-0.10728595221323177,0.18009287840304103,-0.44703882336824213,623.1088318064615,381.5445147077392,685.0231161377992,stand
6.210350584307179,0.05366804118818795,-0.1183797954617965,9.890398035364647,-0.3322018642577693,0.14592137787023204,0.27943371911884984,679.7595250037061,386.70757149536405,633.7455093197159,stand
6.260434056761269,0.09789696180018717,-0.06717619142957033,9.948148807771666,-0.18443091602776876,-0.16667706936941626,0.06560493783755422,650.8271136574248,417.97058612815425,686.5127562879035,stand
6.3105175292153595,0.11368940301765479,-0.03596595849628069,9.94844152424456,-0.6611666866184566,0.0054810693058225815,-0.3372659567890131,650.7016047525636,430.8362321958735,581.7801209678938,stand
6.360601001669449,0.0904743399822425,-0.08064208609498211,9.987322875516595,-0.13387612411268401,0.11151643261758863,0.4131699102027822,622.7746248449978,393.0976590071538,658.110594484863,stand
6.410684474123539,0.108938914670167,-0.16037504133382918,9.914674761125587,0.005842733984171122,-0.02877075869499521,0.12560882513893484,706.0689112978647,409.54011065688354,585.6509721410183,stand
6.460767946577629,0.04064815769184913,-0.09496349869891865,9.921977420374201,0.3547367636661908,0.265172124192529,0.1880425409138305,671.2198617658835,416.2895774524597,651.82026760938,stand
6.510851419031719,0.13887193659812602,-0.03747255037562358,9.883233824109116,-0.2549570184563031,-0.0732314996030902,0.07518997979140836,638.225388075104,302.30927924270964,525.5029739295442,stand
6.56093489148581,0.023005584374765735,-0.10619058970924354,9.901773295978359,0.2582010889430553,-0.19298329417742396,-0.2189987524447027,728.8988658241001,376.7376082843442,601.6565982260959,stand
6.6110183639399,0.10038353465296326,-0.10640677914779179,9.96077443078503,0.009292640170606294,0.2113356100796043,-0.19564183524742548,623.872927124566,392.4088841352108,604.3749265408351,stand
6.66110183639399,0.08147220741192882,-0.0576244939113263,9.871622780528055,-0.49342848658959026,0.24929615796017657,0.47101826474956415,610.2803306189398,389.30454484061136,592.4052715173925,stand
6.71118530884808,0.13594521652080205,-0.01811529654744852,9.877108787124264,0.5313914608805201,-0.06946319140125609,-0.03192500143184594,687.5064062777811,414.97702911364104,653.374588643525,stand
6.761268781302171,0.12760450988820332,-0.00042506689557230554,9.8910860205812,-0.030603529455059692,0.26719027561750214,-0.19568741134717157,664.643846699732,375.58051745807,584.5228197313113,stand
6.811352253756261,0.05410825851237215,-0.024355516860530148,9.902951215274758,0.16317483817146083,0.4379921312626223,0.20335511901757578,721.1693718977882,452.4995400220615,702.8770360450968,stand
6.861435726210351,-0.0060532938137089765,0.01116639365001787,9.901492057124518,-0.10839030096621156,0.03479615350102276,-0.02396896541586317,681.7796569323011,386.962063051313,594.3540492941636,stand
6.911519198664441,0.07821650229477073,-0.07345027665730447,9.86085177781977,0.12526966231498488,-0.18295145811622215,-0.07186599787444693,697.0844154876324,444.4538143696409,616.2097826505926,stand
6.961602671118531,0.09886856782430291,-0.05257219160377395,9.903703786632779,0.021384985100648766,0.03424526181302082,-0.24524100042337513,692.3942945638305,382.7374888641877,609.5032995662785,stand
7.011686143572621,0.08630159945922464,-0.06822590746532767,9.897859895281115,-0.09362289262141713,-0.30912289477026483,0.021906267402623008,656.9344806499838,391.568145613842,606.3301412028179,stand
7.061769616026711,0.07140705925268126,-0.07426528292322387,9.869835377015793,0.027845671606561654,0.02511486439810597,-0.08689441996587269,725.885532476543,339.01881946469143,578.7675442022496,stand
7.111853088480801,0.1404520853271983,-0.03389374269336268,9.942875237502227,-0.11082133325799343,-0.14080793235249842,-0.00886318842858283,656.7156800236398,395.7439561721002,687.2167540818891,stand
7.161936560934891,0.04635731984298416,-0.04832877240501295,9.94473632382782,0.1678732154463524,-0.47605876574111483,0.13985970110555512,735.193807320784,373.7565266446966,640.287265248462,stand
7.212020033388982,0.10561642545207002,-0.055724759695698026,9.91156258886862,0.2762115043018665,-0.0770152255726866,0.020788414030315734,602.6137767697261,387.1723963194864,636.5061360118982,stand
7.262103505843072,0.0992450801522998,-0.04984786145187222,9.899159447809733,-0.13344821200704468,0.17936921891007307,0.2078119316693174,639.2214996988312,386.03277679944165,648.972113758592,stand
7.312186978297162,0.09426467778062368,-0.07905813504408127,9.957960493570567,-0.025815049106291656,-0.0765716615951341,0.19210585275390943,722.9774900944487,363.60228881898405,615.5771581039589,stand
7.362270450751252,0.08762466955335423,-0.06986313996149812,9.892908392103715,0.23615894355618097,-0.39728833675460606,0.5028928136101244,715.6604143129935,375.4690257968827,728.6374344992754,stand
7.412353923205343,0.04286991236256987,-0.06613508151172821,9.9490211621072,-0.06340073921298063,0.3917781936712732,0.10192708420058155,660.0562573642343,388.36997969553954,589.6226183609492,stand
7.462437395659433,0.067926149961145,-0.04027934958028985,9.933385306273488,0.18565760818880794,0.05823461398190643,-0.01999813463052134,654.0386951423964,403.4664069759897,581.9854323146126,stand
7.512520868113523,0.02207534080904508,-0.033872721494603394,9.918490113113561,0.1742593964099228,-0.09524153867875586,0.06004063474847475,697.3306048845784,393.2479861950312,630.6017661709022,stand
7.562604340567613,0.06100306325947402,-0.07410054787432552,9.917133056264548,0.08428337524051806,-0.21295862077531494,-0.3946031837855001,704.1710201152283,355.8283776759249,636.5540343988347,stand
7.612687813021703,0.0652874076171713,-0.07414581324724752,9.888725225571765,0.1540346928380252,-0.48755890635601,0.3636714935283053,768.0060123587369,374.9858699407622,603.5229334444125,stand
7.6627712854757934,0.10838002149698572,-0.047111557259284495,9.89846188647858,0.006187191664866442,0.16336853998218828,-0.16631944404784296,675.723365556845,386.4891005278012,666.7487468125374,stand
7.712854757929883,0.05107970778231065,-0.009650972479744259,9.897412024326409,-0.23804022211955198,-0.44014128973381245,-0.12257814099272765,701.4784387512102,423.3791438948029,685.0636621919235,stand
7.762938230383973,0.04401795943546071,-0.05480695533948201,9.945443992368924,0.10069182018523212,-0.13415735934827674,-0.003929220741696576,705.4023119468835,340.198541395356,581.0565389249673,stand
7.813021702838063,0.06672158084351384,-0.04882688239184718,9.932039315895622,-0.16504587992389297,0.5621004701639788,0.5068682555617453,712.022587362617,355.4002767374393,628.8605162207306,stand
7.863105175292154,0.07746441123614886,-0.04882572855156195,9.92536972829519,-0.22943346609396198,-0.2412961107092445,-0.1119126140929696,616.4667335656197,400.1329658344676,624.862132866705,stand
7.913188647746244,0.11222077664913194,-0.059801244039628006,9.935695230482287,0.5091562110467162,-0.08736428304543785,-0.11513482307223526,699.7161992720589,367.05845331013387,658.7041986867392,stand
7.963272120200334,0.07578475756306129,-0.09429693641959014,9.89112154702899,0.14050445846015253,-0.24732500404215682,0.6381004593494496,673.2318362645216,441.42550351155046,619.846457813012,stand
8.013355592654424,0.08907423229882562,-0.05034120002391469,9.934566451710445,0.45621321921378627,-0.17880701492423,0.012036415320418391,650.3703542445778,329.5885009066481,563.8797161200148,stand
8.063439065108515,0.09129702731440094,-0.060422520892970816,9.929822963485961,-0.12405720334094197,-0.2847008796757413,0.10091525767757224,666.5234215083353,378.30274423791053,595.8114506534926,stand
8.113522537562604,0.09021630178824369,-0.10511925604975485,9.897370054149732,0.500933537662635,-0.12492414796652004,0.04081528078336677,762.9982891782129,380.8061064665488,613.4859495416642,stand
8.163606010016695,0.08471249463612233,-0.07448307870905353,9.871047341879086,-0.14395454314340794,-0.09923765493089201,0.06784082434588806,627.1650024229729,383.0845621371294,674.4284102869351,stand
8.213689482470786,0.08365184036951868,-0.08827900546181427,9.912866061249657,0.010314356146799878,-0.2963644267774736,0.42941824888198493,713.4451529773352,352.2120452358141,658.7228113811261,stand
8.263772954924875,0.0635722300460751,-0.06852687281410415,9.867684516275656,-0.1656715376518321,-0.5016763787495527,-0.014032963257573795,746.3110169273748,355.69191172902885,583.5062888391037,stand
8.313856427378965,0.08383861102353543,-0.041766084474993,9.9168100735447,0.13883478444928707,0.015915273968674426,0.23280195016991456,730.411911115077,411.8696688007811,649.3649956050698,stand
8.363939899833055,0.057616214905259325,-0.031350601917169076,9.906340343357721,-0.12114293978804384,-0.3018413241103224,0.11857274225990201,708.384581715213,382.9373410342772,624.4399223047355,stand
8.414023372287145,0.0845295737626245,-0.07575746506967752,9.951169828844701,-0.3534839530112976,-0.13754200016140522,0.0791066078469641,680.653811993623,394.564999483928,513.694711531278,stand
8.464106844741236,0.08893709301458,-0.0839727910093846,9.93614246338641,-0.5028005235347401,-0.648158411421004,-0.3443817937001485,767.2348734734423,412.97027700197367,567.9776243062101,stand
8.514190317195325,0.08068294081198897,-0.04450998211146628,9.957214931669542,0.10312382488134136,0.4250013092513978,0.02091098997662623,635.2978009032593,407.84472542480336,656.874306131786,stand
8.564273789649416,0.08345787740395587,-0.0829091979666154,9.933922732159248,-0.6235762955801721,0.11139681797062516,0.19139301501758418,638.5816615073771,389.2904356794006,696.5115344077512,stand
8.614357262103505,0.025475929882541368,-0.04051511402999777,9.885500030261548,0.1639343621970863,-0.09377922919320221,0.02277504575843311,726.5740383527792,344.7574894286954,649.439657443059,stand
8.664440734557596,0.11448952700425546,-0.09401870795866002,9.909250405892593,0.37433897492404605,-0.05344000862394973,-0.0319798971710805,652.1715820030566,394.3084640576679,615.6582867220462,stand
8.714524207011687,0.11535555716050572,-0.046803326784025046,9.882047000019082,-0.40457142819710445,0.07347214113197281,-0.14261178162943985,638.8389380487384,368.33147363005213,602.0127978538244,stand
8.764607679465776,0.08724458008026488,-0.08655550006003611,9.92340202645752,0.01232479945254428,-0.2668475189753383,-0.3464141639854214,667.8117816611532,369.48415401010357,619.9873663776395,stand
8.814691151919867,0.056217454530197705,-0.08341204656943803,9.928921230967306,0.014980107566469477,-0.49310291507676995,-0.04124657801158471,622.4603723075122,434.35531735935,684.9908055146119,stand
8.864774624373958,0.1102049891241575,-0.04964013517161945,9.879793274072473,-0.2247470211337789,-0.17383997369369514,-0.48439721786631124,641.9496350886105,324.1013804671461,559.3594189503709,stand
8.914858096828047,0.08044380251958068,-0.03144254148558488,9.924843822456394,0.017877713845894302,0.24500436952655893,-0.01110610085425522,683.6848008098644,413.12376707888393,618.478565599294,stand
8.964941569282137,0.07528292366898398,-0.05512405894171006,9.9407926903967,0.06092505190139341,-0.11408559505485788,0.3683064597057801,654.8269219089649,409.3308521490136,618.182078583011,stand
9.015025041736227,0.068843086672623,-0.05007570603855015,9.904924030610012,0.11807129774760178,0.2927457577508483,0.09041861657773606,666.2515124540049,366.5396359352903,603.8147012483035,stand
9.065108514190317,0.07757699232715413,-0.09998953273049115,9.92379761441029,-0.19224763029317515,0.1952455625887552,-0.29593515755771127,705.8497324855934,416.4728970684989,577.0489470181416,stand
9.115191986644408,0.004636103951043677,-0.06115990971137579,9.956891584586756,0.18353190038617634,0.04226277236110391,-0.11096581093533972,708.4188749061759,428.6955209914163,623.4080083517234,stand
9.165275459098497,0.07156070948119557,-0.0696083256277163,9.972767315425626,-0.023763499402067376,-0.1900818673886304,0.28730528147186146,688.1065611316088,405.39254836279184,589.1351318825928,stand
9.215358931552588,0.006421339838112272,-0.019749096049456683,9.888082312864416,0.39394447540104305,0.6653268895810415,0.13907229692893214,676.2549299059067,407.3997215955472,647.8135944123923,stand
9.265442404006677,0.06399497439848958,-0.05843652141642132,9.926026581833643,0.06906136428666085,0.07818263843402581,0.18197169397185067,655.4736589536428,406.2655344230644,676.2168256511433,stand
9.315525876460768,0.07649788889524785,-0.028816472926176045,9.911046575452131,0.1182483041839843,0.3036895717962602,-0.038061443736959306,730.2056899003402,307.68541852236257,673.4477396958899,stand
9.365609348914859,0.05836330552695422,-0.10341487635408324,9.917903376466285,0.03718192878373546,0.23216078044662294,0.1645502387551138,724.6068058297936,322.8909078533084,615.0197700069314,stand
9.415692821368948,0.06704650020023539,-0.08663790045722035,9.960323977524931,0.14510870166835677,0.25693795815064313,-0.4902553775456091,699.5456501195414,393.24043331371183,646.077288774492,stand
9.465776293823039,0.09618784726666968,-0.08661157475949505,9.922931390180786,-0.3622863091663781,0.8331417442611301,-0.015730873823941696,672.8428115345928,351.8964252400518,597.7948693330108,stand
9.51585976627713,0.040205446593328774,-0.07241397457229622,9.904474490282679,-0.019171284509875163,-0.3821471487437509,-0.23751107176083455,628.3202137143354,387.1675394111194,576.8655049702693,stand
9.565943238731219,0.09319629457039792,-0.1079378814502156,9.905804705999966,-0.2836244358909929,-0.30501426879786026,-0.30239731803973174,662.3409524102098,404.4285692253998,585.6219489162177,stand
9.61602671118531,0.07205491349833563,-0.027173294705208295,9.90239815593772,-0.1850537946381623,-0.04831488250121178,0.4023425844742944,641.8134287999465,415.616716913797,612.7406362881916,stand
9.666110183639399,0.0716392765102137,-0.08210761006410075,9.893614517504066,0.10280027005704624,0.48485229696324345,-0.07641784509953503,620.1812773020035,385.52236574504036,659.3851315153019,stand
9.71619365609349,0.10815112049729236,-0.012050183366407223,9.879599373901522,0.032265488381552465,-0.2715954533848211,-0.15031568913129445,675.9516791653199,399.4503555577773,579.4353986416638,stand
9.76627712854758,0.011470078721975432,-0.021690841962123085,9.90882453543735,0.19334534176830293,0.07342515079442338,-0.07576427632093641,694.1913042124681,307.27215226746915,574.1033076530186,stand
9.81636060100167,0.12764655973645572,-0.08160778991457164,9.88447680423471,0.028938390672114074,-0.06886877814157659,0.371081313271894,633.701259582331,429.8745905640913,582.0925546940008,stand
9.86644407345576,0.06753980656565266,-0.08293193439050706,9.911352106216256,4.8549464067011604e-05,-0.2944340930540297,-0.14529570384934143,614.3268481510978,408.1840884080887,618.0434312198812,stand
9.91652754590985,0.06991187506166689,-0.08488068823998778,9.915769121131145,-0.11333552670948736,0.3315662123896607,0.4104364480434959,685.1753227734213,394.31553837315283,582.272545188241,stand
9.96661101836394,0.08671772333584392,-0.06643514649407249,9.927951041098583,0.059798876377871964,0.06577453780176155,-0.14580811675873442,682.0152899892236,386.52432995536805,692.9504246944977,stand
10.01669449081803,0.09814107297032898,-0.06219152298892757,9.924656665161669,0.1344655058545174,0.05998874636318302,0.2827312354982335,635.3393672876522,366.2973958998531,595.1394635832447,stand
10.06677796327212,0.05399250060413539,-0.09175378003000798,9.889651675358367,-0.015810895366557207,0.2626231516619109,-0.08294494622545315,619.9050399055997,405.0236412843155,562.6947255237951,stand
10.11686143572621,0.12664747826691058,-0.03445461528033926,9.92807383200603,0.18485579251934764,0.15038159133782777,-0.1435614211425692,701.0892031681782,476.8830096845528,673.3308971147782,stand
10.1669449081803,0.08674134110761866,-0.03629542434457271,9.941877926471603,-0.09875585722387233,0.1695449926632784,0.013169875131805663,660.1603087723965,357.89439329532297,606.6091952082602,stand
10.21702838063439,0.1069568453969562,-0.02015610416217708,9.909815079603403,0.08042270976848678,-0.017917964591092392,-0.0374647983102317,671.7975937380849,434.7511662101017,654.1078862631823,stand
10.267111853088482,0.010319186655742454,-0.032151853823787366,9.873430206356659,-0.36377088960318565,-0.010789752406192836,-0.09048198804816295,687.0905473982477,362.63099850420423,623.725848617025,stand
10.31719532554257,0.099083747926853,-0.0710255903189028,9.929864292722938,-0.3326613945791283,-0.25360134743915835,0.21449695660787427,703.9219443206986,375.54395801523964,614.0009248476861,stand
10.367278797996661,0.10097264736143398,-0.12268010828000739,9.906346034243885,-0.16761300166370072,-0.17889991719312684,0.08084252926605878,652.1008217332469,371.1486232285507,592.6885356944076,stand
10.417362270450752,0.060977980949012536,-0.05395544978155879,9.925916041432439,-0.2160398736102258,-0.08142216240264434,-0.06058226914495393,573.0549608148661,351.95039602449634,652.9728722438847,stand
10.467445742904841,0.03357881417025175,-0.06997438561272819,9.892101149866892,0.20743178965007478,0.30395667162602674,-0.43958450521770415,726.8538270365126,431.4129136228613,603.113929174998,stand
10.517529215358932,0.10888108042116756,-0.06786927982202931,9.854383674936596,-0.14284148754434192,0.069626990205525,-0.05456278960505501,772.6077295435184,321.33488684807315,641.6972094947064,stand
10.567612687813021,0.11395932606278499,-0.06093943718718452,9.942726231087992,-0.1603713067471285,-0.04973088414000518,-0.19698468145391618,769.8478014797395,335.9549930504356,594.9250750844234,stand
10.617696160267112,0.03596647141048362,-0.09985657232975251,9.903518470186881,-0.2947463124101139,0.07470088907209427,-0.24346870087270595,704.8602097899405,405.36678474890954,571.8554838922284,stand
10.667779632721203,0.02333658280078777,-0.07818520412948184,9.881806532184536,0.033817406646571915,0.02694658971336979,-0.2952182140901255,656.3362152402451,340.3971673432607,631.9805252021059,stand
10.717863105175292,0.0625247571742776,-0.024929505194867724,9.889536503476029,-0.40580380467895283,0.511689477697035,0.46487121060827097,699.9478824373988,383.2695779531182,651.2152363655932,stand
10.767946577629383,0.08789113076255448,-0.04382942632077736,9.948664757391256,-0.19522074815619503,0.5005963640123254,0.31152905161875055,646.8899445527793,391.1899501214503,556.1352953028867,stand
10.818030050083472,0.060302496474447576,-0.1135845148823845,9.906715776640306,-0.26848747631486064,-0.01785937052988196,0.06096404329025149,727.1742444510065,371.6815423207358,673.61262000767,stand
10.868113522537563,0.05905143200413344,-0.0567328629443531,9.982891040547685,-0.24589728858421633,0.21828668139089866,-0.2111706897657704,745.0790686912488,372.3744583025611,608.0760944945398,stand
10.918196994991654,0.0676811961303639,-0.05598566344282863,10.005805856525809,0.09236564797150795,-0.0796200549840508,-0.1270204199310231,715.108139781455,395.3598335173142,620.8930575992421,stand
10.968280467445743,0.11748364627856017,-0.009738727529717633,9.977101211534013,0.038585423233132854,-0.051454136580705336,-0.5560284386075909,660.0389800438968,331.84750573209567,615.0129575636672,stand
11.018363939899833,0.04959630669860286,-0.04278775894277558,9.907591477721516,-0.6164445159266105,0.4429942145199808,0.2687963871085316,649.866242940391,395.58193414924443,557.0227253091787,stand
11.068447412353924,0.055442078158141436,-0.007661618339909165,9.894221750703348,0.10394685509706146,0.12965567627863306,0.34435755453592715,666.2030390775794,365.07030651919365,563.805498956179,stand
11.118530884808013,0.1451783734262141,-0.07332629404322732,9.912757611891493,-0.12685231064045863,-0.059116452086850645,-0.10218347225809583,670.7953496262049,402.17145353586295,587.0672329923214,stand
11.168614357262104,0.08827379213734207,-0.0018590986508362911,9.908642289360383,0.0917263510756446,0.11432467627200746,-0.0256745508648895,666.1672040731188,411.4980142206396,629.1185353865766,stand
11.218697829716193,0.05108307707417151,-0.0013337699382118054,9.866271088551251,-0.07981924371795833,0.3119552263168665,0.29796432462815237,682.2552697693885,316.8067949501908,671.6705849465565,stand
11.268781302170284,0.0898122615224954,-0.07099692483339529,9.869756864615967,0.19602566382340622,0.0538347630882188,-0.0334797427562996,623.979686834007,378.42741999956615,726.6443110221243,stand
11.318864774624375,0.10896631228716996,-0.09005234268221168,9.935212644836072,-0.09424152862348062,-0.1576466794067563,-0.03220187440625398,641.8993331827849,329.4326214292468,699.9663659748069,stand
11.368948247078464,0.09154235519250808,-0.09915570280936159,9.920207724525222,0.03412124986654441,-0.27779323011423174,-0.6361501050980878,677.3476824652612,367.7088290579956,591.1869452117769,stand
11.419031719532555,0.0610392236328311,-0.09934544775427367,9.939588877001084,-0.3389399979498175,-0.22547192123127474,0.24543789528919605,579.347898458366,433.51427333879224,587.6186568509881,stand
11.469115191986644,0.10409209498503594,-0.04581201765586192,9.906485303897147,0.3659236209308029,-0.4418609613660643,0.23486945123201938,634.7424935734879,378.6456602701662,636.1812068350471,stand
11.519198664440735,0.04562959013095905,-0.04797086023466693,9.92348417496306,-0.31091698788249605,0.2813151517288131,-0.03509899623963561,635.2293823715191,385.67601925226336,702.5409363349133,stand
11.569282136894826,0.05240246684730494,-0.08460618187386283,9.982165693925474,-0.14947032363951043,-0.31813178633749256,0.15103007717892727,698.0657578073827,420.3481588290426,577.599612134562,stand
11.619365609348915,0.06418568168523518,-0.07448188195236917,9.90704638042345,-0.08806458257858979,0.16758602374737813,-0.32774100551085694,664.9159777708096,403.13857138383526,645.6664451914604,stand
11.669449081803005,0.14135237271285192,-0.04630202001669197,9.900651634886664,0.15897280281932138,-0.3633611393353582,0.6367489718475059,665.291250728742,370.1797259220892,728.125569724148,stand
11.719532554257096,0.0677605114892675,-0.06972013664203856,9.874690008675254,0.18008260362297274,0.20682027695070254,-0.5034349525405715,677.7507601637889,423.43816646511084,602.5151447101052,stand
11.769616026711185,0.07127036870779879,-0.08459764209298062,9.897825607105842,-0.29697665270208573,-0.1546912732503455,0.059698718675606784,761.3263263628188,384.5414797845878,602.5768686333089,stand
11.819699499165276,0.089636815301394,-0.07457859677112327,9.926967895808634,-0.22423011865522222,0.1690455751481491,-0.21166263103790997,598.3530609347947,406.43348403176043,568.4114082463892,stand
11.869782971619365,0.08545403454050195,-0.05710875567757017,9.907420325622487,0.32135072626237404,-0.6265036914443116,-0.2505067009883036,587.9198005460225,365.18890486175445,607.7946749226797,stand
11.919866444073456,0.10686183494198641,-0.062004806236966685,9.94795065001124,0.0019204314272230226,-0.21565448003351054,0.15958632468452094,722.6777005052284,366.33686716101386,652.6975442564786,stand
11.969949916527547,0.09492983697510693,-0.08627846782481782,9.945190594514163,-0.035613085245789065,-0.3832076247358288,0.3751816912297884,698.9560955838832,401.46322618969174,668.0626042954182,stand
12.020033388981636,0.01215155684838505,-0.07709243450874424,9.93317236060223,0.2670947079333438,-0.07920138812196588,-0.07326659831643151,741.4556150801214,340.7314999796023,626.8932851901073,stand
12.070116861435727,0.04892558170868638,-0.0456003481857029,9.946216944440323,-0.10577729749196352,-0.38907484788668456,-0.22103373720783906,664.1944391186704,403.1519200896029,605.0507530113207,stand
12.120200333889816,0.12754590462486204,-0.011936088631441855,9.922090249907829,0.0939153443889728,-0.3712560659217455,-0.4213108472468252,691.9120196864211,403.5004435685957,623.2727928213542,stand
12.170283806343907,0.07056818542857417,-0.08236931576585911,9.897334215949048,-0.1907072423999925,-0.14756980546666518,0.22431967507577447,675.3774788676881,407.52834159026924,628.7644430501728,stand
12.220367278797998,0.09600122936183059,-0.07286562566651388,9.877198008704548,0.1878117967573743,-0.2808612038967373,-0.3005297012134812,704.809484577584,356.44366647923255,582.9497963698359,stand
12.270450751252087,0.05518785337722091,-0.09351017335008646,9.980095046637727,0.1014426414582831,-0.02893468337012573,0.05595984199597149,730.4937683948675,314.4783463865727,600.9481904662612,stand
12.320534223706177,0.12538109189614657,-0.07394130394856357,9.931306479639389,-0.45095765988685577,0.0780304079676932,-0.16492580819674746,708.9660036221528,395.5600677635526,635.8686912165931,stand
12.370617696160267,0.07943610698534354,-0.08576410640306957,9.953738297644778,0.48064865211234087,0.15819777135334856,-0.16561905191493576,743.7250453171582,375.4722577352134,669.8791854651573,stand
12.420701168614357,0.10714709312851983,-0.06287657082306139,9.91625224230759,-0.5697384300875535,0.04279512538403397,-0.1540888058755639,710.1864383539266,367.0985276754335,678.1733232366197,stand
12.470784641068448,0.09598655602403151,-0.06616793750995849,9.939612333403106,-0.24541126348992987,0.04999555035700357,-0.11943168214888493,688.0104069370113,359.83789022639684,641.1632048809447,stand
12.520868113522537,0.1255583927718508,-0.0652501515058206,9.903586200216594,0.7069405425478872,0.2530064648159033,-0.154458793886738,663.6748746138879,390.2817055809675,603.5448649990735,stand
12.570951585976628,0.12160314114108345,-0.11895551958797163,10.003905925778033,-0.35727670681534673,0.20963527754118308,0.06725394168808455,642.9276198124884,413.5036184610482,667.5852132825813,stand
12.621035058430719,0.09745499782825887,-0.03810872158011597,9.973235806031683,-0.03380856472228865,-0.21697337784651988,-0.1816741247307454,623.4454152636697,401.9721870461458,631.0892486437428,stand
12.671118530884808,0.09795671885532722,-0.04127571411225548,9.87737537519215,0.06718663111880041,0.06260767142554668,-0.03585361209393928,696.5093060063361,397.60538791277116,594.3341014531236,stand
12.721202003338899,0.06546092702718274,-0.08366865609336022,9.921701568083629,-0.026261761205589824,-0.08772203431983407,-0.01724622623795057,705.5640326681547,403.6499257620728,594.2149308398405,stand
12.771285475792988,0.08971413179832763,-0.06852066662104808,9.87425399474957,0.44566935533069324,-0.25436294667940346,0.15172778198756545,653.5856698901902,351.9459326853289,618.7662128142139,stand
12.821368948247079,0.08273311880838677,-0.05452229636778806,9.916758072812108,0.00040117399155143964,-0.563090224265508,0.5201205526961774,732.582226080003,445.88645361997646,629.2024939044887,stand
12.87145242070117,0.10427745698227679,-0.07451183722324158,9.879127984912786,0.03441667506570629,-0.020760058627483598,0.09979060654518579,717.9942545782053,362.8486084762195,611.0017227306241,stand
12.921535893155259,0.058759753249254046,-0.14020131563492289,9.886799563294614,-0.001286836891990381,-0.05663892469124323,0.11711216618969447,620.6874465525482,427.57371322549864,593.9507311307561,stand
12.97161936560935,0.06698449983587645,-0.0285149142393262,9.891945158264559,0.1142975762576611,0.0543845221652503,0.016167253761988878,595.5212223308863,298.05920347788117,637.9252107738473,stand
13.021702838063439,0.05417041682394544,-0.07775901493216755,9.950963646592456,-0.5014375516008981,0.25833045966398055,-0.28111710065803835,615.738502869804,325.6646046887653,645.1730057426008,stand
13.07178631051753,0.14671184156996203,-0.05293661682645049,9.84850599855105,0.29212988520260336,-0.09188510682895762,-0.20964851544455926,677.9993692227846,419.726248995404,524.3543814889833,stand
13.12186978297162,0.08555648127320672,-0.025645212392434065,9.899601936444675,0.027810370664563426,-0.19135239541661142,-0.14719127908937513,707.2759147805905,369.7804735523876,592.7271688697535,stand
13.17195325542571,0.03678285188587116,-0.04768010093195871,9.885356378182538,0.3889527153162086,-0.7180539059337616,-0.2507269667459198,702.3970477822676,336.748760405619,731.5190861358318,stand
13.2220367278798,0.04296364103765811,-0.08050656309789843,9.895130600947546,-0.06370752415572214,-0.3421698685562,0.05611786746098356,621.7552084509368,403.0087971794123,653.8284232749355,stand
13.272120200333891,0.02389671440318277,-0.07518442598337766,9.901622125790418,-0.20863170915111978,-0.30626635372438415,-0.30670792604880986,621.8404237677757,341.68264463848664,658.9745117824698,stand
13.32220367278798,0.11436320087452742,-0.03519478665221752,9.93852751688989,0.18833073008509538,0.1742576513767389,0.036465448197933736,685.428485708151,364.8707186921275,678.1385003042541,stand
13.37228714524207,0.09674021436249108,-0.10706683030938445,9.916258839246574,-0.41238667305580523,-0.37525002276801467,0.26677543124736425,581.5048267855161,403.4663985443989,594.0105995978422,stand
13.42237061769616,0.0887993973873858,-0.052794024581008125,9.963024485277511,-0.05330900768119803,-0.0071344900114746305,-0.6799621795164832,645.240112563554,373.87649302300565,603.6256082463477,stand
13.47245409015025,0.049309115010457885,-0.10350118476553469,9.955809011355209,0.08518278696554592,0.02390661038772042,0.466931227357885,692.55442471971,412.1966356599336,610.4379443858534,stand
13.522537562604342,0.08825455806214565,-0.08622011547173872,9.931027373286902,0.04032521604169359,0.36527952311177403,0.4362307963009226,707.2115071709978,434.83025059653244,705.8030326522894,stand
13.57262103505843,0.07904385751598189,-0.10426874666238728,9.961503718780987,0.11241469199372617,0.048355469894363366,-0.05323439683384909,631.174540146302,335.2636731415441,595.3413012603969,stand
13.622704507512521,0.03802118133171908,-0.0976121154591047,9.920158545869356,-0.14419233895128566,0.11256678105480959,-0.11738484807924605,714.4226274561009,436.33691298061626,604.6324004078691,stand
13.67278797996661,0.07440870799794792,-0.050958750665220716,9.92669068841149,0.31614240780764946,-0.2569072183993246,0.07786734969504096,694.2685114940696,339.48641666577,625.6954026385073,stand
13.722871452420701,0.034372022952215135,-0.09149224585979704,9.913969106324732,-0.18105804537323195,-0.3274328644295939,-0.30353585603353,727.434295892179,406.66576436802706,600.6436266134647,stand
13.772954924874792,0.100502884288091,-0.07936786926652115,9.94282178552068,0.51147827886274,-0.11056646561048783,0.17660135119682066,636.0453328340143,388.8692662475908,626.9497576373506,stand
13.823038397328881,0.05302056406781856,-0.07164870907169665,9.917963599572024,0.4779658416227821,-0.32547207400644385,0.02706866668667384,684.7175936533071,487.0374776485378,555.9086311023425,stand
13.873121869782972,0.12430674937423851,-0.04449756392068157,9.899281941443611,-0.5838347886256918,0.09841788838210584,0.23724692076840237,648.9951019315412,345.73981001638475,608.4258389969316,stand
13.923205342237061,0.0778987550956391,-0.039280790211005806,9.937982595050084,0.36840055212119954,-0.1282763337997844,0.7741122048928645,662.2417578277139,396.3982181514399,636.274397612761,stand
13.973288814691152,0.11194788895337643,-0.09374624447736252,9.917055595855958,-0.2575241486218523,0.29929624880865335,-0.016551919584278242,726.4481540658934,425.0400715097327,649.5636585004934,stand
14.023372287145243,0.08215386549173827,-0.04437658522344674,9.949272280376725,-0.1887831907161907,-0.362041887383503,-0.3879263319862628,707.8086492843017,431.8581050504643,658.1950345020998,stand
14.073455759599332,0.09825833580926283,-0.05990295169100911,9.831772995713155,-0.15141810158631833,-0.215419628806085,0.44804412499621094,671.2078463046576,371.4449085967031,619.2340214210947,stand
14.123539232053423,0.07675005286720168,-0.09356236872232256,9.86575860444269,-0.25748380589435527,-0.10693986044037157,0.2767863352704904,756.0381552844595,343.4002561126925,555.352284955883,stand
14.173622704507514,0.051966483899932275,-0.0777953220697134,9.886317968676126,0.08004919191172731,-0.28329281378513566,-0.4078570381097895,642.2459806748175,377.8898787264622,672.8762498060757,stand
14.223706176961603,0.05106235787778758,-0.0835102364025568,9.949577470478264,-0.27476338370292996,0.10547374823877764,-0.242252476692643,617.8608627693609,364.3883772239431,590.0995928726522,stand
14.273789649415694,0.03759718742817665,-0.09983987616388063,9.923101559876816,0.04330989727981667,0.11001917013155776,0.03121009141987547,627.6439916836392,441.69421353474013,631.1009563932369,stand
14.323873121869783,0.03980728531212138,-0.0671920395287381,9.934727652635983,-0.3140172923350044,0.0817722839056348,-0.13271290435012092,698.1005359031615,400.1580362348466,628.4698151783502,stand
14.373956594323873,0.08504567027778714,-0.05038050633400605,9.921984556142913,-0.035113349457138295,0.24079261154375448,-0.29996935154033716,613.2887959766877,336.2642761131587,568.6269863372115,stand
14.424040066777964,0.08760382845275447,-0.0829088575349568,9.94209025266031,0.12661304761826273,0.03433555276561103,0.15101151443238092,690.9730070860245,418.2756760070706,610.0403344512677,stand
14.474123539232053,0.1416772851367717,-0.05583668450626824,9.966976133803742,0.27651437110313637,0.07570688653739638,0.14130411365591375,669.9711836686407,319.2212990644174,634.5631674066859,stand
14.524207011686144,0.07975316656649907,-0.08981276814123876,9.936330289518125,0.1048550724828504,-0.4791127212188319,-0.049454227268042474,633.4317718187199,390.6648740268772,678.7193419528043,stand
14.574290484140233,0.0611243897641803,-0.031055320763736637,9.930892635414345,-0.2660097556340966,0.10575011502560058,-0.17087100065576363,733.2757386640073,368.76803671656796,600.2496642801415,stand
14.624373956594324,0.08928756847327732,-0.057195218301791105,9.92426957016733,0.04452612242315243,-0.11855055128245809,0.1061133334740469,686.48328754685,363.172385017734,619.6630114645322,stand
14.674457429048415,0.08594587319584673,-0.09238833283675472,9.911948565483328,-0.16462904719087074,-0.023202917341452727,-0.15594372484545513,714.8653330614461,428.61725560476845,664.8185236293165,stand
14.724540901502504,0.11102835289146952,-0.018600789873102937,9.88410867428596,-0.025711718499073728,0.06637287224800667,0.338996762057471,733.3683381159194,401.2585684553566,646.9622326683746,stand
14.774624373956595,0.08706913380431472,-0.04447096753407052,9.92681515638378,-0.1708025417375969,-0.07989036829837204,0.382574801949349,669.9882791655705,378.2903313271294,661.8276693752654,stand
14.824707846410686,0.08666020711947661,-0.06549251352180838,9.909872670045784,-0.24964147332907047,0.21065632245301058,-0.17042901985820508,718.3933171568482,359.05486743120866,658.4825739184544,stand
14.874791318864775,0.10512092132511841,-0.09245814919194219,9.931711143834235,-0.3499547544182917,0.025427983997301205,-0.023673222087308217,653.0932938472788,415.73555659704647,608.9042480897566,stand
14.924874791318866,0.07771007371026059,-0.05038130273216473,9.934071379118421,-0.263383053674578,-0.22874722555911262,0.47684356958812196,735.0126871050873,378.2113466384704,711.348613186265,stand
14.974958263772955,0.07333887963582995,-0.10482499698601586,9.899409166826048,0.23074246146165814,-0.11666752023361074,-0.05697901436738588,728.6601857793177,427.09147159821225,540.237548355592,stand
15.025041736227045,0.08173620773382781,-0.0725281320156531,9.946440078535689,0.06683011552305373,0.3369291379680667,-0.5904456337599965,669.6836599062627,349.6661473715732,597.8812955313168,stand
15.075125208681136,0.04961853820258731,-0.06728763646016184,9.869685823517393,-0.2791097374235079,0.4757880401552027,-0.04941285418468265,675.9275883871586,406.6266063235398,663.5596119710307,stand
15.125208681135225,0.053711964106549645,-0.05149888762626621,9.954040699281167,-0.02692457250855927,0.19796973167070087,-0.3524577272781226,748.134968684405,332.1861690658418,577.7227049316542,stand
15.175292153589316,-0.016847719783416537,-0.04053161766014361,9.87941903482458,0.12705536960679042,0.018619927160813413,0.7138873939534667,717.1486430404476,373.0125572858337,636.7658146877454,stand
15.225375626043405,0.11401623380728375,-0.050361153299659914,9.880575422943433,-0.04052086865890943,-0.25396784970405123,0.1755141996724603,701.7031259676178,340.2282922243337,570.3097684502832,stand
15.275459098497496,0.05460871789864535,-0.04559512511490468,9.901188574820733,0.005044420641708024,0.27384004895238456,-0.12053266271985852,642.0246073081796,402.315315864657,627.8375488995779,stand
15.325542570951587,0.033438627239319334,-0.05072459139676891,9.928628491657513,-0.03625060023980451,0.18415904515164033,0.147553746117,665.0449635540147,391.9153579050241,507.48961710168084,stand
15.375626043405676,0.05868391596930423,-0.11551696716825863,9.867008200701987,0.075402467457953,-0.05763496726390826,-0.11621209204306093,596.0768578021698,392.4336658485608,632.4705619945153,stand
15.425709515859767,0.0850443160747112,-0.06294255768520671,9.933026126973926,0.19303766425484975,0.09701368977873923,-0.12850288157668904,709.7025638517982,396.1621402129821,505.26783258755336,stand
15.475792988313858,0.07385984288709567,-0.02746786254917831,9.943872518005964,0.018404762804239763,-0.3347768919484119,-0.032924546954360666,771.3384296732453,359.5086160760084,606.1157417441342,stand
15.525876460767947,0.10092502421211813,-0.07850126437818833,9.951785906343487,-0.13074376101923618,-0.09181568389683377,-0.07374899291576711,609.5565928753806,402.000093733762,645.9365278295996,stand
15.575959933222038,0.06378239291603009,-0.06416898835303499,9.886619967097138,-0.07262892182102239,0.15021308297843794,-0.08310004576838893,679.5124422639218,399.76452233530875,684.0949858904751,stand
15.626043405676127,0.02844973558534173,-0.12362441014459413,9.933655167604972,-0.17527413624984117,0.2127203468500088,-0.14577953027735954,655.617600094769,365.87504287457915,660.6297442469273,stand
15.676126878130217,0.0949401322799342,-0.08220854771174597,9.901719448320721,0.020163015602043744,0.08371560407256973,0.10466485659382052,754.3671428851048,397.4844707662824,627.1894606013105,stand
15.726210350584308,0.11765871811052112,-0.03140481753060467,9.889897687927826,-0.27742514531136725,0.370653575382233,0.41736859459706865,709.4944892986563,375.40562953075045,598.4416530604612,stand
15.776293823038397,0.03238074389019921,-0.07367549925007506,9.936806028137436,0.11399346241995016,0.06290191719311271,0.1996517900155335,741.9124552348416,394.59732932152787,597.7969814494554,stand
15.826377295492488,0.06924561776025788,-0.051057358571318504,9.90646408211064,0.15568012403014683,-0.12268772856788979,-0.1276848812843149,650.5326073604152,327.01330127282233,662.8844069533365,stand
15.876460767946577,0.05074007629340945,-0.060053142498301876,9.948872945740591,0.3438293387294465,-0.14518026125591244,-0.16558023669633376,728.3103907078959,381.581839648185,582.3518627026624,stand
15.926544240400668,0.14156409223748526,-0.082756768038017,9.918270995383098,0.05563392700365098,0.706877655551803,0.06030621473375904,674.9187775027751,475.6821042227749,613.6227545572177,stand
15.976627712854759,0.09305207417054756,-0.0845848109715999,9.929475075415567,-0.2284153362603468,0.26742115135816225,-0.1323947971005137,645.9873840676652,379.9109610824853,600.1468053673223,stand
16.026711185308848,0.08937705067484426,-0.06736290861731105,9.907198915464313,-0.39210616718121427,-0.23822074002111626,-0.3046565891183821,693.9674272751535,400.00231434738026,579.2795226547314,stand
16.07679465776294,0.056048738108385246,-0.035567233967867234,9.907409000194217,-0.15643688494732869,-0.02454691193764919,-0.14380515518121093,569.5017521161619,390.46247822536077,593.7417983102594,stand
16.12687813021703,0.03504823340880903,-0.05289317331951054,9.943005717669159,0.27033824031116416,-0.2511227099374412,0.18970718366035272,720.716667446224,438.28979995707346,608.562697924634,stand
16.17696160267112,0.09970677932714553,-0.048676019226001316,9.940444972256811,0.2668058620750868,0.2816469496799839,-0.2805954134881911,643.4239533594437,355.05022918598485,647.7778218000702,stand
16.227045075125208,0.05702645831350637,-0.109970969704144,9.904496330357818,-0.19288143908228975,0.023330620784640568,0.0901251598146102,624.3177295327628,312.74132395882464,514.6017666893971,stand
16.2771285475793,0.043807223798603474,-0.08755386901892834,9.89110789943495,0.04538309990220359,0.16043199270828898,-0.18063698806863737,646.9838441025237,329.71567974564516,602.7898844327842,stand
16.32721202003339,0.08827529505274039,-0.030708053214149787,9.891106818961337,-0.35347822975691023,-0.018547189081656413,0.3787012126848633,737.1395233380711,416.09512008578935,595.3906731895429,stand
16.37729549248748,0.11734214997812556,-0.07191291736794961,9.89643965182905,-0.20360195365411066,0.36650384153024373,0.025180367215736025,704.9006389008573,382.53149504494854,697.1743568571574,stand
16.42737896494157,0.05767585115906049,-0.08086961500511221,9.90435888353667,0.08567661650103861,0.4686531403843743,0.1575614217941401,700.3776911512495,350.7766824959894,605.5988223367069,stand
16.47746243739566,0.0705175696365915,-0.01202841674051354,9.90255327297945,-0.062389002204370214,0.36440363634072703,0.05566609739472561,643.0664849451341,363.4740144418971,549.9485121049943,stand
16.52754590984975,0.02815862233368805,-0.02404790921477664,9.92305422460805,-0.29668454263682104,-0.07000593234120193,0.24429558609341873,644.4027052185926,459.78564400714026,609.994353940357,stand
16.57762938230384,0.050535605040804205,-0.0191244680886479,9.936325967297211,0.10235423360086683,0.1398281123368147,-0.3760901961204159,696.3218320587786,366.4065787936908,613.9302933078795,stand
16.62771285475793,0.05086896055225418,-0.07198843925231549,9.916092192412204,0.7899317395539049,-0.3603222619981633,-0.11911110678937442,646.9822974155339,422.11713121202837,656.2946317012886,stand
16.67779632721202,0.11890014815562243,-0.026566091474273877,9.968483693487803,0.10892635294271856,-0.35448185106791774,-0.14020532765261842,737.7043282933536,380.0097301001804,581.1597425386536,stand
16.72787979966611,0.12818292704438528,-0.07320010075352837,9.913686184214415,0.1965713149577179,0.15933514983070537,-0.13467962867074051,636.0946799926675,356.178372208714,543.24654345049,stand
16.7779632721202,0.08921602732044637,-0.019024668457724332,9.918004706089063,0.07785044396193316,0.21660853231635327,-0.0004157325216133152,665.3815978865256,394.147120663073,613.3245927430337,stand
16.82804674457429,0.09766482495939244,-0.07955817528113279,9.877720407311529,-0.039944349754367205,-0.004532573028422482,-0.2400210253347068,582.0308741115623,347.2177596248309,664.0781856896185,stand
16.87813021702838,0.09390727727510911,-0.07853678866223703,9.931600294065449,-0.1325538834548092,0.1357244157816053,0.25306019345782543,692.4487860828559,425.1478569490242,589.5948652801607,stand
16.928213689482472,0.08372048257543996,-0.06566894221072564,9.914811711574073,0.18039253841398492,-0.044567095549524885,0.08555266538040762,688.7245653591298,363.57338065145234,687.5250495290028,stand
16.97829716193656,0.08896569042650093,-0.040178424252039234,9.930794761730343,-0.11700055930375593,-0.27335596717124166,-0.08408860028308425,682.0222897679948,439.83850490679504,622.8651407170154,stand
17.02838063439065,0.06377923976535115,-0.03169137259666868,9.938382339633273,-0.007243062639405843,-0.5378343278732752,-0.25040799248810375,688.0603041341144,370.79403862868213,614.7932790042119,stand
17.07846410684474,0.11462411408908618,-0.03294572551819518,9.937058575556804,0.20128438749888503,0.2106112736835153,-0.015147507783197322,553.6880823902752,314.6944026365142,659.4667769510695,stand
17.128547579298832,0.06073499056483388,-0.06700394935738715,9.933646393835888,0.49866349913113167,0.3596676183305226,-0.09248620954129,649.4404874494713,381.93338720710636,625.9354958629089,stand
17.178631051752923,0.10316109617716264,-0.06264479058674012,9.90146204642216,0.5355824012888193,-0.1073030121459321,-0.40843052307964817,692.6432581235907,441.7134786184753,652.3390001193901,stand
17.22871452420701,0.0561044324054791,-0.0782856917084078,9.940786062022722,0.0028125353788962006,-0.2807652758544975,0.08177962031786373,690.0834297302075,392.6359441344564,617.1146306031136,stand
17.2787979966611,0.1204110887814857,-0.046285443967548495,9.91775394936923,0.1955613860444083,-0.07307852766939583,0.16362239122022654,678.6239620473898,374.90161010151604,595.0330634819767,stand
17.328881469115192,0.09554615512696238,-0.05201441979850334,9.882464635230875,0.41058425839235396,0.0487182222965345,-0.06159676415319467,682.8827422790981,385.6869330601515,681.2195986297535,stand
17.378964941569283,0.10284370152309155,-0.09154839587704827,9.913621515612508,0.13105266746126873,0.13251167288843585,-0.37967626672448734,686.2909530716913,462.3207060651073,650.6892200176233,stand
17.429048414023374,0.10532091758530579,-0.0717307997461348,9.953210594325954,-0.03434746547365523,0.16729528603178623,0.19449655393634652,631.4412308136423,379.2005561601869,614.3744224690025,stand
17.479131886477465,0.08429839382964109,-0.08466690225301762,9.88485156233744,-0.016444287557767848,0.33629705316398145,0.2991422166597866,697.2647385174336,419.01758419284323,569.4910395240761,stand
17.529215358931552,0.08113422251765001,-0.037775641010803135,9.93171119912113,-0.24136157045438922,-0.44849142836402234,-0.17975950282433675,691.1227301057143,340.19814595519927,637.4729831871566,stand
17.579298831385643,0.08061970327405714,-0.02428664156580456,9.908737291319149,0.02097134042259699,-0.4887431220083039,0.09535083490820095,643.6034138236971,338.20743504065865,680.1585660152138,stand
17.629382303839733,0.0575832759363067,-0.07108007789025238,9.884437802047183,0.33844743777186415,-0.1265152257840571,0.04918621550745841,687.0081528511781,407.3797902797603,700.9084756679019,stand
17.679465776293824,0.11531696228036425,-0.03469295345373803,9.919019764665595,0.3506837325643629,0.013563817860133777,-0.5560723366048389,660.9686399508704,317.58404081480944,634.8088944324753,stand
17.729549248747915,0.03907766609937608,-0.0041460334836897,9.926029568950398,-0.23527570776259796,0.2621029291250929,-0.1375468257030021,705.2791057534585,347.156201151445,610.1579648071571,stand
17.779632721202002,0.02343430115161077,-0.051096187568723396,9.892966224466873,0.1393208500309914,-0.5195478030642461,0.24480240082243368,637.228370153154,359.31590695257813,697.7982564481385,stand
17.829716193656093,0.08051999149004317,-0.1059547228846712,9.88212571606346,-0.43032810013715833,-0.1748311640866945,0.21245265514278944,725.7641583201786,407.7920575112638,708.6538607954227,stand
17.879799666110184,0.07262459474442849,-0.08263318509029692,9.892380966893949,0.17120067675102227,0.03505839222732169,-0.6564084154431821,690.9575653969893,400.1584690226638,612.7599208886262,stand
17.929883138564275,0.07644808723306168,-0.09274172345470302,9.920097527763199,0.21785849111501032,0.051000174131991705,-0.24428894204677049,597.4326520806666,408.6982470444392,611.9301186875513,stand
17.979966611018366,0.07247937431464055,-0.09481064141902942,9.934554286741118,0.358705996175852,0.40184213413125136,-0.11622218429931998,665.3073337218005,375.8340122385413,525.7217593467831,stand
18.030050083472453,0.09805235792854547,-0.02953698347879081,9.974080860292105,-0.008981675796093967,-0.048970892206672514,0.16030460011616388,624.1404645343084,399.6349355193343,539.6570491294913,stand
18.080133555926544,0.07647936047536022,-0.07141824684966377,9.94625967489581,0.00211600254156964,-0.11162644378517417,0.13786445049384682,675.430595776153,339.593316629745,607.8418929004072,stand
18.130217028380635,0.13092613006928328,-0.10048665619711,9.919554516403434,-0.24112369533886363,0.12176237444285101,-0.30267494324964156,709.1687471154486,402.1091424054034,575.2119304029526,stand
18.180300500834726,0.07014011450907968,-0.10364491267097886,9.885601237253676,0.41803905021214055,0.5511222070459896,-0.033688369650447685,726.9063538383812,408.1436191276605,654.3349868016118,stand
18.230383973288816,0.08854466347138155,-0.07581183628235762,9.93399668832838,0.27186521276043585,0.10008655040428341,-0.39499218245331535,672.4124998037968,393.9736056676799,638.4804944393662,stand
18.280467445742904,0.10209490193310468,-0.011529426499566363,9.878391912656411,-0.0776675805968755,0.26509868137501225,0.051369381854854165,688.5001354901933,416.3956276023974,644.8955188394045,stand
18.330550918196995,0.10892741043635275,-0.08073279333341238,9.937894785977786,0.22644447049134134,-0.551129816613278,-0.30014109121806404,658.8702224226552,441.5257011620172,621.9753536882239,stand
18.380634390651085,0.017392799658665983,-0.03213881292948732,9.936239760039147,0.0914876632426704,-0.29967825155378947,0.19388443390320237,651.9964306189682,382.23517541022056,545.0011872329151,stand
18.430717863105176,0.08863649859902883,0.008583141525970714,9.96857107355161,0.004719085290056546,0.2354595633702436,-0.20671596512324408,668.110656932072,399.1215560886237,652.9164477810599,stand
18.480801335559267,0.08634230353375814,-0.04709983367381505,9.951578994141396,-0.1860203050711415,0.032019687975119206,0.1879613298048107,782.4019048947024,347.9034562646338,616.3971302517807,stand
18.530884808013354,0.09748482161664432,-0.06113481901433706,9.941608277861375,0.350822441231967,0.18701979775146838,0.5458090611668149,677.9512489298932,363.8754680502045,584.9223117298228,stand
18.580968280467445,0.07805330888894046,-0.04486089485479805,9.92575042883717,0.10696293358656153,-0.02989643236658051,-0.144059428732584,628.4534943595108,353.82902858076767,578.6650216065533,stand
18.631051752921536,0.05287570342547508,-0.1010654184644448,9.91920719671877,0.5094234433751702,-0.30390619411218783,0.2728583189339705,658.0531735458588,434.71584342313645,615.920593628213,stand
18.681135225375627,0.08816616488179166,-0.07404308057913447,9.944069983313792,-0.45014201360140177,0.05104436907272417,0.027541539244897113,636.6341919732499,428.99956247799616,526.8718084167756,stand
18.731218697829718,0.08095622648108373,-0.034553837804122134,9.913291932392609,-0.24219582322820407,0.35251866094704765,0.10091992794763535,708.3758895056337,406.7167481130911,668.7769967890821,stand
18.781302170283805,0.07307093374143381,-0.03341711738020882,9.91148671281328,0.1454569501282704,-0.1505613733977048,0.021437762099944482,736.6758773663488,427.72610427879715,576.4982168106869,stand
18.831385642737896,0.09367372207628281,-0.09900147665588208,9.962809647493273,-0.037570178571294514,-0.2627756018160208,0.3037878820316984,655.0224486184727,353.8429189460244,641.5367625313058,stand
18.881469115191987,0.1212862842144535,-0.01237829286711898,9.905876646965643,0.48054113366685275,-0.17114137815846014,-0.2433665049355725,746.9083315006544,355.0948298218236,656.7713103988248,stand
18.931552587646078,0.06439711660965437,-0.10610770003281332,9.90346328613891,0.13412039093682407,-0.08779628816908966,0.06833998618852369,632.9488419335814,361.41366069753775,669.8121025447164,stand
18.98163606010017,0.10056637668664305,-0.04739057704676724,9.89567998994274,0.4225042120938819,-0.21191573379827927,-0.07142197779168326,715.7596651322186,411.08626050130374,640.4229488148468,stand
19.03171953255426,0.029860275836466978,-0.07039810480109004,9.930022225695383,0.19567726409845881,-0.09496890284172217,0.0426792505598962,625.9259836773244,396.6947804994203,573.0938052339455,stand
19.081803005008346,0.0087243480421665,-0.04186394055724764,9.941101046840268,-0.2728771474337524,-0.1564872734731277,-0.12292455043979106,733.5078977695788,407.5214329671462,629.6512994448012,stand
19.131886477462437,0.12365057160007897,-0.029581985814368064,9.896775478326377,-0.08408607929820276,-0.12711990410007393,-0.17362962317595093,766.0313512062975,420.33509551415324,609.9720804759188,stand
19.181969949916528,0.11973101103650878,-0.02392933564376891,9.93095692490093,-0.25196464989269635,0.1924580939254218,-0.013940281523300374,687.8584384003921,395.686070534721,594.4793600240212,stand
19.23205342237062,0.107866593235289,-0.0733669445336996,9.945524313478035,0.012855648349402364,-0.01402655804925205,-0.097342414700879,682.3229415877945,409.26189180177664,711.5926869540607,stand
19.28213689482471,0.1215331158926449,-0.06488370177689504,9.890364902715094,0.0315640317179633,-0.04267420099749007,-0.3335619491432621,701.8367539993386,346.98237277472566,613.5307589227195,stand
19.332220367278797,0.04606303280218464,-0.07002970046019437,9.902072986196261,-0.4253206560407377,-0.14208619209272783,0.029128350594716582,718.9311933522993,292.65988017300435,566.8591856231808,stand
19.382303839732888,0.09176006750436233,-0.07598665436454713,9.952247274648677,0.1590210937759447,-0.3103696158331209,-0.1142842405425398,618.796492924842,307.34009498993055,590.8934128444507,stand
19.43238731218698,0.10545266699564912,-0.08609553568016987,9.88892361245903,-0.049262457388373516,-0.1627676053248288,0.13898908338780475,715.5150043858144,409.760184187387,639.6145822277707,stand
19.48247078464107,0.05897762118053334,-0.08913250956022864,9.907667847020845,0.10788611007744561,0.1716527876580297,-0.004038046987780209,657.8295718636801,391.79329028458585,600.5237863775692,stand
19.53255425709516,0.06474653909815574,-0.04660777618512513,9.909372949606263,0.25720302006509355,-0.2486366529900029,0.01741128802793903,668.0933116914252,354.45056900746755,541.3115960419548,stand
19.582637729549248,0.06983774141812743,-0.08371960551339941,9.991219352917737,0.2331313959949545,0.31179183331723664,-0.27897598331167317,768.2960429508869,423.4066092353959,669.7990680115641,stand
19.63272120200334,0.06156913075984259,-0.10611895506110586,9.875623871188093,0.28281216487968036,-0.2545235841671627,-0.08392233401948423,674.0865459979982,365.6464082719739,554.5633583160338,stand
19.68280467445743,0.06141067564588677,-0.06322721776810762,9.895917124815167,0.00751947751703255,0.24173594119903327,0.06338330568220787,731.4276509694357,339.07516326601694,612.2660316271581,stand
19.73288814691152,0.07570327198264418,-0.05302243157986512,9.881621437042716,0.09048304784171195,-0.3728660424582374,0.4012311710272816,729.8179757902595,360.16171162763385,557.5052271039316,stand
19.78297161936561,0.1131714349340363,-0.07264928359414159,9.903941680371176,-0.23919020167114527,-0.15435544377773147,0.20221379131266068,680.8069731554073,376.66523847776057,633.1425450555839,stand
19.8330550918197,0.06286203636052756,-0.027787208043288256,9.984550538752416,-0.3133211358458208,-0.07644624356175367,0.2733305659465497,736.6027324214498,423.6782744103043,524.1117958190998,stand
19.88313856427379,0.10048035293714015,-0.04730511522022755,9.897631249720389,-0.08155565684339044,-0.20630662697874397,0.2612126149297093,655.0059526868973,430.8489665632683,607.4178103643048,stand
19.93322203672788,0.04274452568666324,-0.046303637431963314,9.938164762414146,-0.0329601466872312,-0.02008664100889595,0.22767370021786046,701.7426544500398,411.3366710554503,623.1562934259078,stand
19.98330550918197,0.10170143681535704,-0.06323862710746674,9.950640264727383,0.11244633927466016,-0.19380849953288148,-0.08075471205483883,680.9380762493989,409.11380215883725,646.2041995577616,stand
20.03338898163606,0.05988897935200868,-0.05623153684936758,9.951824705854104,0.19425305674096885,0.1705106830396374,-0.12003061097171755,684.194720916157,436.96316016407104,585.7050216123182,stand
20.08347245409015,0.07147352196713093,-0.04161995585328796,9.903296445409337,0.05549091850841015,0.7227846086798568,-0.3741785432426564,676.5315103621264,356.38993158834404,685.2896484749073,stand
20.13355592654424,0.062424442523016294,-0.13719278990770173,9.876929651864309,-0.10512518212754841,-0.023720594586294354,-0.013775095502480373,596.0810713941272,398.94262144004404,608.7689614423513,stand
20.18363939899833,0.09002305979796937,-0.04638387241846467,9.877879944244736,0.033224894425940704,-0.3036099122711515,0.10956805635284345,650.08967866617,437.35513450023416,624.4309408092553,stand
20.23372287145242,0.09504090624190728,-0.09129052376817923,9.88486559646363,-0.22319459608712522,0.40726112861296027,0.44240113124980524,654.5465028546374,381.41627445521294,611.7560240378662,stand
20.283806343906512,0.0629264872286233,-0.09728524543290167,9.90346997536143,0.006391825956762837,-0.07527481694173281,0.33668136380177777,642.993030723257,391.269478787285,583.7612592058508,stand
20.3338898163606,0.10803550969139301,-0.04039385115788725,9.902906210869737,0.1753718361929177,0.1540416846266474,0.2642143892276848,639.5329371813709,431.06536346163705,609.463364763091,stand
20.38397328881469,0.08149602015611034,-0.008402476589571092,9.922564178666434,0.16556276754344904,-0.10446638463758516,-0.3279479768333156,704.0290790308114,377.65748854316945,639.1103869073673,stand
20.43405676126878,0.07355664262961804,-0.06671896032288138,9.923130049416958,0.11334066161283372,-0.06319272655709174,0.12942609259575721,678.2263093832943,436.5706474673849,637.736258584153,stand
20.484140233722872,0.06488685937316405,-0.01177054830672885,9.898845139352298,0.460173012805151,-0.28062245460742136,-0.5309391076817769,661.9707519209522,372.02628417776543,642.8902254001891,stand
20.534223706176963,0.088747772407224,-0.04031084093137943,9.92303040112973,-0.14603567067605697,0.2556971597331224,-0.05323447423804412,718.0508737520498,431.513304904917,634.36763359524,stand
20.584307178631054,0.07485517656171206,-0.0797058897426903,9.90279635914885,-0.217250342217366,0.08729572053633705,0.1825526368878482,641.1900359821532,400.40255343254734,655.3328312165642,stand
20.63439065108514,0.027611356085763678,-0.03656158838933565,9.906510449469701,-0.17877343287147843,-0.09662244978027819,0.23504435452694164,724.616820271193,397.54221942574094,652.588421049363,stand
20.684474123539232,0.11237436886072058,0.0013389260465263425,9.96574599152847,0.03315488793622346,-0.19262964788892706,0.11047376166531606,711.3912761838525,376.9140171388595,640.9056692165178,stand
20.734557595993323,0.09081093659515048,0.004331274011258351,9.910266064252825,-0.5567959237230085,-0.08253547302908835,0.1434400418379434,642.6308153147462,368.5268709077589,566.4507814417977,stand
20.784641068447414,0.10407001485250741,-0.06130558283409327,9.891829680909977,0.11173467227377622,-0.22957026047642007,0.17805620003993852,650.6135932798142,378.2781206783962,628.5896783127992,stand
20.834724540901504,0.07690045081364476,-0.05339165358739021,9.964110246350048,0.45598947336176177,0.010475167449576503,-0.4986770215661555,667.646935024148,245.74843722024013,628.6079074180909,stand
20.884808013355592,0.08149752605935548,-0.0923250346099743,9.930862842662055,0.02073414127217717,0.3118276363389911,-0.4300839657116314,599.6548767483181,401.1877959589563,650.1898510715432,stand
20.934891485809683,0.06980994315697862,-0.0781508524030515,9.908991028414446,0.293311228922758,0.5298108248842965,0.2323800632941005,673.6540891877954,354.6242190194829,626.769615379478,stand
20.984974958263773,0.047126492556115125,-0.08757232475395932,9.859531407048555,0.20804616096784878,-0.1848875571655399,0.323715466150744,704.4005168632003,414.19726506207707,553.7012302811393,stand
21.035058430717864,0.09704394954356155,-0.10794573726388394,9.94564541269213,-0.011048382579125734,-0.07577409199765321,-0.5487861887100113,610.8913224879946,375.71516397674213,693.1955507710419,stand
21.085141903171955,0.09002346450766936,-0.10184086385139221,10.005332092387093,-0.18500767872213844,-0.07714094478228964,-0.22233895586850805,623.4281525785079,407.89399219994584,680.2525377570186,stand
21.135225375626042,0.07991891591176054,-0.04067706374979068,9.953531117869746,0.28766660258980004,0.19119811404415293,-0.3888185373620065,707.545804757878,374.9287049075183,623.0115071569049,stand
21.185308848080133,0.10162841647072579,-0.05741093957256924,9.886185569126749,-0.029421876746245915,-0.31964741976208993,0.386581754709811,616.6254152174978,295.1125715895111,682.538580491385,stand
21.235392320534224,0.14257405364582154,-0.1269438830848345,9.904907974120173,0.2504389381486383,0.1322803100415147,0.3401913575777344,724.1276314736245,407.0931453109177,686.5034484171797,stand
21.285475792988315,0.0587041994681463,-0.01497644778787878,9.87720156103174,0.2742381453046855,0.06033353391289121,0.5288720411575629,667.5465795350078,413.70160868645127,607.5448974337013,stand
21.335559265442406,0.09232512452140118,-0.024095728129154045,9.92348552297642,0.16781547661947782,-0.20121115744325888,-0.19253662662307403,673.6376085871271,375.3231834949564,663.0641958912618,stand
21.385642737896493,0.05876357774620217,-0.049943056161598665,9.890625156283901,0.4290349848394112,0.1523708922598747,0.047694726571747115,662.4720550131879,365.18208783489985,657.4501201719114,stand
21.435726210350584,0.06816119583862845,-0.06750580895135844,9.90629293618725,-0.6723199965089887,-0.2787739206461767,0.3715715678120744,665.2492286461888,391.68831418947536,631.7819691787731,stand
21.485809682804675,0.10157006754802561,-0.0385914471348116,9.909141311356255,-0.33610366319629487,-0.22468219512945928,0.23169991789333388,750.5683957369143,371.1772809607209,650.7012614114616,stand
21.535893155258766,0.08418523810247129,-0.06637143625703786,9.94830016470208,-0.14082940273175826,0.48777422744090043,0.14448967968561555,668.6785071396437,432.4139693561233,634.7615591180819,stand
21.585976627712856,0.09571580710922398,-0.10185199439502315,9.919151018922609,0.29054589834622874,0.004024790743239274,-0.011912242472346969,777.6293213740217,403.4815238371273,645.9031470149382,stand
21.636060100166944,0.11696182964223908,-0.06643068690372403,9.882227075664863,0.029626517933636496,-0.38238106737300864,0.27146583254797196,592.4419775774477,324.6199183899628,557.5333063167212,stand
21.686143572621035,0.13639089777898583,-0.06050084623826771,9.976039962473834,-0.2301238488886234,-0.10596187858965633,-0.022134599625934174,736.8049261900728,467.8224291203543,606.7395559808285,stand
21.736227045075125,0.11192118769575285,-0.06656276340242506,9.917732292324079,-0.28385578747428664,0.20036364640338938,0.16418129100326703,677.4352115802857,374.90599014943524,584.9639013910119,stand
21.786310517529216,0.09119856522872137,-0.0630239155884242,9.921561749388614,0.15146385639877244,-0.12185359884245296,0.31185329311348653,674.272231808062,374.9453373687896,615.4105662594538,stand
21.836393989983307,0.07811690599369081,-0.08519415230281308,9.952043898281756,0.3071440720574049,-0.15334173934080414,0.14338434144880477,674.8839981915826,406.16732156690057,652.4790490157777,stand
21.886477462437398,0.05849673522104318,-0.09233342534293645,9.93359038977498,-0.39163641453167075,0.15023434811684558,-0.259903724670867,639.8414720159057,406.8665499254444,705.9307786020292,stand
21.936560934891485,0.07348146901970118,-0.06597332487422962,9.934888546125313,-0.016428935369645122,-0.16256764340065427,0.23668837593286263,724.2447399498008,370.63084992812406,625.7118575646547,stand
21.986644407345576,0.09187847152151023,-0.06599624552389614,9.924773134258357,0.021638205835381574,0.10953130493291165,-0.5794120282549167,668.0522791734854,441.8902940375333,645.8525292265416,stand
22.036727879799667,0.11304933147294174,-0.03266961870715023,9.903206818050176,0.12792308821838086,-0.28690023806322423,0.040518880796690825,662.5590507057906,383.1109426175927,480.0735922855999,stand
22.086811352253758,0.07946330038244497,-0.04476177191883169,9.93222759708613,-0.07347481416992645,0.22293945757994432,-0.4701149099715883,689.6152493185547,416.7264893295661,668.1990226821836,stand
22.13689482470785,0.07231545130533318,-0.07232424063871659,9.885642102729705,-0.13406211596219694,-0.278145941396121,0.0269937867137386,740.6089438703551,333.63079599219196,644.1842703353294,stand
22.186978297161936,0.09697206234434722,-0.10535822632249134,9.94234603870287,0.18526697184789204,0.11770528621170452,0.38186439081187834,705.6789914184473,447.72404105755265,581.0334616047,stand
22.237061769616027,0.09384815043478063,-0.07175518794212325,9.952714184184263,0.14160541980822342,-0.5877368089335144,0.12589813601567326,686.4334352137371,323.69232156905707,610.8734476028757,stand
22.287145242070117,0.1147347582426116,-0.07158505647903067,9.93589213468973,-0.05146892416636132,-0.007226615317288772,0.17923423913718997,691.4637264182642,357.55540375693926,656.4127048183234,stand
22.33722871452421,0.0500662586202455,-0.09964247893374067,9.848775943095752,0.09523401521918932,0.06501278145476393,-0.23181175750392274,670.7394447109856,385.05961078000564,669.7734812925319,stand
22.3873121869783,0.09602162092722054,-0.028761211587359423,9.926661186143239,-0.2679938597616323,-0.11131627908450764,0.06944237403303102,621.9726991830878,432.69501312232535,667.9281548923391,stand
22.437395659432386,0.09513740620599181,-0.04249041885827073,9.929022578366483,-0.09041443851703687,-0.10738741293046682,0.23823861266237567,662.3713818256396,392.6337752297345,606.9622923514411,stand
22.487479131886477,0.0704317632183525,-0.07612396210665218,9.925922460999283,0.6391048541494968,-0.02188940248271165,0.08035397133121368,636.8768724229338,363.0097195628888,698.4336013246794,stand
22.537562604340568,0.06387986047859943,-0.03823074518700402,9.869333790542488,-0.4029890286411155,-0.16924228031995692,0.29209535220348015,716.3772297060113,401.30891213921024,605.144769332435,stand
22.58764607679466,0.06350159272749209,-0.08654860985877545,9.925487949757269,-0.1188979376468468,-0.6206499124611854,0.032337786969573505,604.8716104949825,455.86238318213486,556.121598215612,stand
22.63772954924875,0.07941107920601882,-0.07659370552344402,9.939219663617383,0.30129084295627206,0.275196112942212,-0.104410451974206,742.2921371278613,360.4601609219416,629.4776695669204,stand
22.687813021702837,0.06512256143065283,-0.0244032640313702,9.931213141872309,0.15615023275982676,0.3439542673152456,-0.10237474820013943,677.2747582626679,394.9906436702043,679.762185346907,stand
22.737896494156928,0.041735781050581594,-0.07171111267800323,9.90060823855586,0.17350402065493792,0.44443624610287147,-0.07526183578687679,571.2592147100827,341.21887769560055,622.2269993543945,stand
22.78797996661102,0.12339356790525316,-0.07338189684607359,9.940570580957667,0.4591830243116544,0.19488484916846036,-0.11544753063172242,600.7358598136102,418.624026846948,684.9855708147415,stand
22.83806343906511,0.09488554137780411,-0.009380124960252638,9.895665412825771,-0.3064099060320236,0.21891307352175118,0.21769122131954854,735.1069388588076,436.5100877413623,616.0276261869096,stand
22.8881469115192,0.11574293326928087,-0.05119907074470921,9.955295350144649,-0.13096024666968772,-0.07386486611647261,0.4560252137855291,659.5084933581777,358.06346235878016,641.7848974761852,stand
22.938230383973288,0.09750913619453705,-0.07174171219684972,9.963047861678874,0.32178887373480863,-0.14283654842402577,-0.1156951966788707,633.0660851634756,339.8229293812591,618.4923618195514,stand
22.98831385642738,0.09869192971385804,-0.11415888425806853,9.90292105363879,0.08062586916795401,0.3937963586646333,0.1924443414421425,729.83604321183,351.5001151192767,565.7188232835055,stand
23.03839732888147,0.10341451588399139,-0.0569965065314019,9.953739955847773,-0.14541021558075506,-0.3528889923839047,0.10472034423519411,727.4095643539514,337.99495259029374,616.7509327444465,stand
23.08848080133556,0.10843723703071267,-0.05218789421800535,9.904188044437022,-0.16609865076843422,0.07449352391603918,-0.1469806364353413,715.8975711118687,361.61738402353006,644.3419149250955,stand
23.13856427378965,0.07069052764249201,-0.031564208089084826,9.936944858242764,-0.03007927947143134,0.15977887634506469,0.028970713825084357,683.6333734671209,410.76299366695173,663.2092326136993,stand
23.18864774624374,0.07146843021662212,-0.032535174772579695,9.941582468045425,0.10724739568026798,0.28211477279199826,0.0664098857163487,682.6331769474803,386.1836295454597,579.4793137159335,stand
23.23873121869783,0.06734747781015754,-0.029477521046029798,9.937131116316381,0.04433002001952852,-0.335975266651046,0.23380589719111833,635.7088269018349,404.3996823260168,631.2233268809098,stand
23.28881469115192,0.13219483171947982,-0.07286600760417145,9.918730791762721,-0.10256538419883816,-0.34081003320426834,0.27070179363379576,705.8782835523738,441.67733873829206,633.4950826053479,stand
23.33889816360601,-0.004414241556932694,-0.030544138736284934,9.933646074102834,-0.20436566156717914,-0.11500440624894762,-0.30619039760624156,753.8069642529236,371.0202801587703,587.3476942287286,stand
23.3889816360601,0.07279713927198568,-0.09397666426645732,9.88212179288627,0.3452014403587514,-0.3615564827870686,-0.16387755533498,656.4307833162862,363.35129635229464,557.162896828836,stand
23.439065108514193,0.05434672457832322,-0.006939136665041125,9.938251679602999,-0.00019967618564721717,-0.09611157973459486,0.029907986163090938,708.2918874460597,382.5838736790588,682.627084386607,stand
23.48914858096828,0.0524461141827441,-0.08288329451791351,9.924673150086674,-0.25246724440572293,-0.1893332826024977,-0.16706701005802269,591.6980707144063,412.5857557049943,633.5856108524835,stand
23.53923205342237,0.06423446572478383,-0.04190844188246322,9.920461268687136,0.10953111449887097,-0.5465525722958192,0.16971829956377688,689.0703107056632,420.080901344093,689.333879255001,stand
23.58931552587646,0.1498870362868648,-0.058778394772845965,9.935291822665612,-0.0493919758705001,0.28390791294650425,0.023388651984639436,684.9096680622039,352.23357170205577,680.8057430172039,stand
23.639398998330552,0.06730622473176713,-0.008462918045262668,9.897688541839896,0.3526125319857555,0.11184210430369296,-0.30102721212024497,704.3310273755792,491.21192729090217,569.0219493897494,stand
23.689482470784643,0.060125958718044895,-0.11156303576128129,9.896577545959689,-0.04487679251005863,0.045202910328429775,-0.05605313691133475,686.1012308437508,307.83890578076546,622.6020333360726,stand
23.73956594323873,0.1708294313640823,-0.0922643662093256,9.957831894640192,0.02257315038403027,0.10463891269940932,0.07383563880479375,696.504872497515,377.5196034387913,544.2461687695381,stand
23.78964941569282,0.08888666387832697,-0.05608618629867092,9.935108009674515,0.09677886549003725,-0.05009710686063595,-0.0062329159526486565,699.6555374734824,361.0369648164431,562.0336580075127,stand
23.839732888146912,0.13206254783407492,-0.028427610812223204,9.932668920635331,0.03192172658281335,0.11078574827868187,-0.35169178704594345,724.9711362282154,356.0569112100194,704.9985502184217,stand
23.889816360601003,0.07996741321915331,-0.0753167910052781,9.934407392043724,-0.21915848492814796,0.19985388837414297,0.16935298992829967,697.5145811753138,443.50596050980107,543.012968929287,stand
23.939899833055094,0.05917550134374103,-0.07101892493607721,9.929867927016549,-0.23750506102205882,0.3073448222079229,0.5295940138471692,678.4217804118279,417.87052604372514,633.9546660356306,stand
23.98998330550918,0.11181213123058736,-0.04432922868264055,9.869399429786771,-0.20237136693330043,0.18062023942007782,0.22209943104407562,626.977624812811,343.8574502460222,710.781847461529,stand
24.040066777963272,0.06544066022284477,-0.037904770429418186,9.962461342991405,-0.10413768796880594,-0.10090969662128313,-0.11893637528540676,726.3776420560533,430.80604058933204,648.0907007024697,stand
24.090150250417363,0.11301314026022466,-0.05593449666532812,9.914015193780582,-0.13345960774494767,-0.01032051777609105,-0.2675384274722836,708.9867703015443,362.6051903746953,651.0362785066665,stand
24.140233722871454,0.10182707054978019,-0.06295868651615133,9.90615242143064,0.0979466695977302,0.0857294719158292,0.17467594630875644,662.7741180795209,356.8471663626042,592.2436584502276,stand
24.190317195325544,0.03153482493977681,-0.03782484833506173,9.918862447257991,0.38671430288405334,0.013775344157411572,0.4409005822103017,727.3766852765447,400.66232036126394,607.0761232867633,stand
24.24040066777963,0.08365539282919818,-0.08511596215171105,9.937493281744313,0.0303734926590003,-0.16597395311640134,-0.7230491315075585,774.8502453354798,343.31956627759934,584.1328336941904,stand
24.290484140233723,0.08335586908616648,-0.0522928208776143,9.920990018913688,0.12233145045305717,0.46650497845027655,-0.22641890159672004,630.7044854637263,331.53858505130614,604.8836221450459,stand
24.340567612687813,0.03729520129851786,-0.02686438236426849,9.939764434944482,-0.15337115812588778,0.4276440542593606,-0.21745047167087744,685.5369699297128,401.05193070719673,626.507903434898,stand
24.390651085141904,0.05379023694731409,-0.04514785976699095,9.89064061352734,-0.21637181341947578,0.021276340843983065,0.18942975201261472,631.9909384395928,387.7868317801092,560.0209093544584,stand
24.440734557595995,0.06428000938104649,-0.1049509772133509,9.908510300183002,-0.4082583976952937,0.4031210363694503,0.3266192443751047,633.1983874058848,402.5850811619713,583.5155670168529,stand
24.490818030050082,0.058984751119275605,-0.10517503174746945,9.975573859146646,0.17011259049289698,-0.1325939631225925,-0.17708865336621937,727.119070049494,339.1257783627273,664.7326029274687,stand
24.540901502504173,0.07474777269946482,-0.06388581382571165,9.928283891780234,0.2222353653879223,-0.2842982337714005,0.17014196602637055,731.7878511055269,357.6488364739562,632.3782247996307,stand
24.590984974958264,0.09594910797947157,-0.08760623297393103,9.934568179873706,0.2696814036514246,0.2548886418353614,0.87461415953075,730.3783306935667,434.46081186977096,685.3278022155146,stand
24.641068447412355,0.05810064940591898,-0.005620998336068765,9.958047028740829,0.539262941804255,-0.3836523996835177,-0.3504969698548933,719.7287045277932,457.25050549561,578.0798973811011,stand
24.691151919866446,0.04643652443373692,-0.07848432746986779,9.886163430013404,-0.2068877547122112,0.06352675393440445,0.19170905292667315,698.4354507005943,328.0478690890288,648.3943319015093,stand
24.741235392320533,0.044776375632646456,-0.04314122087666203,9.899071592394565,0.30647542624982044,0.2993514913670853,-0.2555370165856102,622.8552819116624,308.4350272736549,632.4288486635744,stand
24.791318864774624,0.13416022606571806,-0.09711178446242179,9.905579933645944,-0.2082522235646933,0.23916267919765963,-0.0004010376795901401,713.3479121886828,399.2146776367532,695.2942012508826,stand
24.841402337228715,0.08639853405865762,-0.008923323684275432,9.906727693295819,0.017806438958449976,-0.1709096844353386,0.17491770882206395,675.6325402352891,384.6592168231128,627.7674316159593,stand
24.891485809682806,0.10143932638883797,-0.10248840035333942,9.911722990819712,-0.24655280075898423,0.14641348078520822,-0.32403643205499744,637.666138747252,390.19328186428214,662.8064491688048,stand
24.941569282136896,0.05956314231082123,-0.1163489011437695,9.877705269921845,0.423664000761238,0.13599208799893336,-0.02112732477551025,667.7317983498077,421.1791668722873,630.693647921866,stand
24.991652754590987,0.0678857015388647,-0.07580986724981004,9.936496578798709,0.4198207685185172,0.03176861198504198,-0.360095939065004,740.4782200592978,388.5549165688491,594.817283296266,stand
25.041736227045075,0.04489108335769505,-0.02358300572096135,9.855864407191477,0.3032972940639435,-0.00990463245717745,-0.4363912713576792,694.1265436596603,347.46854376079006,578.86364831992,stand
25.091819699499165,0.03253944347591104,-0.06547067163153257,9.933559477717054,0.3311869855090952,-0.31932334347547603,0.14813039104285672,652.8185360774986,390.2741770929478,595.4555322147215,stand
25.141903171953256,0.07305858728446991,-0.06328904443351385,9.931522785173472,-0.04596193133292251,-0.056041856909956576,0.10582623404011682,688.4389482497876,459.8531954025865,707.0142058416612,stand
25.191986644407347,0.04817746330617998,-0.0520934569479839,9.905647665973323,-0.1536637271036234,0.25415865035920193,0.17973140171216068,633.8650754742147,371.24253742948514,629.2937695273592,stand
25.242070116861438,0.10445237999097977,-0.033180955566366924,9.92107007288566,-0.24372588913039228,0.11323506081451194,0.44560903467067586,708.354191988066,401.03021233187116,612.2428430667245,stand
25.292153589315525,0.07077318535171721,-0.06979111047468552,9.942980755292718,-0.6484792918769918,0.49012901870480674,-0.1130294557391054,622.7915470445132,374.26335327927825,603.6103105858278,stand
25.342237061769616,0.06342166616428291,-0.10163293603337176,9.941400209169656,0.21458568938629347,0.3088880591485264,-0.19720085961529968,622.0831224435258,335.66821490032476,634.1172992903039,stand
25.392320534223707,0.10019973904889322,-0.04621655355237313,9.958459362126565,0.10118358844366582,-0.13979582236767116,0.2694727000796537,659.7078901833366,389.25347590007215,651.86027082301,stand
25.442404006677798,0.07209770361833356,-0.09328801560043908,9.936273580348157,0.26481349117586883,-0.20230368830305973,0.24531980516312568,759.6810856189601,382.98793739150545,622.8977445157631,stand
25.49248747913189,0.06127187461528628,-0.05066686064045239,9.970309742515717,-0.14662753053833041,-0.1839000698713766,0.11353053754390091,712.1991039089734,368.23212311136945,671.0965079884014,stand
25.542570951585976,0.037205987085678814,-0.03810712807013007,9.940098912905153,-0.424960316022751,0.10029147607131264,-0.1514848134881147,636.4567498828077,392.7599210004425,663.7874190250269,stand
25.592654424040067,0.05801413785515909,-0.11357558989529351,9.949868854754563,0.21651227624649128,0.2873085752699992,0.008349019405194582,640.0981827098913,335.52433097855555,659.0345327928915,stand
25.642737896494157,0.05987619427048281,-0.03941963034989997,9.913154440996141,0.10827041459274246,0.21907808048019908,0.21485034606879602,630.9313468162898,372.88291953481763,615.8474074281482,stand
25.69282136894825,0.07088921594010615,-0.0578942671460688,9.910744562352756,0.1672958266745316,-0.21715860969833178,0.06988397359900718,732.8074710145887,371.68043035504144,656.5850465119664,stand
25.74290484140234,0.03779038159232428,-0.05354582336661147,9.928230592902592,0.22690166278733226,0.0757986627980091,-0.14222310085103843,671.542577851372,356.9720509703113,609.0582774996823,stand
25.792988313856426,0.0951934049314264,-0.04888594436547715,9.979142353877023,-0.025843670235749995,0.32677427479762916,0.08119214535420059,711.9094027761782,361.2120010481456,629.4143144454392,stand
25.843071786310517,0.07388966280201201,-0.10436993090457572,9.92088428460597,0.31843501039328537,0.048062502027788154,-0.09893253131510706,713.249988418617,390.81771333838697,630.9755443002565,stand
25.893155258764608,0.05857997300723356,-0.04346644650036016,9.922689547585003,0.2072710190339409,0.0072865047547296625,0.12883487999190102,662.3488903587593,336.3562577049562,609.5143640883797,stand
25.9432387312187,0.09090400858656097,-0.08927006895321564,9.940446013548215,0.05453323232360955,0.2892487302911872,0.037666743615373206,639.5441556034749,371.88994849421357,580.7904305366978,stand
25.99332220367279,0.13056708815259238,-0.07104433214592534,9.939615928077792,0.07818816387397903,-0.09184700662429429,-0.13727601720320054,710.0059507774614,428.0116151425376,593.5448421391721,stand
26.043405676126877,0.10606612289728834,-0.03817572641310428,9.963066301730708,0.17180098741368632,0.11400333609925921,-0.06795775073493397,631.3610103998542,361.73365369685354,625.2539174172717,stand
26.093489148580968,0.0682755620495065,-0.057546396228229886,9.880490367038616,-0.29647173568376944,-0.027646355631605283,-0.2929038358725566,639.2117268418173,477.43498688048203,630.8986648039523,stand
26.14357262103506,0.0423220587011534,-0.08482144179442162,9.910162686990587,-0.09699368272923675,-0.03494803931499542,-0.17216997393749206,660.7693296162553,475.74694850111837,626.4929744637527,stand
26.19365609348915,0.017398707347589346,-0.13139818762657976,9.963724003248027,0.003849458781065549,0.037120166043513855,0.03204736529081735,532.3050169123201,369.3158388051388,623.2740488759366,stand
26.24373956594324,0.08601092469355616,-0.05316601532437495,9.902182520364896,0.3676611531230444,-0.09087920773489457,-0.3371791462081026,644.868801173157,332.36240928229495,609.6486791636881,stand
26.293823038397328,0.03966712624560639,-0.04806970817242047,9.936198396352278,0.036901224391250306,0.24814654257633606,-0.3213634105168084,630.079756121571,408.0666340330787,670.0089914946076,stand
26.34390651085142,0.07401945559626771,-0.05912676519509519,9.91012586834528,0.09804863111018867,-0.6745561994860559,-0.10461310631467581,640.8894588019552,362.73043498002,590.4881812538855,stand
26.39398998330551,0.07116340380335195,-0.07588809470196949,9.87369567355351,-0.14442313567876747,0.22831927510181574,0.08994304967982567,632.8972051470876,322.93863757226444,604.8547849570066,stand
26.4440734557596,0.1002007908647212,-0.031103590322630086,9.902167626660002,0.288498668621356,-0.1848401256412979,0.1668857011031771,716.8839664823695,366.7027432398365,611.9251880301138,stand
26.49415692821369,0.0749910320394638,-0.04980113272672996,9.945063317122795,-0.026778639772488035,-0.32267020338974933,-0.18759276884228968,713.0999560553853,401.6293771061729,596.5894488409704,stand
26.544240400667782,0.09397579306041269,-0.030362803311686937,9.935329663148227,-0.11884194903953804,-0.05067774562289807,0.3924610673482646,721.9617248673071,374.1741526823021,645.9645561495884,stand
26.59432387312187,0.09047233840210825,-0.04069418214462983,9.939135655621028,-0.3695630898098701,-0.16979973838228715,-0.4681731103980212,696.5303129113541,431.0874397143777,628.0242210561778,stand
26.64440734557596,0.04997710353646353,-0.054587880685854885,9.94814450239628,0.09253975428133385,-0.06653494889029352,-0.09771664870482077,606.7922712052016,448.1188244198605,689.8532199334907,stand
26.69449081803005,0.07151628642814775,-0.03985886164333177,9.882097450924517,-0.056563209964101115,-0.02288052984307679,0.24866940192007575,706.8677339732295,353.3280280012302,586.6433348017518,stand
26.74457429048414,0.09183053979734977,-0.08129827950742627,9.939570020018985,-0.21888701591691714,-0.06571717064290512,0.055042128042264105,586.7505087235512,398.950969823798,679.7252419403884,stand
26.794657762938233,0.04123314331884536,-0.03510195714922601,9.922579888099603,0.10850750153388716,-0.057115299400317183,0.09990911096469549,622.5314852853037,387.05244631579956,679.3134978871776,stand
26.84474123539232,0.06856602768856358,-0.08464110990764014,9.936291015075899,0.37795687716441984,-0.3892850160606788,0.1989269487165698,712.6157127202223,424.5891896286583,662.1699543176599,stand
26.89482470784641,0.06703667846405345,-0.0434945149432988,9.922071998239044,0.1673944563216103,-0.11720145815674932,0.05893205300062977,716.3077584761813,387.5541577362278,653.7510038692974,stand
26.9449081803005,0.1352152517719663,-0.09967848009978386,9.919019847003234,-0.05974671462377546,0.06563579438673221,-0.066918750420429,718.7276057026919,281.87704591080524,614.1576205678247,stand
26.994991652754592,0.12037491954844123,-0.09999071359179976,9.927538488886455,0.27075128274622523,-0.050122927359265594,-0.0959378008731532,692.5478756760963,448.6878806715167,643.2249266952666,stand
27.045075125208683,0.07244463543598773,-0.06333299885048045,9.939531443879801,0.1866773941644574,-0.04072607542525276,0.2512603234941866,672.4863726558714,310.51792397058284,614.1275798600639,stand
27.09515859766277,0.10553327927043837,-0.09519632519571758,9.885734227749023,-0.19414358971143364,0.13577605756172542,0.13136358805922632,686.7343401190493,429.25717322173733,626.3871183402418,stand
27.14524207011686,0.10287405110023862,-0.10256861153460882,9.901162265142604,0.0844504171586881,-0.3213359176708053,-0.11065203630080063,622.640762779047,420.33887954461727,570.0352251330917,stand
27.195325542570952,0.12641174193506985,-0.07402356357076885,9.950327254027046,-0.10195194540862429,0.36258739804935886,0.48776027840162417,683.6864133849331,434.5714760798335,595.2759204777665,stand
27.245409015025043,0.10596233218499168,-0.1036802559522072,9.930700870211659,0.007261904785655473,-0.017489216343365182,-0.34859657231191415,699.4869058514362,337.4394325684945,616.4924225265095,stand
27.295492487479134,0.09125867627618452,-0.02029954283725588,9.910040044922502,-0.10471535141603443,0.06343596059461618,0.12347010380467936,726.781246171213,383.65125812755304,578.6097699620552,stand
27.34557595993322,0.07044218898987736,-0.07782227330794746,9.869576297227878,-0.07471352328886531,-0.09482652361466662,0.029661454757401035,738.6834411529426,373.768720239662,636.5214975978887,stand
27.395659432387312,0.09772526008660862,-0.096570425867188,9.873164628636168,0.20685346565256552,-0.23792782072628804,-0.020185336245047203,650.1252444326568,392.5678342387689,600.2675466809344,stand
27.445742904841403,0.07783410512221778,-0.060117627960638596,9.940271761422853,-0.22377388070959,-0.05124387001673272,0.05578178069974749,632.0710798514187,429.85591966320743,517.2146048051907,stand
27.495826377295494,0.1522860759683502,-0.0662566110165764,9.922138862501994,0.2642914195154021,0.0985649221387062,0.25758888697222737,710.0680979814517,380.9587150509187,614.6824415786523,stand
27.545909849749584,0.1275203777153654,-0.049273136305358047,9.918464375535628,-0.23683841103375788,-0.11146204747696398,-0.19060222114910388,672.8046556953259,359.7819889948252,580.9759456434922,stand
27.59599332220367,0.0483912487304124,-0.062172785637883296,9.875395871373394,-0.2784720005867275,0.21265193423141085,-0.0602809226729783,624.1384701395211,419.84593172450695,605.7577615936748,stand
27.646076794657763,0.13230778354427664,-0.06286340031168655,9.917162829728445,-0.1038511390619816,-0.06174866152962381,-0.00530714688174117,673.7757593858074,453.5965291440581,631.9486763836371,stand
27.696160267111853,0.05104881167101636,-0.011693534678473512,9.91143408637661,0.07721843136912523,-0.17773877232294086,-0.053122374217179524,676.220223834536,424.36740053642626,676.3032341154324,stand
27.746243739565944,0.09830741612276976,-0.06468968411602535,9.908493132630083,0.22227134583426608,-0.30025188478777426,-0.02878186159649922,718.3149914637222,478.3566364029515,640.3771552134457,stand
27.796327212020035,0.06635624670798004,-0.048978769493112154,9.95002209656691,0.3150360560190344,-0.0820178409768585,-0.1502506531153057,732.3661972139871,376.27650191624593,637.433600277255,stand
27.846410684474122,0.04152333943855762,-0.11586590878708333,9.856744864984913,0.050467370836874324,0.23818579677806628,0.08345953928334347,638.2874959072265,421.3063359672,588.0916987304852,stand
27.896494156928213,0.07725497160917695,-0.07070080087755724,9.879143363430446,-0.2922333303009982,0.2324386782216166,0.3456204072993179,744.9320045045783,363.2337744575962,639.1396733985024,stand
27.946577629382304,0.06019136109326564,-0.07978841576925846,9.866372154221292,0.106234649730207,-0.29866603606542347,-0.3887907658451861,674.8164826844784,410.0650734422943,613.0799011597668,stand
27.996661101836395,0.08469008498432666,-0.05525545082198793,9.902165060418687,-0.35517087251793533,-0.4590551867942727,-0.2060194221354768,646.6834468081192,374.5921754092512,576.3579336797918,stand
28.046744574290486,0.05057087973813437,-0.07505587995456858,9.928976364388848,-0.3355684543890199,-0.14390489134485707,-0.08234384872656064,647.4760412261418,454.7796378818539,589.5241157462488,stand
28.096828046744577,0.07726336170854917,-0.04658938678264711,9.896417157062817,-0.3273469096452979,-0.17810498209566106,0.535014135973256,694.6034298289422,364.2827570712164,590.8142268459872,stand
28.146911519198664,0.05907233773584459,-0.07347417354945263,9.889395766065736,-0.10144004031126894,0.24249827737061472,-0.12499144073829177,670.4515260813594,379.3710221598483,690.5924324382372,stand
28.196994991652755,0.06517499320421652,-0.10174138273632441,9.946200218744137,0.18225720314694652,0.24291401022072992,-0.08601876005553091,790.9006491205438,393.072747135333,570.5408938483713,stand
28.247078464106846,0.10255282188528442,-0.07937926883873805,9.952868604617066,0.10704471373328983,-0.2453974130401241,0.001955258034774931,671.250001676541,366.0922138261727,655.7828119615286,stand
28.297161936560936,0.06608358028467091,-0.10574912919353796,9.941815851673802,0.04914315256827787,0.44743378576842513,-0.032854227643094015,660.2221170951732,410.1373092768739,586.4766287054917,stand
28.347245409015027,0.10255346657853975,-0.043450325214506334,9.91662601599245,-0.04517829447536605,-0.37880781478303754,0.23287602919184797,680.2722054850885,439.1194231546009,599.0202474029843,stand
28.397328881469114,0.03174148569189786,-0.022589805212527785,9.894346900466683,0.11193559298084033,0.2125284177816794,-0.332316208480934,636.7112377516605,433.72828914036825,602.7034211855579,stand
28.447412353923205,0.08064114085075783,-0.02640377935507584,9.970191605681046,-0.22241465656092094,0.0023930102181598492,0.04504117745348325,637.2303603043696,334.6651821826501,604.347949246397,stand
28.497495826377296,0.08979712999106515,0.002680243857679107,9.910523760773664,0.15117152406039544,-0.17205389611625338,0.0024741841725298584,666.9113274510374,440.4712788119771,639.0095695029968,stand
28.547579298831387,0.0827225444497268,-0.027069219209089404,9.959337146910137,0.35021989811658766,-0.06783979052157861,0.1080224544197461,707.9303617445236,330.7453666295489,649.8789018876905,stand
28.597662771285478,0.05227283357821032,-0.0004114371338998085,9.890570034895699,0.010092128918406322,-0.005431830294079782,-0.5750838731411223,690.8174885275818,382.03303179121485,584.1815938288673,stand
28.647746243739565,0.099265498456907,-0.005450003911633562,9.895345573702764,-0.40698441023325416,-0.11186226507473392,0.03881836822191423,628.7389910084414,361.4174094516534,534.5032944926907,stand
28.697829716193656,0.044578101289228136,-0.07164130584107575,9.858179911573725,-0.018707109656679148,-0.06117536542969211,-0.0895775506902549,667.5944947145025,384.9679884474501,625.4929677565304,stand
28.747913188647747,0.10370299667590815,-0.031318697894258514,9.937364331947798,-0.1808525556270148,0.29671972112632045,-0.1704038740174075,689.7969294526906,411.8788030242886,640.9645795594789,stand
28.797996661101838,0.06158337737329295,-0.08979591914370517,9.88274124957933,-0.22236351806937865,0.13937140845610638,0.02779316206399732,673.4068274177649,321.54694805215246,673.0511851174309,stand
28.84808013355593,0.03232224428081534,-0.046162961834265624,9.907265542860673,0.18073567936738436,0.16035666600823034,-0.3526413913521501,756.8188818746783,380.405562118005,558.246301223065,stand
28.898163606010016,0.05975740329310977,-0.007608476977826288,9.914633567870046,-0.021153022586557938,-0.09773395786364518,0.4864401249801416,672.4766007839654,382.629913638229,666.3760042837808,stand
28.948247078464107,0.0503208992964834,-0.10585597833855256,9.919405676782402,-0.4455861054308671,-0.0334573216803791,-0.11971206300107544,714.8668972419513,376.8261191760882,598.0854642019036,stand
28.998330550918197,0.0970645580583793,-0.014011363755264253,9.891480470119037,0.3516682278774108,0.09021353728322098,-0.08270147798807248,679.8715806091021,421.637508468511,534.8857128658549,stand
29.04841402337229,0.014426003418684566,-0.0874245261723222,9.923950919007748,0.044035386858406765,0.4482446425420832,0.008989113628015147,720.8736688629717,335.17165145754024,615.3661296394722,stand
29.09849749582638,0.08881007931239174,-0.05599855112714314,9.88492923156209,0.028621983348771283,-0.1285109127027841,0.025763402374066425,678.3089923644312,390.9808624435155,696.683048378037,stand
29.148580968280466,0.03772957091054158,-0.04329393320776902,9.940801571959332,0.453741484729993,-0.10910816700012937,0.1033888978206963,606.7505451151956,408.0175007635355,638.505360342102,stand
29.198664440734557,0.09607224299358116,-0.06734636870723607,9.900651332035162,0.16790316722870374,0.0018957398512620103,-0.09581224173568431,631.9403024330506,498.54664070756894,602.5944167093886,stand
29.248747913188648,0.05941658364922216,-0.04144305459678707,9.973920942169176,-0.33746800984606007,0.4672040180407266,-0.3349783570438837,672.5798644907001,402.5828261648972,603.222980890296,stand
29.29883138564274,0.08955206450961177,-0.028366507265641314,9.928269693983655,-0.2242228933521152,0.24561588729018574,-0.13827970488718042,624.0590727703534,455.2702856531231,621.7627434536454,stand
29.34891485809683,0.0773072332818013,-0.08784894431857063,9.938174246711712,-0.2140352743530788,0.4030946693238656,-0.1455022692443051,653.0025050825934,365.60818435165845,655.939073399969,stand
29.398998330550917,0.06265433669521925,-0.0919062988780106,9.897590972667146,0.19320002163819672,-0.1196954383566775,0.038124394409341844,715.2663558292721,405.16851965999956,608.3543480046276,stand
29.449081803005008,0.09640250232404173,-0.012768002321198332,9.947580862334613,0.18729456724587032,0.23094147651263544,-0.16266252792394217,642.5340134183086,383.40591438956545,628.1493180384067,stand
29.4991652754591,0.0957946479517731,-0.04374624710389961,9.903415621582155,-0.05909540720129569,-0.06537963686805101,0.0805480330080459,648.1462949343116,352.14312892180266,679.1424851856851,stand
29.54924874791319,0.0405336916342144,-0.1429627367985914,9.955002930459145,0.19401701572330493,0.024798223473948233,0.17649483694514156,671.161363616502,405.7835695022534,645.0280618309276,stand
29.59933222036728,0.043483075592944974,-0.04711797987667489,9.935437464802561,0.08900461647146493,-0.5262283270581739,-0.0954517391133647,711.4827295386538,448.69746153201197,650.2546404545442,stand
29.64941569282137,0.08133505847399179,-0.1004996348129008,9.911120621363919,0.2141108973502447,0.13029170097104348,0.226887283748545,658.2218337438559,444.8165339873634,621.8405494792144,stand
29.69949916527546,0.0796219730465214,-0.052845362626094516,9.951955335757525,-0.16958743521454456,0.12040319986539862,-0.6279735499632152,642.4252525266279,399.01739355700454,625.8683490927014,stand
29.74958263772955,0.12785130000709324,-0.040936411940635326,9.966230056895663,-0.15263834846746357,-0.10976633011195008,-0.04919332758256751,697.9198049584725,387.31001480012264,610.5476245182595,stand
29.79966611018364,0.0995141474437036,-0.0501482761705768,9.927350003500544,0.35204708364606013,0.06392969720298525,-0.3046839237844243,675.1855115602949,316.236175342297,698.1417768882229,stand
29.84974958263773,0.1057588971361354,-0.06565781651161459,9.920157527911266,-0.2215357508486018,-0.19148192574599482,0.320595710881875,751.251293641154,373.51321836953036,540.8952363316125,stand
29.899833055091822,0.10341454004636358,-0.019892281867084215,9.887975709807883,0.23793312735969852,-0.2570562490202295,0.2302689540598363,704.9281861856138,403.16925468359506,638.8041289795032,stand
29.94991652754591,0.05365924293186557,-0.08478096789173407,9.936483516631085,0.010746340069383693,0.04550882318516109,0.4692741939418322,647.5875310471137,368.94987047101375,699.0640812644631,stand
30.0,0.10136428883187243,0.01003061725798958,9.944277955226022,-0.20311897831955938,-0.004859482096453798,0.05562263684449046,651.9902264389518,375.90629607134247,663.5120597850791,stand
