timestamp,ax,ay,az,gx,gy,gz,mx,my,mz,label
0.0,-0.018884696454162547,0.23917032177582226,9.015149266231862,0.2593953798212978,0.9641029194221666,-0.03573269776283985,639.389630535589,377.309790494144,556.6755497198936,downstairs
0.05008347245409015,0.6092571870134839,0.09764433362959235,8.731644295954123,-0.8556934777417279,0.20109174786977455,1.5644868535760839,667.2824432811822,355.5881417680551,685.1032145389668,downstairs
0.1001669449081803,0.7952281404350623,0.5899959334901632,8.581369058661402,-0.4845509912922424,1.4056680555445311,0.7968687234742913,684.186757213353,372.20383225320796,591.9765420133151,downstairs
0.15025041736227046,0.6193520580023775,1.0234656183938373,8.842656821212787,-0.5542631541400446,-0.3016464191302679,0.7257544687416734,673.7432713453562,375.3158318761824,576.0318068214413,downstairs
0.2003338898163606,1.2061245921357877,0.3340841397330544,9.39816939957876,-0.6897279814499909,1.2002138380136458,1.0619471957371989,602.2822775309564,375.22979272172176,620.9936374220275,downstairs
0.25041736227045075,0.7160566816924943,0.2979056140017184,9.282350595664543,0.6772186436999086,0.5057188059299704,-0.6522584468270275,656.1543245369371,364.3762905984563,644.9870859260564,downstairs
0.3005008347245409,0.49931672109858904,0.09499540527004419,10.33868404376775,-0.46562493665003946,-0.5114922961229338,0.1683729781233268,670.6633041767863,329.2192908403801,643.0652019485183,downstairs
0.35058430717863104,0.21453970445826342,-0.004531912459318305,10.662518925295652,0.15662197170907038,-0.5123233441462551,-0.28615754683855993,799.0307459880047,387.6097412215824,625.5115247160646,downstairs
0.4006677796327212,-0.20810188610576236,-0.43479705272013636,11.322170094905116,-0.7400124064544981,1.2206099440325764,0.44196187644481216,660.8538674009584,420.16416538809756,640.2062636058749,downstairs
0.4507512520868114,-0.6928696800574866,-0.8352619003036579,11.64231802983952,-0.15107087943472136,1.019589692466987,0.25605360761699847,698.8519557205965,409.43182926370883,682.0494829894523,downstairs
0.5008347245409015,-0.6598439687892637,-0.48033108913406014,11.142585775592854,0.8559156706774897,-0.3054266890966674,0.5087617811995622,626.2284137857188,386.63320073571776,573.7215995612405,downstairs
0.5509181969949917,-0.5759263904544892,-0.22160468941817296,10.868377533061121,-0.7574075980512431,0.6762481376919639,0.31077295304530655,664.7053694133668,364.020633207384,659.3141967633733,downstairs
0.6010016694490818,-0.5950483686777968,-0.26935895121770004,9.978941441763133,0.19923911734726382,-1.3599458030822233,-0.37121170115534136,686.159292424933,351.7317662810412,536.69069168032,downstairs
0.651085141903172,-0.2072730385032558,-0.2777173115167292,9.626902560206004,-0.7886779699965966,-0.7496775125290701,0.33736625410739096,739.2236364501003,347.3646859396969,662.128707851353,downstairs
0.7011686143572621,0.15930333010740277,-0.015290819373888903,8.79119353937114,0.20448125445965593,0.26289114903030125,0.1469212919965486,690.638090498426,384.8808483063475,680.8666322812921,downstairs
0.7512520868113522,0.2892180299023221,0.5339848860077963,8.645397276645436,-0.31885715956066424,0.598036158660553,-0.47314507333198186,617.2966994563299,382.8466965028113,632.6993465446756,downstairs
0.8013355592654424,0.7108975528417321,0.2771108658749262,8.625259294433718,-0.6713656910429437,-1.0865060385230405,-1.514570297009738,630.316363910543,410.12831752047526,685.5035352756033,downstairs
0.8514190317195326,0.8074610476919529,0.5601905557023226,8.580063036259292,0.3910100861280667,0.6417922778585242,0.229353084393286,715.7261527741341,345.097056355163,596.5481012296573,downstairs
0.9015025041736228,1.0992236719037434,0.695168085599237,8.91328011065637,-1.2640773896304303,-0.18305432188163023,-0.8340407145714785,671.9971198639972,421.31673887691625,656.1134280064003,downstairs
0.9515859766277128,0.811337160509712,-0.11058983107640075,9.365603626182885,-3.278536434303154,1.34918609247347,-0.20089410272266978,673.7286221852204,397.82570534399787,595.9356454097056,downstairs
1.001669449081803,0.8169066110549743,-0.24686090831516203,9.81512266797726,1.6226515456055888,0.43303659990266935,0.13302063699135586,699.4988300531268,376.82168429248634,635.6757431639695,downstairs
1.0517529215358932,0.20607292634429603,-0.30499874057735593,10.481658832556501,-0.8543239422521349,-0.6352597493525672,0.106525427322674,667.0426091615009,383.2391535244268,625.6951724116867,downstairs
1.1018363939899833,0.14780624445751994,-0.30364178890758997,10.698909424587896,-0.5612013151194734,-1.3865351933740087,-0.2689564749951573,727.5894829748606,429.8706425790812,606.4737851957541,downstairs
1.1519198664440735,-0.11334325689062992,-0.6886760829855827,11.608353120740226,0.934877522915945,1.0407452783384508,-0.1464186827973005,627.7582502738167,379.74858785867366,537.3120156356326,downstairs
1.2020033388981637,-0.7579588842995011,-0.6057315971326644,11.424411632351525,1.5627594055282004,0.8076479256594652,0.1419906402473909,642.0813377908197,398.5250507216674,630.7037139805794,downstairs
1.2520868113522539,-0.7263497799847175,-0.5946815068334284,11.010306580574031,0.018241013911470705,0.7050234368379324,-0.2590337343288747,646.477874330776,423.33840867702935,650.947966933824,downstairs
1.302170283806344,-0.5225803414838949,-0.46314007404606605,10.686608196350077,1.5653436414738946,-0.8493361223627064,-0.6326608295040004,625.9353876896487,326.02201001680504,620.4599073535205,downstairs
1.352253756260434,-0.8233800719133806,-0.006013673173985823,9.598066814074903,0.8064572642911753,0.1632128701550303,0.294260686242703,692.8773737762122,376.1575941519363,672.7325003321492,downstairs
1.4023372287145242,-0.46218158962030703,0.26281568288445145,9.345623965098785,-0.35992719463611933,0.3513555848680739,-1.75256032646716,620.3939965512495,410.71743992769996,684.2892858647101,downstairs
1.4524207011686143,-0.001885618427696592,0.20532551714242425,8.873029386419809,-2.041973354912708,-0.6681401052706581,-0.03720717880626335,665.5800039329671,355.5286000805959,576.0154988638692,downstairs
1.5025041736227045,0.7708109825418981,0.4092356837695599,8.44180631219039,-0.45330340714253664,0.2946713991195393,0.36777113060552247,714.8246499320774,377.06152374249643,636.5792552411659,downstairs
1.5525876460767947,0.9080268600608916,0.6879755195054043,8.161731061836054,-1.0349043708010968,0.047915242650939535,0.4736217845232014,639.3072614065684,432.929708502615,599.1462443274606,downstairs
1.6026711185308848,1.0716083076249776,0.6501006125749351,8.433827914476154,0.25381761162145355,-0.6862719374875649,0.17690217489232726,655.7707546977689,398.9198326229576,609.1893633761273,downstairs
1.652754590984975,1.1115386819818647,0.17967876379735695,9.419630469828904,0.040248241463054585,-0.7081082581953883,0.09995830268650618,708.8994838376996,432.4336490054774,581.9592856249751,downstairs
1.7028380634390652,0.2737271295072495,0.18915815953155657,9.560454594698479,1.2840435407216475,0.022993727731942748,-0.26152936578873326,679.5156783369704,387.9582023141806,605.5337535323762,downstairs
1.7529215358931554,0.4369858428864149,-0.30453363011505596,10.577845835131303,1.045082749085954,0.6948556404135182,0.2547540321504204,681.5699873856021,406.0222177933678,637.6898629430084,downstairs
1.8030050083472455,0.33414544053384865,-0.3233367475040005,10.939199860929746,-0.3292788379256324,0.3399535804437616,-0.052161039126580044,636.1105325869906,351.5087256695879,583.7484383075521,downstairs
1.8530884808013357,-0.1845731080078727,-0.445289080888666,11.510784487647385,-0.8352174815112,-0.26520230282174395,-0.19740954186052115,673.780092590262,400.35098197933075,618.5590747509553,downstairs
1.9031719532554257,-1.06864461675123,-0.8079977304199446,11.427246732276702,-0.12399416827920923,0.40743930203271955,-2.068741987504069,696.3254052765301,417.9060279123491,591.5926435892752,downstairs
1.9532554257095158,-0.9486813147797467,-1.120207752879351,10.908050897980957,1.1437596053790164,-0.18256658918539806,-0.3940987279013133,730.4316100844653,366.342412430911,687.3006975513408,downstairs
2.003338898163606,-0.4554216159565377,-0.7888207262228244,10.576962863031772,-0.45048448845015737,-1.0398334267772231,-0.4035727944602942,721.3506973387567,371.4431096527154,639.2966168541703,downstairs
2.0534223706176964,-0.6770752650829871,-0.1842170914439975,9.840680875343791,-0.8211020671000849,-0.11319192579948639,-0.11889585480788399,684.5740997045037,399.91871965865334,552.7262269076441,downstairs
2.1035058430717863,-0.4724309897421894,0.06759058942477533,9.430476761654996,0.18818163875959815,-0.16494582277133132,-0.3997883527840521,614.2111171702068,421.7705290600318,569.870596531655,downstairs
2.1535893155258763,0.10951447586750995,0.26024853394675157,8.99518555575862,0.11034612761009421,1.6924926845796333,0.7140154375038332,626.6494594930788,348.1589619469692,631.8112876311243,downstairs
2.2036727879799667,0.5449067094950806,0.34136088041831925,8.43002330899565,0.6446631501497608,0.7749759595118006,-1.9331938606243433,699.7341394255643,445.5904375360175,621.5620776247434,downstairs
2.2537562604340566,0.9250679980000356,0.4333190316749908,8.94785250082919,1.6894629230964169,-1.4804369038186374,0.9234151575653123,584.452673815358,395.1854756298588,532.822361801824,downstairs
2.303839732888147,0.6461602867399853,0.43341351721543536,8.836185159177166,-0.4390920097961894,-0.23922880466280774,-0.16257407537290133,662.3285640770449,375.7129997403103,701.1521664831532,downstairs
2.353923205342237,1.1806673184151657,0.6243177851134931,9.066273838470227,-0.23833971825389252,0.7732562903787975,-0.31971913513589395,688.685421423549,366.2428526368996,606.85943441517,downstairs
2.4040066777963274,0.6948095594740241,-0.01892888359022349,9.953350412323612,-0.8092831922751597,-1.8787884023574324,-0.1298476371989725,626.7638331203326,404.39078091737906,677.7987593064136,downstairs
2.4540901502504173,0.5492185000198563,0.10047802309249418,10.053735607516462,0.09479567139006025,-0.0869890288369376,1.1570079566004883,589.5162926898305,369.2182268473334,683.8510665804257,downstairs
2.5041736227045077,0.37083403830330486,-0.08088116499127701,10.624266507231352,1.0562130761619029,0.5605149890690991,-0.3031919489964995,666.6386700313648,406.8082361803606,610.9509624399545,downstairs
2.5542570951585977,-0.2301980505537657,-0.4415361138905867,11.108862986670555,0.11848829450803121,0.25565969502763364,-1.8113658939655324,675.082867927775,387.7871293277194,601.2012786531321,downstairs
2.604340567612688,-0.7177135255178851,-0.841896247430642,11.417292234648857,-0.4400106967123712,-0.809887977463378,-0.7840475523770689,664.7792051992777,360.7505796699371,614.7076673201399,downstairs
2.654424040066778,-0.6399341813920362,-0.6623335936530343,11.340618409134365,0.046965872902347515,-0.6325743585727444,-0.31239406571232836,684.1478828372453,367.4058311946056,626.0156383301784,downstairs
2.704507512520868,-0.7932146258745167,-0.525988256392501,10.651246514725846,-0.2706142629371999,0.21324296351218455,0.6732520935935671,662.7006273218122,355.3873458510831,631.6319814422484,downstairs
2.7545909849749584,-0.6235722397047486,-0.26971018165732275,10.344046018316742,0.11136715128371931,0.6768945093766146,-1.0697879506383803,646.84539315734,363.4785366059368,611.9825070541722,downstairs
2.8046744574290483,-0.10981409106180338,-0.009648502665936802,9.639797727429967,0.09744299636764212,0.21493534294608727,0.36535669417038724,645.6561780264647,450.47775690344054,559.9574506670208,downstairs
2.8547579298831387,0.2574486749359902,0.3652294348896053,8.926020219562002,-0.42968166640794836,-0.15384176132932686,0.3414382681601659,690.8764293035119,456.65208483322954,627.6521288725802,downstairs
2.9048414023372287,0.614216483230588,0.6669937407428412,8.891513262152365,0.12980980294305852,0.5945705427002035,-1.4929432648728245,691.9190386979642,346.5253808629364,579.3360412558189,downstairs
2.954924874791319,0.5169817934252116,0.5666109743889687,8.909459526978418,-0.9744641097768393,1.5482752434242522,0.7653142466026713,714.8641103829748,376.550089960932,522.6602023424077,downstairs
3.005008347245409,0.8728373566521207,0.6150153412392061,8.91645556283653,-0.5250679357703395,0.29294983903537447,-1.039862211604898,622.1567098328,427.2586008392545,707.3211538283758,downstairs
3.0550918196994994,0.9350610954598436,0.5325053123562682,8.6471604060802,-0.11765869115739716,0.6520701998737521,0.16046408864637873,661.5951346255513,381.64414909963136,630.2525780207726,downstairs
3.1051752921535893,0.8491467966372465,0.2515648956398276,9.637952770823402,0.27710759398523027,0.7840126815512141,-1.7607267016322583,608.0205252261594,358.3673867229135,607.6976701211216,downstairs
3.1552587646076797,0.508356074126014,0.04798216229095363,10.253074378485506,0.4439038682432581,-0.21214009997408637,-1.243038835770923,618.4364638986019,415.0775784350449,691.1976344656173,downstairs
3.2053422370617697,0.2052270884563397,-0.2751516832863907,10.752660073871592,-0.45599395601618015,-0.4012398693801451,1.7405621284882322,621.8849115489932,420.9950614517877,641.8740108696463,downstairs
3.2554257095158596,-0.06495073414591597,-0.40152080456580247,11.282071277492225,-0.5363944645304772,-0.5895240493683623,0.441425129067594,689.1680513309316,450.69084564037837,654.870880785859,downstairs
3.30550918196995,-0.9001875280484878,-0.9179352519071404,11.35844070357502,0.22211762091387874,-0.01746225597718355,-0.09159610987721985,727.9919132802049,361.3528037355301,594.0869353637733,downstairs
3.35559265442404,-0.6319314832309163,-0.7315334236285236,11.687444477225666,0.3488021099207222,-0.9158394683071981,0.2536168340627278,677.9185850868334,417.91129683910765,598.629581584448,downstairs
3.4056761268781304,-0.9010647545386573,-0.5537861501021435,11.069117503091398,0.22556290020824882,-0.20440941110396363,-0.012390274388880868,740.0264072478159,359.8165398335644,618.1963297531328,downstairs
3.4557595993322203,-0.5889055697027518,-0.5337869785549454,10.05493467021354,-0.9299543372718054,0.6007624095653907,-0.13143377851325783,678.7077631124636,343.3309747396112,599.229484565212,downstairs
3.5058430717863107,-0.1804319196794824,-0.27571414770159375,9.984886140314888,-0.5491161170944336,-0.6460536893317029,-0.6263822170899013,622.1712398312931,403.7357383291539,587.2748623423377,downstairs
3.5559265442404007,-0.14167876039371607,0.41389313766881547,8.900414816277621,1.0374382264982072,0.2931796635748908,1.1259417107940928,718.6679030572895,367.1938891003869,609.8269212767997,downstairs
3.606010016694491,0.39173099418745333,0.5784232455646978,9.102072598029546,-0.2710770688406613,1.405519016702811,0.5483421493843433,663.9294205863308,424.974360604809,674.0610217550936,downstairs
3.656093489148581,0.5921403956733962,0.5538210363311971,8.384705790777614,0.7066712986605137,0.758322344789891,0.12704765816323357,683.0037113051793,402.55888957691076,609.8922261685382,downstairs
3.7061769616026714,1.1342892472238484,0.5992171925230971,8.593868911290418,0.6023133953532066,0.21071656700305888,-0.03864698305456315,691.6140835696282,439.95823978213537,567.4832385310236,downstairs
3.7562604340567614,0.8728036279557558,0.5778776303696807,8.876742360271917,-0.5586844117446621,-0.9345520319538184,-0.24256355164799492,603.3102645946558,361.2793360948999,599.0874117123217,downstairs
3.8063439065108513,0.7636810193047462,0.24862966943438314,9.54950492206659,0.7238649453881968,0.7143393618812969,-1.1023675989865307,704.2128258868637,332.79166676586067,672.7648101212211,downstairs
3.8564273789649417,0.8308552735047658,0.3443776710029676,10.129230120899658,-0.31345020580493405,0.1933880076981567,0.25021021302921825,710.2173690349825,397.715633028542,528.1327949763073,downstairs
3.9065108514190316,0.2729826194206646,-0.23026135371289402,10.739772083787289,0.759052625492918,0.13249504364379916,1.677077163632822,650.1992005602881,388.15861454678344,652.4709155032477,downstairs
3.956594323873122,-0.2232924028739391,-0.5964887752601256,10.965144037282993,-0.44042182722789064,0.5537107609000012,0.47304130935803423,702.4889006355459,361.1728607588469,567.833693746237,downstairs
4.006677796327212,-0.5944054461540511,-0.6812104068014007,11.19870114790986,-0.4953175187740253,-0.221467576061284,-1.037350429026123,652.0921400905366,365.55862512198416,638.2780334899251,downstairs
4.056761268781302,-0.7815315041053122,-1.1253318206468428,11.229368239088839,-0.11002482666299389,-0.3485258705373299,-0.11114154156195163,635.3354886847964,439.8562084755017,639.1258061505438,downstairs
4.106844741235393,-0.7491624601398227,-0.7963663843660762,10.945132588929978,1.3926882810962302,-0.02702304076015773,-1.1265656520751852,704.2454863911918,357.5651284234295,707.9473936591388,downstairs
4.156928213689483,-0.3839325145377243,-0.4843982229664281,10.524499102829942,0.4625994510891461,0.8249398100586541,-0.15144297816346095,679.0306949658516,368.81412268017976,708.0462242205094,downstairs
4.207011686143573,-0.5078121261871812,-0.06633920276230618,9.92925648402614,1.3972840738127295,-0.6998053081448988,1.0815166670031464,709.7826668552485,370.15725595354166,504.7440797131758,downstairs
4.257095158597663,-0.32234920083673657,-0.2497938158603975,9.22178485386896,-0.8550922267266892,0.30805820409371965,-0.6654776064173376,622.9885405939692,391.5792875990968,614.7469151950683,downstairs
4.307178631051753,0.36940172296155277,0.31192314045108244,8.799934956935958,-1.3984821202867448,-0.7578291500956613,0.030456686504092365,628.2805507294681,425.6250392616764,617.0527360562206,downstairs
4.357262103505843,0.38488029799508444,0.34662123536805967,8.514550709035987,0.34403869199110454,-1.331694665284401,-0.3198191594341106,659.6439805727321,371.57174226030224,600.6550686311588,downstairs
4.407345575959933,1.0823318370447925,0.3592519913437997,8.485885380738512,0.5105651844438943,0.8318599387069693,0.870003860098341,638.0523048759129,389.1029588718955,672.3774492249618,downstairs
4.457429048414023,1.1044290211622294,1.0641219117339997,8.724193153318037,0.3576921731875421,-0.09240872957859897,-0.6090286181726342,773.210642931481,418.3503718534366,657.8054360518136,downstairs
4.507512520868113,0.756002828130118,0.1268757035599241,9.547462307866825,-1.2042735182167854,0.2186720585123748,0.05865514888054501,702.9984033707806,405.2197551503082,619.734042333416,downstairs
4.557595993322204,0.4979350101801218,0.15181416930609448,9.777649787945439,0.11094457423912273,0.026485659057457426,-0.028820906639533177,695.9434005018378,414.99675107893756,602.0204135347499,downstairs
4.607679465776294,0.27546033505428996,-0.19738584417677196,10.2001161275975,0.571092969748012,-0.23073294046065226,-0.8536867635497262,595.6911080851002,442.5033263173143,538.8045478711547,downstairs
4.657762938230384,0.01809230375872481,-0.359588462148968,11.008299097491108,-0.8607849121098687,0.08031338952506874,0.03601648603386801,703.8253542353931,401.5155659066622,687.5208641218583,downstairs
4.707846410684474,-0.29959350672326107,-0.5033471429622602,11.650341889416328,-0.47259111188677044,0.3119042628020646,-1.2097504926540896,701.5981844398418,408.0274279009018,500.5811740094612,downstairs
4.757929883138565,-0.8101808196865933,-0.7691287706667067,11.223115307002383,-0.012607336741583373,-0.36485068870512327,0.6515668936095547,606.6490300638716,367.0286891116372,605.6907117436054,downstairs
4.808013355592655,-0.5261590706021434,-0.6456410002473758,11.365726334297037,-0.14523897434311214,0.5170247109718016,-0.12476944812238829,641.4232085767379,378.78763436840427,638.8718997701465,downstairs
4.858096828046745,-0.7555442366032449,-0.3946098117323696,10.633259267145654,-0.20626549565696503,-0.673635656401418,0.3550390831397617,722.330066966005,391.2839982869668,642.3626391646422,downstairs
4.908180300500835,-0.47952686009695716,-0.3711831383370691,10.033008013094628,1.667139207937895,-0.7567352459353145,-0.2968901427428399,649.0337069154259,370.65217590164315,600.7030116815951,downstairs
4.958263772954925,-0.38032401358699836,-0.4869018269010403,9.771514955937375,-0.01101805271345941,-0.18583054855479045,-1.2299327108886329,609.5280382494564,394.16147289961503,638.3686239864534,downstairs
5.008347245409015,-0.3490230040483548,0.24287952225964993,9.319390292920843,-0.6171233351221156,0.04953497249523508,0.2737833532389036,667.9887505637142,413.0931637964479,603.0197543291855,downstairs
5.058430717863105,0.4036536505180729,0.8687009648997226,8.239507110024027,-0.46010279740341126,0.42198653656070945,1.3870418304111303,666.4613811042666,352.24237296755933,573.6284906691706,downstairs
5.108514190317195,1.0430525372876855,0.3380213515902878,8.270965552989532,-0.3116631681891563,0.38672956015422055,0.07132305853037736,666.2822707211894,341.6401550060208,528.7453162666899,downstairs
5.158597662771285,0.7146783355085741,0.8672205453737776,8.910874177880448,0.11445090410693314,-0.25605412926164883,0.6379928310289211,735.9887123779554,418.9431051368172,602.5682789012384,downstairs
5.208681135225376,1.0377900082278708,0.43919493691653394,9.003297977944026,-0.2570951485953309,-0.8025882628467884,-0.8382833668343679,689.5285122947358,413.1011366986689,583.3426015399018,downstairs
5.258764607679466,0.8848717423340194,0.5066022099564902,10.004693444597496,-0.09929382834724153,0.10289275784912598,-0.4104153006580421,517.9750695086199,455.5026697715425,698.3697561863091,downstairs
5.308848080133556,0.34241972027952006,-0.05191647368418857,10.284589655611114,-0.5545134735167152,-0.11529997318342741,0.9044584858755791,684.0756730333135,429.5792171099659,608.0766910707819,downstairs
5.358931552587646,-0.2016581667718742,-0.2955721305660849,10.622894786318648,-0.6633828365677071,0.5982371827361092,0.08601369221901874,709.764483106494,372.3347608200804,547.3429718079421,downstairs
5.409015025041736,-0.6975890243442974,-0.7230077576941452,11.301100221827573,-0.4260563323825391,-0.2715545879707328,0.2642713942640364,680.2777136250912,356.9333344910475,597.5924354420833,downstairs
5.459098497495827,-0.7031583764684476,-1.0032172078937511,11.627107730150431,-0.671579143804293,-0.5053223095312345,1.293551150722591,636.9647561672889,492.3517417704828,634.719543575183,downstairs
5.509181969949917,-0.7859473344861962,-0.7718498100167817,11.07766303763426,0.17636479021462495,0.1457527474277687,0.23271042171715609,808.1431777626273,399.15838763133536,690.2950657580997,downstairs
5.559265442404007,-0.9207857558384572,-0.7806885025464667,10.670001566314093,-0.9481761095053746,0.24334326253455144,-0.3936407607980368,683.94148832925,391.5893258322228,639.4832848601015,downstairs
5.609348914858097,-0.751189895098798,-0.41175504542836133,10.61112470344816,0.03390259315973195,-0.5008848918454487,0.3162352893240501,728.4598924914723,348.9622809683827,635.4099166041168,downstairs
5.6594323873121875,-0.3078549534888176,-0.13936857256330604,9.587367668843848,0.31249234160427375,1.0457732040935501,-0.02046289265558615,610.7886273404129,415.49221187367914,620.7221205516026,downstairs
5.709515859766277,0.03996226771817884,-0.06270455282256424,9.337211328095558,-1.0535110127917051,0.2944521883251855,-0.5134328673538111,714.3208082852701,382.5014141388634,550.7965435536238,downstairs
5.759599332220367,0.5601124212754909,0.2821963567604256,8.563441547924372,0.2706323605273485,0.4354682573655157,1.3998028105834557,659.853303908572,363.89773333830954,572.1364806731135,downstairs
5.809682804674457,0.6825622980738365,0.7502548624781489,8.416760070676055,0.45983937245412243,-0.03913197580289526,-0.9513809514294723,576.6701499775627,428.7569796624924,646.7689254571943,downstairs
5.859766277128548,0.8388009954206189,0.6050094104210608,8.444841507976177,-0.3411028009903544,0.32635291883123446,0.6127250034972845,655.586958528324,394.3008447600905,661.8652464853508,downstairs
5.909849749582638,0.8350201952411772,0.3838818951762526,9.126876373304297,-0.2788677583137804,-0.7893267524042509,1.0758426674314068,705.2166498385017,348.9081387281714,640.416100035645,downstairs
5.959933222036728,1.022475681294182,0.24711193455012365,9.672104470991412,0.3657995269074341,0.8457231833483759,0.587801231348953,651.2415192502989,358.3134344806383,622.6955113697153,downstairs
6.010016694490818,0.8379201616412743,0.11842776785207265,10.0015528776722,-1.5125623497768563,0.029999811779293915,1.4255601508170757,683.7340564827833,464.3162555941591,568.3904716865331,downstairs
6.060100166944908,0.2233560241730414,-0.3679716401422881,10.438910416169241,-0.8962944949083227,0.016578994029689625,-1.404892372469458,602.0267616064671,405.71516586016105,589.2437343224972,downstairs
6.110183639398999,0.003930446268595053,-0.2046752524602768,11.19661240474575,0.4430966112214906,-0.6939793090857452,-1.1535637457917853,708.1292744234784,379.76627173407803,686.8919948133098,downstairs
6.160267111853089,-0.7555285555486428,-0.6954143705628657,11.662493356691876,-0.051605827244178684,-0.7137407053677969,0.7151723837552089,651.5145901013585,358.00536722833743,597.6808573457012,downstairs
6.210350584307179,-1.0085616560267199,-0.7529988069476918,11.306862062192868,-1.0721327580249749,-0.008443351314628804,-0.563639731069293,624.8139906726839,347.6438225708982,653.9485945856765,downstairs
6.260434056761269,-0.9962203989424397,-0.8772335613691773,10.767452618920048,-0.294350658161157,-0.22102159568858878,-0.5144261493244058,703.5340893361615,428.76224207239375,676.4785972325253,downstairs
6.3105175292153595,-0.8194174471418291,-0.35455678529610696,10.298818276703766,-0.38343464176401243,0.39399745944774694,-0.7499325039579604,671.8687348245759,440.2773459288212,667.6994340735353,downstairs
6.360601001669449,-0.2547307269360404,-0.07459679313712592,9.641199291519966,1.0155325532461204,0.09884988174143905,-0.9628228006098062,660.9854851155142,381.2745112181129,632.3523061823784,downstairs
6.410684474123539,-0.14282723322544216,-0.24184076371514712,9.290225684783133,-1.0982873425960562,-0.14027561683466025,0.08038359026628912,612.800331421817,370.68065704722824,620.8117248522724,downstairs
6.460767946577629,0.4197460216786508,0.5488735668985845,8.601868140044447,0.6975133105174992,0.29855062670179133,-1.1420760238769254,695.8667798062891,414.0492217001238,562.0993557769075,downstairs
6.510851419031719,0.7309159351852849,0.9052208792969518,8.437815651239692,0.35232709333640877,-0.5744009317438803,0.9897550641226316,681.8381287383928,357.39818707481794,650.6108866449678,downstairs
6.56093489148581,0.5786812107106502,0.010227143200301103,8.527483341210555,0.40479689065563734,-2.1533088916295555,-0.15197125241639894,633.8210158114218,395.7991305362447,607.3398135557038,downstairs
6.6110183639399,1.2409336119131233,0.37052053786815575,9.056066768993068,0.6404687362178971,-1.137942983126083,-0.21307723846666154,661.9875680399156,410.3655878180099,564.2851165967156,downstairs
6.66110183639399,0.9300347099902943,0.4872113768009166,9.184021281683297,-0.886606015714579,0.022265604829864068,-0.2898659367234277,704.9846137034083,424.39751290351916,621.5525197897181,downstairs
6.71118530884808,0.757862346361785,0.504367783284366,9.397625350398025,-0.13748462119633822,0.6634755268247995,0.9685854869242136,648.5780838738287,396.7493804225152,631.5624287980203,downstairs
6.761268781302171,0.30968326944405217,-0.17108102568241346,11.050389186454023,0.021310366488589767,0.2740079293843273,0.03318483517426762,622.6935493126093,387.050200841515,604.6354684152097,downstairs
6.811352253756261,-0.22965745340892224,-0.2874041280591878,10.953271915500535,0.6630658615888235,-0.2948809537717007,0.11543996775414993,706.8929272625105,385.27622628693956,675.8878953442139,downstairs
6.861435726210351,-0.4939446783789791,-0.2075543194080003,11.174527253774361,0.3666390862494744,-0.22841322359859573,1.4042071072264835,668.9862959862884,362.26878515502295,565.7616773714237,downstairs
6.911519198664441,-0.7347555881813135,-0.6288140246164919,11.034873856191831,0.5249744929974972,-0.2412118799867507,-0.12852736866981043,697.5508487928947,400.5786209325383,572.406547626384,downstairs
6.961602671118531,-0.8328817827665626,-0.4064392346265428,10.907946707832043,0.3703963517326612,0.8658223339360693,0.06044167560332458,689.6199505583847,347.20249182523844,615.8910278093869,downstairs
7.011686143572621,-0.46629020035483776,-0.5311814014685032,10.52802988113516,-0.6319992583937899,-1.600391672626193,-0.31855532652829627,658.0381349105564,354.1338974747419,656.0511696230285,downstairs
7.061769616026711,-0.5136182278619297,-0.503940353316662,9.696275171189377,0.6083466110029879,-0.321942298813196,-0.12625447250518124,632.6390999154662,405.56417031893056,632.1275608768233,downstairs
7.111853088480801,-0.42583097810722764,-0.0607562198569047,9.442091952777742,-0.8575517015723957,0.361525899590528,0.7672412258629384,732.3207809242064,370.8140206254362,774.8596035236048,downstairs
7.161936560934891,0.4223484357684537,-0.08494304849493561,9.061782551486797,1.2559690713615905,-1.0721819786511424,1.5840119615522836,686.1638014865425,395.5129712293412,662.9976015911474,downstairs
7.212020033388982,0.6968861035095627,0.3186722935470715,8.652940743307319,-0.15161487892685493,-0.35374068215478677,0.11645763297851272,667.0937552097407,393.2517925314023,623.9556008298781,downstairs
7.262103505843072,0.4808738338138139,0.6282036331436478,8.4374192309631,-0.6226906753949546,-0.7487560988138731,-0.6645161735005031,748.408208104069,322.64190008010354,650.6387913915486,downstairs
7.312186978297162,1.182813734527571,0.6715738122019221,8.984696541700059,-1.1976427423940068,1.2886768175274217,0.16007818700477724,689.9973727922617,324.068071922036,551.4266259562207,downstairs
7.362270450751252,0.36707867975526126,0.325641397980537,9.17497526156023,-1.4751298943674256,0.702265989235195,-0.08370015280101034,727.4075880448768,459.0363730286683,568.5117508622022,downstairs
7.412353923205343,0.6422979186286174,-0.03940999189724581,9.963779931355383,0.09318413110501737,0.3605569282748774,-0.3726591755786337,644.4979486328424,355.2918163277158,645.2935032851519,downstairs
7.462437395659433,0.5909457833019284,-0.060033302914416144,10.170684614220663,-0.4875582109225027,0.2700077165164725,1.7363393560121536,751.4016641509526,372.5360279401058,670.3828433172863,downstairs
7.512520868113523,-0.19650029029428462,-0.5226203623677437,11.148017286228963,-0.0188180926019527,-0.199951275451905,-0.6068487910224786,736.0184600984312,371.94109760514357,627.2672211850992,downstairs
7.562604340567613,-0.3275108243303843,-0.5232335591879858,11.137954493448609,-0.3847171091255339,0.7220887743696537,0.009021318064124642,736.2819529289603,378.02597504565387,578.9531221387527,downstairs
7.612687813021703,-0.570799961855838,-0.9596012629814754,11.139866689291074,0.8434538147723932,-0.6680261405799995,0.5426630977016766,668.5096755145158,404.74190062197897,574.3256429459224,downstairs
7.6627712854757934,-0.7840605201104838,-0.8842577599118921,10.749577886008746,0.5179505171525545,-0.12807757414467147,-0.6737763989177381,692.5973865242487,352.85279731458087,678.7748792915485,downstairs
7.712854757929883,-0.3026270458593266,-0.4714259412374765,11.070285269195317,0.44019061071660825,-1.400034790624656,-0.5201436166218414,697.4427368729247,430.0874621814028,624.8692493483344,downstairs
7.762938230383973,-0.7447564791014801,-0.3601100363951483,9.850754826023865,-0.47901553634240623,0.43020907845393574,-0.21693056482856224,669.5327426462903,425.4440743228758,617.4718568184554,downstairs
7.813021702838063,0.33073761357181897,-0.25240679638078045,9.503142822650185,0.38669850231010344,-0.4869414393023683,-0.9547399382817754,674.5115659449551,392.7698179342636,707.6407965865001,downstairs
7.863105175292154,0.2734642555147327,0.25408467975061316,9.293913242910376,-0.9490632753659326,0.4446538170194489,-0.7921662133911606,676.6643848818859,408.1607191729918,651.2732797539688,downstairs
7.913188647746244,0.9849127848893185,0.26083997835963607,8.516745358672624,-0.718886666256356,-0.4136059557454096,0.6670275888214329,672.3082460164504,401.74232598582114,646.7823697055113,downstairs
7.963272120200334,0.8013989062861199,0.43180640762233663,8.592281052917416,-0.2209049825614182,0.4731740660496837,-1.4765007360787255,614.0306511390379,426.49744134678537,567.8920407293316,downstairs
8.013355592654424,0.9395643472446372,0.5879011618492853,8.055063222763588,0.6602593446167847,-0.514117230586665,-0.045824339676576537,687.5627871432663,307.1823637307577,583.9480144851249,downstairs
8.063439065108515,0.6643632429088778,0.18489638668272462,8.781560205854651,0.47013197056784856,-0.22968924411175784,-0.7382510386205305,689.3154820145351,396.18087159715486,632.4948328472603,downstairs
8.113522537562604,0.8905027541021541,0.23477196574482645,9.509973048904678,-0.2331270017935688,-0.05864050977465508,-0.48606467265272435,617.0210642289171,336.2128670439421,599.2106332061841,downstairs
8.163606010016695,0.821311147982841,-0.06521778116829136,9.981111707616025,1.1102131083072824,-1.3003697616616559,-0.33305117315041194,689.3362278044976,387.35931148278894,641.4113125649603,downstairs
8.213689482470786,0.009144408932732898,-0.5436623824767504,10.879110271026793,-0.4345191811834558,-0.17375899753941096,-0.912095680133542,679.9991071646758,401.6349152008783,626.3554688360928,downstairs
8.263772954924875,-0.34928767797901783,-0.5582161739055699,10.893118835810757,0.20123566713585014,-0.4949002571676668,0.06412250271650513,703.5890631227189,394.3921932319131,638.0083699389479,downstairs
8.313856427378965,-0.5546540745077861,-0.43337761545253856,11.420899583189232,-0.0561459622733175,0.38640823137337377,0.8833354227118336,678.4019195155186,413.6959698827584,651.5553154470595,downstairs
8.363939899833055,-0.9884079712894266,-0.5239652375852312,11.113422408718504,0.8296627382884075,-0.2461055699941202,0.09290699293057071,719.4750886165232,442.0317402841915,660.8355568137615,downstairs
8.414023372287145,-0.8817740878574353,-0.5985901414324457,10.980473365725736,-1.3134808489828182,0.5548832151869775,-1.2235233761292468,730.2390159699992,341.52063277521,649.808224597797,downstairs
8.464106844741236,-0.9803057857667538,-0.6582493358624255,10.153421809072883,-0.5440832402087484,-0.4927047753598112,-1.067155012155846,666.7561355329822,366.72588023778127,608.6401119786494,downstairs
8.514190317195325,-0.6466993303212093,-0.15743783607008632,9.817308057797604,0.8998500582782656,0.3037237218633782,0.25682399075126666,616.7279298837962,380.3259711933836,714.7044791380276,downstairs
8.564273789649416,0.005781541154830733,0.42140999264968065,9.023862730294606,0.3260050525170799,0.48007838611871767,-0.5618328858860503,711.301751969867,401.99997843936717,571.1180816850634,downstairs
8.614357262103505,0.22260327209375214,0.49681139572395633,8.753443651154466,0.4203722752876033,0.30331247321163457,-0.63758892723493,665.6552206998301,325.2924272882141,632.8781381583334,downstairs
8.664440734557596,0.558857448601865,0.2199869843308893,8.133441868120823,0.38217697180251176,-0.7738676316176288,1.160689741567575,642.9246227092276,324.1105038103646,627.095964621298,downstairs
8.714524207011687,1.0997824852029112,0.45378628295397766,8.669554170731448,0.5406913785922896,-1.299024513548963,-0.041079398386692875,689.4802819151081,329.1098272136083,676.7290827053661,downstairs
8.764607679465776,1.0049556318418367,0.21811005520704224,8.875196182960808,0.5890941421978382,-0.9621589686102544,-0.012217465956409232,655.9146357531778,412.70127504549123,636.7546201185763,downstairs
8.814691151919867,0.7874144440159657,0.21616545496329204,9.653921455043713,1.089384644169106,0.48558970795149003,-0.0698309986963178,653.9071029176146,298.1168096628258,527.631473546747,downstairs
8.864774624373958,0.5537368916135195,0.269510821116306,10.287827847172982,0.12652739584861908,-0.3723773253460574,-0.3564014125392925,685.8444809954932,417.4039742328717,528.797792910062,downstairs
8.914858096828047,0.14631894812741603,-0.1325944980417462,10.476131141826588,0.11373415434636726,-0.3506524771413811,0.33001829208830996,729.1613673817998,356.7673768147731,622.7892536730026,downstairs
8.964941569282137,-0.017965033529992028,-0.1872064129226641,11.195436397874781,-0.10606405331424573,0.1194642271992683,1.230962277902798,712.444936849846,407.3184245138176,666.3449794296159,downstairs
9.015025041736227,-0.8180513057712103,-0.4890246001328058,11.310343343628274,0.25976997350538533,-0.068730636993558,-0.10148572867431598,686.8781889784277,388.99372339170424,705.0894561884244,downstairs
9.065108514190317,-0.941936717189383,-0.8869043549393201,11.178101528123516,0.37707165956385247,0.12963749454336973,0.3734909167699408,733.8599951484175,322.85180889287716,669.6186221520501,downstairs
9.115191986644408,-0.5681814847933812,-0.6870919871940357,10.54393406129637,1.244386651178239,-0.7555106817495154,-0.2580188669102899,643.5301922937158,343.4787431309508,599.0913692557713,downstairs
9.165275459098497,-0.9130569981852387,-0.2852126433743106,10.147772740772758,-0.3606075143500614,0.0662124661304866,0.8400781517713563,733.6035287221245,347.8146424094278,663.775559563277,downstairs
9.215358931552588,-0.49920595631542725,-0.48658835044429427,9.572567272945996,-0.5728656516299288,0.027258094933910775,-0.16923666130295847,677.8542116005959,369.427520502699,546.0491961895175,downstairs
9.265442404006677,-0.13474771337741198,-0.020521334206408268,8.978340454221863,1.3975022072014693,0.33154388375060695,0.3501857411293588,671.3051602624577,387.45754002311946,651.2336878069909,downstairs
9.315525876460768,0.25101587852918,0.3996940564636355,8.99267967081011,-0.8339179621851666,-0.24903718862794721,-0.6703055410582783,676.0613102010191,444.08674188114867,704.0462416262606,downstairs
9.365609348914859,0.6015950518917653,0.4379404142020438,8.69995085191871,1.3996205100758838,1.53399057002734,0.11283337914332307,829.7789217904375,450.557009051381,604.2470511760364,downstairs
9.415692821368948,0.7007004310243033,0.5140874838073486,8.920003955287415,0.052580347520639,-0.47040422600022325,-1.1013449373172033,734.5985977598965,365.76811176538433,604.3409908944375,downstairs
9.465776293823039,1.1274509689718215,0.6539462940612215,8.683758252314682,-0.43892844386073515,-1.5734739227522756,1.0508257257548068,683.0907933948233,429.837266532865,597.9705983798497,downstairs
9.51585976627713,0.9696372551358506,0.035482100970748554,9.620845761074346,0.26857184961123504,0.7458799959549425,-1.585978930867281,646.1429409560534,340.7510225449839,643.2807059645556,downstairs
9.565943238731219,0.5805414347623988,-0.02979173465838425,9.751799553191596,-0.3989731213561069,0.25615321522421547,-1.2801741186164668,678.5269615987997,376.0396339145864,656.7249655676884,downstairs
9.61602671118531,0.6277029703730083,-0.3145567423571552,10.224178341323988,1.435171126360287,0.6592705900677818,0.7533317653757002,660.7936698542841,361.22561332196665,514.4127720759997,downstairs
9.666110183639399,-0.24684898462692434,-0.31311341493442385,10.705223876781952,1.0481307727169358,-0.03397228001334824,0.6255102225776906,696.9353701684773,399.69817911640484,590.7466630603354,downstairs
9.71619365609349,-0.3526797041792702,-0.48590423255788723,11.673566120911648,-0.6907431288237873,-0.5271730483046624,-1.5192621546245613,598.5612246115968,455.95375476978165,607.8879392057203,downstairs
9.76627712854758,-0.8723193793239127,-0.5900062745466728,11.167590833413277,-0.4778630915393209,1.3469834006758004,0.8358482526190955,663.9800773637551,406.76667941340213,608.319027372668,downstairs
9.81636060100167,-0.7208791830836102,-0.5457322016569575,10.78907153312463,0.33893370714055215,-0.00043956708253933873,-0.13136416108066493,721.162652011867,420.5381303250959,584.8040590304088,downstairs
9.86644407345576,-0.8466476174001206,-0.5907316359620678,10.456979126250742,-0.2874474294799617,1.0387169198079018,1.85792050736738,674.8044528107804,329.27142119876146,600.153148706501,downstairs
9.91652754590985,-0.5696061606621808,-0.24367507542952407,9.801758957012554,0.32629924043589964,-0.34777008538356446,0.31469346830948175,669.4726812645865,364.24970804536025,601.0724490827924,downstairs
9.96661101836394,-0.30746901719752145,0.594369576524064,9.427926821923052,0.5350708981086625,0.36105259011792085,0.8248612525085184,680.5635977374898,351.0780435712468,640.1473850689754,downstairs
10.01669449081803,0.3884995849914286,0.3085754374621739,8.961300044392683,-0.7082713426668511,-0.02883216646986592,-0.4649255991699254,707.6303189290242,444.20693625322076,532.9120016481643,downstairs
10.06677796327212,0.45562749226119464,0.6068944904093916,8.543687452593508,-1.1920483335514722,-0.08319227642839562,-0.5331472112702534,735.0708188611064,415.81955945093955,576.7579366254519,downstairs
10.11686143572621,1.0838351256421526,0.5074753140573722,8.52461958570098,-0.2829183652583202,0.5785657300681674,-0.28100177168344553,654.1141584739235,400.21380078276576,599.4886066892353,downstairs
10.1669449081803,0.8887845528892862,0.4263117365100456,8.53853891083141,-0.9507373307275362,-0.17409547990074659,0.6589951964914424,708.4801740751594,369.24053090846587,655.738514004001,downstairs
10.21702838063439,0.9152997669165996,0.14681315973421388,9.590988306343679,-0.07302676731683659,-0.33776573212661437,-0.6717525262953293,664.7010844456801,415.1315630815102,607.423808936612,downstairs
10.267111853088482,0.7263797187108695,0.08626950806979633,9.65460530041929,-0.4016404559693996,-0.4644845407953568,0.5826328532542737,723.9745252053107,410.9902376100579,652.3836999242767,downstairs
10.31719532554257,0.6415742266648335,-0.022411026878907975,10.60164991717589,0.4153207491317046,0.010433976575233065,0.2155806677206586,665.6132430341493,383.2972779541247,633.8539723469689,downstairs
10.367278797996661,0.24698673344742228,-0.6210748924968834,10.798555930691235,-0.4780749011675899,1.0819518361377731,0.6200400430874374,674.2950562170332,406.9248415904017,665.2666208688656,downstairs
10.417362270450752,-0.4030674554999967,-0.5783220800702165,11.41242211395436,-1.6444008509098318,0.38973149756362946,0.004502921830009488,581.8676611374922,368.92693855061697,596.1554219164866,downstairs
10.467445742904841,-0.992281127171892,-0.806765970406226,11.170051864603177,-0.16845648030893517,-0.012352696284821604,0.005149698413182962,643.3553979379475,344.24321844629634,677.0702576635622,downstairs
10.517529215358932,-0.8151136643528054,-0.689996078390305,11.297902998538962,0.4999808407602286,-0.6791482492076355,-1.2986693935150428,693.0297974099238,402.10105426640877,663.2795688687099,downstairs
10.567612687813021,-0.39629868294822973,-0.8940558440723523,10.42272717179567,0.07869842042336075,0.8094706951529556,0.32917727222187343,634.8957354170935,327.44803457095804,604.4435041027634,downstairs
10.617696160267112,-0.667438647056967,-0.31419500696640784,9.988588741241356,1.3144998852359506,-0.6843616325339826,-1.0974109162981276,713.8665129242063,347.1413653732555,585.4747053561302,downstairs
10.667779632721203,-0.2471359027868863,-0.13289870019664943,9.54542137461258,0.29581429262407355,0.49340427884969223,0.7273291169375999,667.9667508789494,383.5766676514957,646.0745736894402,downstairs
10.717863105175292,0.060082163206204894,0.4665089943174386,8.948680415971133,0.19089224521062437,-0.7054172182700928,-0.30306465450787473,607.5401288192368,387.8412605728051,613.0029193071078,downstairs
10.767946577629383,0.6261058990892002,0.2648260776570975,8.863942265775234,-1.1112574721173951,0.10472620705937356,0.025875476738017763,774.720545305416,406.912092037836,614.4280989497544,downstairs
10.818030050083472,0.8049632749166327,0.6113629900439537,8.682517750384942,0.20857326224477105,-0.23965949507788425,0.817169786482523,742.9379490163691,385.6304230242889,602.6148649507555,downstairs
10.868113522537563,1.2280594834119056,0.45708346989457754,8.713134147442414,0.19251167557410573,0.4315811168318913,-1.1126648606495144,651.4891959315784,350.76707660309455,664.3443439934692,downstairs
10.918196994991654,1.086456606739091,0.42773292502863897,9.278418587613347,1.3185122604857886,-0.08456728023599451,0.1610412585220671,707.4033229692329,474.53881715109424,630.8725380586852,downstairs
10.968280467445743,0.8207525763533231,0.4000341079534569,9.471988431817808,-0.07971165582651737,0.09629695140805777,1.7195398786337808,698.3328828346068,374.8751913441086,626.4995269676709,downstairs
11.018363939899833,0.5405843476490562,0.3822094623680709,10.389223624982925,0.7952211970726472,-0.654263452225113,-0.690916049399744,722.1357783610221,320.00554690151887,596.483118123901,downstairs
11.068447412353924,0.337659570641157,0.02257240335927818,10.807786727649445,-0.19323984974220687,0.007347399179077239,0.7017516013777635,597.4835406424697,365.67933765529835,602.0487413190054,downstairs
11.118530884808013,-0.31142548995362807,-0.23325891248206765,11.283632860243804,0.958877149938929,-0.371596879405807,-0.18207174826486786,585.9148166704672,383.158745601898,608.7346275488629,downstairs
11.168614357262104,-0.6537907752829215,-0.4701999797916416,11.629223646597584,-0.5427251683552357,0.009631287350098458,0.23323121421607942,710.6582341353159,414.3300666043614,574.9213371554949,downstairs
11.218697829716193,-0.3841547441958687,-0.4934183970515686,11.341746514916467,-0.039275805428689546,-0.6385573356112403,-0.6794847454618399,652.0209143785796,396.87396924619986,582.0616458224024,downstairs
11.268781302170284,-0.9209299408092312,-0.8153558543629047,10.58556235503482,-1.309139168255224,1.2420840235878474,-0.8206392718520883,639.1171999084488,438.57562555317884,583.9593420755883,downstairs
11.318864774624375,-0.6755893205555975,-0.5909786705645523,10.487711948767009,-0.09567655435159107,0.6867921800161025,1.0769626244500774,697.6763064712533,331.9532597677654,625.9676738697871,downstairs
11.368948247078464,-0.5280382696699142,-0.31064508883816805,9.498380955907075,-0.625696962242998,0.24140690214903396,0.43616048842144456,673.5000494410331,408.4931844248544,552.7487248409019,downstairs
11.419031719532555,-0.4499195638138253,-0.001394150975746633,8.903173440166148,0.508146470617124,-0.7143820699543777,-0.4538047302484734,640.730932033795,380.4207774872618,619.6809109584221,downstairs
11.469115191986644,0.3733295753820465,0.42084092184372435,8.514374224994658,1.2201247181236559,0.626020604842148,-0.77727893894997,624.1858133031878,433.04111722973687,618.2565863507391,downstairs
11.519198664440735,0.7912233059269216,0.31766609863974976,8.524207417623348,1.0520867966305918,-0.09469291769203157,0.23710091568785738,719.1392812826707,356.2780710080664,592.3384217367591,downstairs
11.569282136894826,0.9785007031042277,0.660764309205067,8.137917510206274,-1.422393043188686,-1.3357150273386789,-0.0958416970629525,791.0901598357267,388.55200953683743,609.2096612760897,downstairs
11.619365609348915,0.9027526971157452,0.7655136918687377,9.133346803271772,-0.7404324337540109,-0.40139386760046597,-0.9283073445096843,805.5552274976609,394.0786954276199,677.1605026024657,downstairs
11.669449081803005,0.8885443028339909,0.37260991466905663,9.50713744135695,-0.418888870042324,-0.16524739825064153,-0.3287807422346346,693.6028319280755,402.91639448404203,652.2924059976677,downstairs
11.719532554257096,0.5933740923077037,0.4390190047485879,10.098896350598373,-0.08825542881333293,-0.6527169378812728,-0.8234994887275282,609.3839311263459,397.61478781740084,538.732446550689,downstairs
11.769616026711185,0.24472004794929342,-0.013101475211096308,10.77084960894376,0.084972040890255,1.1964010965279848,1.6069057612658613,677.9602519024309,419.84495294358663,552.928110627164,downstairs
11.819699499165276,-0.4914333645842421,-0.5046645380037678,11.080630946930826,0.8767084541371657,-0.515876487978939,-0.32948954978875317,710.9122105887313,460.7504166937199,553.1428133915642,downstairs
11.869782971619365,-0.361857159746424,-0.700172739877043,11.48846607508185,-0.3101510461588048,-0.8476532821405357,0.9972396458841309,707.4870490959245,428.07123740923953,549.9864191806848,downstairs
11.919866444073456,-0.4414511114464679,-0.34137788357550747,11.297799344087414,-0.09524646321585871,-1.2782136601634495,-0.6490836339849752,732.479029773876,343.6247426602929,614.3580442052154,downstairs
11.969949916527547,-0.6604125206600301,-0.5460787819471551,10.701074182506574,-1.2968253786369681,0.14666488512206535,0.5089734104798244,754.5625385837222,448.7440741453562,572.450997404921,downstairs
12.020033388981636,-0.2979713039191691,-0.3932818410442898,10.646362281723954,-0.34848813325416644,0.25097338478291803,0.21559075885077833,628.2547196070037,369.3932928946869,701.7342719003013,downstairs
12.070116861435727,-0.42157660367081135,-0.08263030274442425,9.793369151736222,-0.43833248103118866,-1.0477962617550387,-0.7841428834347166,739.399622955771,370.832985544786,605.9051803489325,downstairs
12.120200333889816,-0.04470916185993139,-0.31152758256786756,9.308972478377449,-0.08411303734624077,-1.9908127424753976,-0.43786219510383106,649.7214555315218,369.8490495375967,634.743347053556,downstairs
12.170283806343907,0.23490145279359353,0.15959233971190567,8.74205936251447,0.14642021216098053,0.5639457392788614,0.26139068680017014,697.3426154524357,418.5395208344733,641.2531350838134,downstairs
12.220367278797998,1.140367988269483,0.772718295397703,8.539079722236302,1.434466495292371,0.936149792571013,0.38557167380066276,651.7690162328471,393.51978329180713,579.5806596384507,downstairs
12.270450751252087,0.5931939697146581,0.8036962061414072,8.701398363776727,-1.606905082734577,0.4768258242065268,-0.2859492119079033,668.2475512639717,370.6787693274236,624.5665057628506,downstairs
12.320534223706177,1.016287529173618,0.48539018283338325,8.836771542770702,-0.18479467158571025,-0.06942341301218258,0.2108126436062843,720.6257595235754,385.7016855793433,592.8797625896046,downstairs
12.370617696160267,0.8183503578955427,0.03914912954296401,9.282720381025594,1.1592632233332165,-0.42768661463880914,1.046609643320402,717.3647491489256,408.40866405978477,615.9538444634861,downstairs
12.420701168614357,0.6964916566949884,0.07409121148215686,10.000882956955017,-0.1638897406786212,-0.3800391617543921,0.9789024780527306,725.6568472071627,405.3201205996474,575.4906177004314,downstairs
12.470784641068448,-0.18840805311676606,0.1799128418318045,10.965929997001707,0.07472929607570103,0.3985504907948629,-0.47645763976877176,700.2917606553659,328.5814597158184,561.83535182377,downstairs
12.520868113522537,-0.025365583197024366,-0.349564144204452,10.96715040122559,-0.46715926996128715,-0.5220317269196595,-0.3277143119879203,623.052217860439,440.4676675316715,592.7037447498716,downstairs
12.570951585976628,-0.33244014094090324,-0.7138092946450705,10.968618184990076,-0.06990208747413706,0.8556801029367033,0.4944322185109604,677.341663193212,395.5514321114832,605.7849183205525,downstairs
12.621035058430719,-0.8359727018947958,-0.8189959874183117,11.282602450030351,0.4362902096695081,0.5789093753181591,-0.3914915386087187,657.4274158276802,471.30984028543014,588.1709247381942,downstairs
12.671118530884808,-0.619195113821461,-0.7099727104939073,10.798491756372908,0.4514612253624772,0.5121334703998797,0.14463442995681006,692.1242897154978,406.14885430683114,622.5137893496219,downstairs
12.721202003338899,-0.8843342970562219,-0.7121497755117012,10.556448765046907,-0.996268419691318,1.1506442040918576,0.7107451874257932,728.0287267191553,404.3060493328297,584.6674837486768,downstairs
12.771285475792988,-0.42841922411519356,-0.44578368525256945,10.054471334940617,0.4463393208081578,-0.543201677640792,0.14407297835996435,752.3116543000879,429.97147537155286,622.2966607020227,downstairs
12.821368948247079,-0.11341434694029641,0.19202754100191088,9.710616723090093,-0.43161714538348395,0.6080867868746671,0.4332107105337607,618.1033503218487,314.07520873864945,664.0931060131394,downstairs
12.87145242070117,0.18082071811634104,0.2081487772207255,8.878692103081026,-0.5996226009417007,-0.5978550432312261,0.8126689817934531,710.6616110886577,391.9622924114187,568.4654185732866,downstairs
12.921535893155259,0.9265340192101291,0.8023774846715392,8.793615045294514,0.350849207302748,0.822373681291264,-0.31536210345893323,663.5672815441822,361.0396961595827,645.8056708665439,downstairs
12.97161936560935,0.9483886545999388,0.7321904516807143,8.363355673263897,-1.2464736399765153,-0.10614528615717546,1.1012757830819242,609.7863885799532,327.4350955289774,669.8657856204619,downstairs
13.021702838063439,0.9247973724495725,0.465395040331621,8.65937312524894,-0.013884408942609283,-0.13111643514197543,-1.1334809822624876,702.4251421900734,438.8478493248118,547.5040127349073,downstairs
13.07178631051753,1.1432699714141283,0.4778354315241909,9.156881318137968,-0.21420748426670483,0.7552334320143095,-0.32283833254906014,762.416942129595,404.36092893470163,620.756328581758,downstairs
13.12186978297162,0.6293373828930235,-0.009515989252874307,9.672048820420098,-1.027686413062572,-0.09107406700154251,0.25480983630063175,611.8236409504414,341.266430533316,601.9479850454945,downstairs
13.17195325542571,-0.11153231135470233,-0.08795996804104683,10.453722571069525,-0.7491488890425294,-0.30010204753877295,-0.5895942974114989,596.4103117622794,327.8500738911653,628.2026536532112,downstairs
13.2220367278798,0.10956968508400518,-0.45610252889970065,11.17636141426718,-0.007546317138200611,-0.07061093381066082,0.9690548227593595,713.4693106639065,412.44219582765857,599.6240011571251,downstairs
13.272120200333891,-0.27035065071817144,-0.6588155493555745,10.882858673017138,-0.2846285531871915,0.28900236180383815,-0.006376726484573969,763.4325652559907,452.8403498899713,636.8174756133235,downstairs
13.32220367278798,-0.4658213087347624,-0.15193605762964113,11.43817844571671,0.3467293785436601,0.4870617569984439,0.8392437296914744,701.5064258853482,382.34393896068286,658.0873387627184,downstairs
13.37228714524207,-0.911491029794013,-0.48302209741114527,10.987126878455147,-0.7527999483667083,-0.6784806376596464,1.3281560435405282,709.2721070956769,405.1424609086162,580.0192127588368,downstairs
13.42237061769616,-0.653059721290598,-0.7662779056390228,10.977059754108277,0.9593057963638968,-0.8276602632966586,0.2596511463477127,689.7152238879348,361.9396796906751,618.162915438687,downstairs
13.47245409015025,-0.6692072427035015,-0.6702735426399484,9.987335332772426,0.41014032824608154,-0.9459693563762763,0.2129984016113658,646.3370569061982,387.21686727075024,681.6940423657562,downstairs
13.522537562604342,0.02258837072043139,0.30084458178933143,9.496682168160724,-0.6012141654065408,-0.4017313566657144,0.8983845245806195,717.4440570544577,394.84187462645104,524.159229208518,downstairs
13.57262103505843,0.0652418583105477,0.17501504589336436,9.258962357791612,-0.9541487389053496,0.40522257441442144,-0.3198863699779105,677.8798190222927,367.3426140897769,650.1148921340957,downstairs
13.622704507512521,0.48331617867086546,0.5768707468476078,9.054066191268166,-0.2658538073112696,0.1507967668350083,0.02146608569715742,704.5552504609922,433.09295533855266,687.1914726134892,downstairs
13.67278797996661,0.9051639357527064,0.4823571552243369,8.470059846554832,-0.5194694730717396,0.31535621903257577,1.6890150886987019,673.8821249019373,406.95956697131726,539.2440014356964,downstairs
13.722871452420701,1.0602089811479132,0.30029382732106163,8.971036465078097,-0.8131498807177232,0.42257940257227844,-0.7356535957703373,681.0812301565745,388.1631047956735,585.1894489781141,downstairs
13.772954924874792,1.1644305258953627,0.40872184125457933,8.823766186033039,-1.1495505225941414,0.3365793842106859,-0.5769270467653771,754.6968413451393,392.5379559131305,665.6388636803213,downstairs
13.823038397328881,0.42489612442305263,0.13348241283651505,9.702279753474778,0.7749025556605116,-0.9920104906098862,0.768122932510557,692.0205540836898,412.1267620507415,680.5579303334797,downstairs
13.873121869782972,0.562408532485996,-0.19733364940384723,10.387303358757574,1.0808832284926337,-0.9629366561150755,0.7391976340230686,667.3146558007035,365.0157738932935,672.44343630036,downstairs
13.923205342237061,0.04493246485196206,-0.023338684339603816,11.309350657301877,0.4255808397646414,0.9226109912468293,0.39079123133105664,718.9560400010507,415.62863508055074,540.7730770310665,downstairs
13.973288814691152,-0.010157449281707712,-0.4722027128589128,11.19603307760583,0.3271391284465435,-1.5056432324713866,1.0348816356751274,664.7474043232522,384.0456476686091,610.0424894040018,downstairs
14.023372287145243,-0.8481401946487042,-0.5284179257498471,11.41921661570784,0.22273366565017794,-0.06649327123195899,-0.5185512903331906,711.3899655251894,313.7938567426104,600.4238249435883,downstairs
14.073455759599332,-0.6225385203132879,-0.576195285482904,11.093156957990534,-0.01560472505893946,0.8226708404130917,-1.0050495345960355,684.8181567388531,458.34685291901155,629.6977991614248,downstairs
14.123539232053423,-1.0445059049468584,-0.44855494505615046,10.792108835936787,0.8230335012621858,-0.8202069530784305,1.3483709503679326,746.3194860976683,351.4922478433509,613.5312872949185,downstairs
14.173622704507514,-0.4061116036218076,-0.38149447830704813,10.161904541922697,-0.18517399586336625,0.22882430878380006,0.7016447389455158,722.2237337882091,385.4316936950905,611.7273945024793,downstairs
14.223706176961603,-0.299585323937614,0.10838681242993264,9.747066755413709,0.14806742366768466,1.326029680195444,-0.014959871273678118,632.6550716836903,425.64842141536496,607.3232757000856,downstairs
14.273789649415694,0.30704635617658443,0.23725026868925092,9.187499129277283,-0.807332978502892,-0.0826578487066034,-0.12549632778885,705.8184928705084,364.3818563932992,632.6482267531944,downstairs
14.323873121869783,0.3504198849345651,0.19658914047908682,8.767051771128372,0.019927258583390294,0.85594939943003,-1.1174824245425987,692.5600466033438,410.13168532602026,593.1491298478608,downstairs
14.373956594323873,0.9016177392603661,0.9385528982103777,8.563429095938497,0.43114473832153877,-0.007118619410127152,-0.04070773174359283,612.9418241963515,402.72794347359354,521.093254739604,downstairs
14.424040066777964,0.8759649321965298,0.19596954272104167,8.564362148364808,-0.011420673175050907,-0.6805428208534652,0.1334924702025407,655.7946498662117,389.7742568188164,595.7163170273246,downstairs
14.474123539232053,0.883276394978303,0.23434273081980533,9.259657080525816,0.40443615307260866,0.46142258659345897,0.5966575912594557,690.1262077316296,379.69459694408044,599.4930067274681,downstairs
14.524207011686144,0.7283819476416752,-0.04173878345179621,9.337061939580247,0.153992153532715,-1.5907537520133066,-0.6855794456328888,651.8451369192104,303.4313795461453,615.8133167341286,downstairs
14.574290484140233,0.994474519158463,-0.10195566531865854,10.075423351175957,0.6725701949119809,-0.17095900666778208,1.609482753032184,653.3822186822965,420.93215353297904,592.7844971524205,downstairs
14.624373956594324,0.6456244407785965,-0.4098249210528369,10.903166125057018,0.45827656128223415,0.6889224003365988,-1.5864100400293166,720.5469566731902,385.5430280976157,585.5240893544735,downstairs
14.674457429048415,0.06575633488729209,-0.3720352746377744,11.073947562917985,-1.6523474092970245,-0.5221916799508364,-0.9408373497664605,665.1500178826001,408.89579116771074,558.1858453633583,downstairs
14.724540901502504,-0.2725030698571546,-0.6028705112076305,11.190951480978653,0.21225688329000028,-0.3559312854461828,1.0821564723317265,675.1596196404356,416.2191198945181,628.2518156956512,downstairs
14.774624373956595,-0.3776374769513384,-0.8096277503137055,11.23360623100146,0.04737572485219307,0.026739807390907703,0.7419640253641521,691.3170970264817,326.36734440655925,651.3374948165199,downstairs
14.824707846410686,-0.8049661923880581,-0.5129262243282708,11.408743344990317,-0.6819394283578618,-0.3633530143359878,-0.0745981343086517,694.0448864447503,455.69737746841815,614.7860219555187,downstairs
14.874791318864775,-0.5241214398302058,-0.23625081740120518,10.319044641799625,-0.8648993605718585,-0.05185995930267243,0.8473436580488062,690.7123644001605,424.4623503967392,617.5332877193889,downstairs
14.924874791318866,-0.2467457980869761,0.07298700209245096,9.33060230352657,0.8420883418940622,0.25489849117653074,0.8688909806561689,675.3677910576107,340.44336490444897,612.8979851091624,downstairs
14.974958263772955,0.023854113652883438,-0.27529178692918466,9.28471767169517,-1.1903716016812058,0.6259776411582121,0.3206225006359304,701.2762084372974,381.1176977523612,571.3562128772146,downstairs
15.025041736227045,0.07535574682636222,0.1090538545887233,8.677518123417324,-0.8753987230120315,0.6268262685135336,-0.8545507908112399,695.2912407510931,441.1616665249792,672.7501178318362,downstairs
15.075125208681136,0.9797053866359348,0.40209117361934066,8.8627606864022,-1.647662827650096,0.6388613288778257,0.2614970010963332,574.4187973132418,312.7880980880196,555.672977967378,downstairs
15.125208681135225,1.0613348549280668,0.7757810023511487,8.479002311345102,0.640908087894445,0.9355157965483227,-0.17352951559308097,661.337775158921,412.6432856387226,568.96991785928,downstairs
15.175292153589316,1.1421683553529944,0.5268509525318088,8.737903936961327,-0.5826668557884628,-0.39461580903536225,-0.19197513623105605,716.276004531889,381.1202630374306,500.5230066059166,downstairs
15.225375626043405,0.43898011912461044,0.6473718858945194,9.418840129773438,-0.11622244038311522,0.06196170826710785,-1.2717575192412696,707.751231452203,408.69793640363696,632.817331031547,downstairs
15.275459098497496,0.9980941570146663,-0.11246289850176594,9.879744542030272,-0.18175565777967895,-0.5528640249529554,0.0461412015334488,765.5040590813163,397.42780466277725,519.053821360606,downstairs
15.325542570951587,0.5328814841171956,-0.47609695317709394,10.490742970664908,-0.5993608600867341,-0.6556848846457204,-0.461308608246272,635.6505564578692,330.9081228439092,629.5392188075398,downstairs
15.375626043405676,0.3525621342168059,-0.2830823372574904,11.014528199280088,0.13642822219664708,0.2255320819985582,0.2852763204036755,671.2326302621158,384.1623511992882,648.550669280676,downstairs
15.425709515859767,-0.36574430369488425,-0.832018024898219,11.31730264921204,0.28196784490628496,0.12239489999430522,-0.5695517171345577,659.7242850330935,369.24486663446305,633.9993246842387,downstairs
15.475792988313858,-0.6473009477437813,-0.8263181767595669,11.279755712070019,0.48704483524955006,0.8286893287660748,-0.6967823994961719,775.6099419504296,397.91147293697514,610.3020497726743,downstairs
15.525876460767947,-1.0280306908795884,-0.8064237516362907,11.166278838673016,1.2094335380413717,1.1654799063871273,-0.9250257677288894,672.0034216880288,440.3035612270651,680.5306143435297,downstairs
15.575959933222038,-0.5576464263428417,-0.6273533906820787,10.47070883015572,0.2428060589736348,-0.3959836052710444,-0.24166248196357404,642.0550006459241,418.33323000385076,603.8427073425052,downstairs
15.626043405676127,-0.09211696328082909,0.15147706574073455,10.343807878634683,-0.6674257912071611,-0.07035170125064015,-1.0167654233404575,722.2196439782062,400.6599951139974,638.9862681119633,downstairs
15.676126878130217,0.16354511086409462,0.04292588159633512,9.135877131051172,-0.5013628581337306,0.31580549703781846,-0.15304169186754799,687.4178814435376,322.03389490871837,584.19930971216,downstairs
15.726210350584308,0.2913403230259422,0.12192012703080027,8.706550654271236,-0.5423738949257997,-1.2414354021516119,0.6036682291765042,597.7082921064286,448.95131908162546,564.0325057227615,downstairs
15.776293823038397,0.4150280792331292,0.178600305576482,8.599256137209581,0.9591786832027127,0.04323752667551283,-0.13086223975612238,697.089225768309,394.63703799888054,582.9729752964365,downstairs
15.826377295492488,0.815783797136875,0.3515216149354126,8.35930820265931,0.4892625832671745,1.5431169104808236,-0.9895239523876795,651.5324472545889,406.9007304059932,516.1519891368578,downstairs
15.876460767946577,0.8964437014569667,0.37303350225745857,8.632215795092588,-0.22881018729322938,-0.47506507853973484,0.5420448904491365,645.5999894888695,394.9101966606528,626.2369582545273,downstairs
15.926544240400668,0.89855262397498,0.7420258095590109,9.288308779507036,0.21879447973102262,0.6380020943815589,0.06437984690089947,638.1538102085128,378.8518475282299,623.8257810925126,downstairs
15.976627712854759,0.7720341730857819,0.05016855093715311,9.658894104392733,-0.30309064393211466,0.16039621235689455,-0.7089271426305209,760.2505667515459,404.36292235442676,593.004629536211,downstairs
16.026711185308848,0.4148507115959149,-0.1888770456332456,10.210224940627771,-1.1575375008512108,1.070552968308212,0.28279428081009095,610.5605549354759,401.29701593244283,647.9255786530148,downstairs
16.07679465776294,-0.151686646442115,-0.3781272711556592,10.800779134620697,-0.9213999225234684,-0.686344418927703,-0.38585669428377534,627.64643061246,453.7990734744793,660.2463703741711,downstairs
16.12687813021703,-0.43273893721246875,-0.8621800050570583,11.080886010515195,0.10999035448752423,0.446434208209754,0.4657730251798471,774.742289131719,355.71667928201083,689.8927633172254,downstairs
16.17696160267112,-0.9067538890296056,-0.984528813191546,11.240277603584653,1.3615706677452863,-1.2834448451900426,-0.5144610121218112,653.7985816861958,411.7431453015905,605.767392054698,downstairs
16.227045075125208,-1.0875226370240942,-0.9640622832934584,11.064968804691894,0.06530240402147859,0.824237595480247,-0.19860684147968025,677.4943570706201,402.2007161218341,590.3133461525989,downstairs
16.2771285475793,-0.6618123025764422,-0.4218693086075902,11.063412579002419,-1.257846897666782,-1.0632035146672343,-0.6012689462996784,687.0620147964022,410.13184465108293,600.5296454481313,downstairs
16.32721202003339,-0.9401279332095377,-0.47860453330681924,10.068113331989645,0.09328641392208611,0.6452891021493156,-0.29118738694776064,733.4142162278748,387.5277971546813,626.7371678153247,downstairs
16.37729549248748,-0.06995893278983568,0.1209985014973406,9.362329857436077,-0.7264730538357322,-0.2560449313465975,-0.6786401852249241,728.2590366746164,399.7099017987917,639.5832365316068,downstairs
16.42737896494157,0.05825562810954112,0.2705567195326975,9.022854770304907,0.7333198838857802,0.22920676045087504,1.1706434219488906,699.285803974856,419.5824736903662,687.242116301962,downstairs
16.47746243739566,0.38210551177925767,-0.021666678645103632,9.13017692045981,0.07483393934770341,0.2565037373100534,0.5908258218470522,718.3618376769297,403.2053473612379,587.9168606513362,downstairs
16.52754590984975,0.7734635970181797,0.8168559167567493,8.129358973898503,0.3306485036743081,1.0551516535539613,-0.765401802462804,709.8205729915024,338.86054460991824,605.5456833981682,downstairs
16.57762938230384,0.8945807842466991,0.416888959546326,8.39976654591832,-0.8197208971493297,0.14585507009547286,0.5556611960501421,682.344400561972,396.30319496329696,557.0132592312008,downstairs
16.62771285475793,0.9744735509069486,0.9742685083571834,9.014766753409708,-0.7841538750213527,0.4484899901447853,0.07005680548650797,719.1516379687646,380.96186922483616,616.6620202452075,downstairs
16.67779632721202,0.9734509060200178,0.18760804755643923,9.747307541277065,0.002137645140717883,0.5542469285521024,0.49610201081117006,682.7505897500685,310.3003497341826,673.2650070345509,downstairs
16.72787979966611,0.8061617271394171,0.1936548579762017,10.168923991505501,-0.0752126310134102,1.044971537013815,0.2753084102427353,675.5660859000324,382.3745678810476,631.4879315085258,downstairs
16.7779632721202,0.31769182628650783,-0.05679991731845499,10.777848429039985,-1.821914482220151,0.8277887743300978,-0.8282051778047,672.6650730518155,364.33298456662436,649.2099136944439,downstairs
16.82804674457429,-0.15114633568178165,-0.3231447034159514,11.58914662343735,-1.2891141095317766,-0.8514485567604642,0.32083334180665407,682.836442677072,395.10939402754,677.3160798994405,downstairs
16.87813021702838,-0.5274772014935866,-0.7397323960416808,11.290896639073784,-0.12726272294874688,0.3995129732685472,0.06316208915105152,637.2663227211367,387.89956273701205,639.6626260141832,downstairs
16.928213689482472,-1.2442536427333373,-0.5863340877814522,11.131350203404574,0.35215538931382,-1.1468028524366631,-0.4696817106775393,604.5702903724124,364.22841003800767,614.6829876532101,downstairs
16.97829716193656,-0.4746330142964346,-0.5748709739027913,11.145809680045064,0.3748610804951316,0.15676634500553296,0.05506898335770224,641.5793161370133,363.39956419586963,551.2689183152398,downstairs
17.02838063439065,-0.622770479173101,-0.3266303527085426,10.201307623613982,-0.6698379364833331,0.5106347733559123,0.2921892313609589,627.5177179327668,355.3850855689175,536.5849829870438,downstairs
17.07846410684474,-0.36703908542627356,-0.540240476988731,9.645774334779972,-0.7819815971079586,0.0710777242347468,0.09864546052229757,747.1852002340879,354.2856428396751,595.3135849049175,downstairs
17.128547579298832,-0.1475320618363959,0.07709080997155615,9.119872561852532,-0.6398358922264075,0.6266525490984731,-0.33142643721805426,738.0460301695973,393.17427883893555,631.4954385958448,downstairs
17.178631051752923,0.032835359672217165,0.486372956229892,8.432827262574273,0.3261382794996653,0.32225463935065485,0.139589966695424,783.3744689999271,382.8400665444534,570.1505944788494,downstairs
17.22871452420701,0.750553694035667,0.14386218562239916,8.228575989868169,-0.05908087345386684,-0.7576223646445642,-1.342961485070795,617.2044925989926,384.2549615355762,621.5405513152049,downstairs
17.2787979966611,1.074754579321243,0.37085033311491905,8.365278808029505,-0.29320071238606127,-0.2244012156620313,-0.21468060598733907,688.5330909574478,422.9476346624136,683.5726332005873,downstairs
17.328881469115192,0.9966759066947659,0.7159819931641216,8.897007233230042,-0.6604236611847594,-0.14307248523179233,0.1436844940074064,717.3864338907212,359.6386012354039,596.1204928636964,downstairs
17.378964941569283,1.111839376998339,0.5407503284410369,9.385292328389493,0.6474430324259666,-0.9848564630290212,0.5531571183326413,684.7521655872968,302.9356832585129,627.8294776719518,downstairs
17.429048414023374,0.814210823189473,-0.045177360188686455,10.20004833239612,-0.8129287920241587,0.2821849736516553,0.024679636097670814,644.8257896528371,410.8605492309552,609.0642491326352,downstairs
17.479131886477465,0.16887422212021685,-0.04973604488930222,10.095031681010012,0.9168551663616336,1.0094351125047074,-0.2229569487692336,691.5040946139706,471.73394091081445,578.5140188609978,downstairs
17.529215358931552,-0.031291401722826684,-0.6602347306138663,10.855895229311697,0.8697915170824193,-0.2433284794488561,0.35620150143049434,671.522928603539,378.89245933169565,617.651881075809,downstairs
17.579298831385643,-0.3693042265819642,-0.49682430634582875,11.607037661984732,1.2122650905358845,-0.6841739472012744,-0.6822507683087911,690.2396282253935,359.3528993129284,598.0903031353591,downstairs
17.629382303839733,-0.6074718996313907,-0.5010699502276543,11.13549986860153,0.8180014858309489,-0.0018597383416148815,1.1973954933402686,680.5381466069565,364.57454407259917,636.7114494884567,downstairs
17.679465776293824,-0.9021258893114307,-0.6280175934852867,10.813027771080781,0.019871199718643297,0.617471152846389,-0.3665664809210093,721.9788621350008,428.14964078765,640.7566966937039,downstairs
17.729549248747915,-0.9151965046305844,-0.5642958014429724,10.213852484834675,-0.5198749836419909,-0.42359291608713256,-0.7687628145223945,690.1727209655446,433.090598001421,630.2596466161441,downstairs
17.779632721202002,-0.6746561509712214,-0.5456515507546735,9.91841997346606,-0.08753207800500977,0.15858580413556767,0.830643734699113,728.487819845768,382.6776991279204,563.495855853321,downstairs
17.829716193656093,0.05252850203963706,0.3980836417684261,9.445875981748442,-0.15459987579377876,0.9072952508338918,0.12892120935450205,673.9944046239584,406.9303246345057,630.3680404706671,downstairs
17.879799666110184,0.45645585015235385,0.5742404828694208,8.816183245285007,-0.2714168798770893,-0.8914192152889991,-0.7844178135070456,637.2809824214072,330.373899983334,624.5746575892246,downstairs
17.929883138564275,0.8252878749826001,0.12725763608816604,8.330710194702228,0.21370725003198926,0.71318594597044,0.2882721183953529,650.5727244094965,388.764638327156,675.2777754291205,downstairs
17.979966611018366,0.9009042270147587,0.6208812642208392,8.81403254593375,-0.48643895588158914,0.441459019490871,0.06288667589015165,626.3103995922286,403.6621671922381,631.5653689440552,downstairs
18.030050083472453,1.3328761072971984,0.8578101531811622,9.11571804254385,0.8888088766923806,0.8853771817929532,0.16420898406936357,722.1174611297524,369.2526708219661,675.0190759614138,downstairs
18.080133555926544,1.0142658650824672,0.3230618306026084,9.10666169255356,-0.002613226538740938,0.28813762039956464,-0.9559112502325479,667.7462549683501,394.016079366723,598.4608561320952,downstairs
18.130217028380635,0.5586890203695873,0.25971317942823685,9.806772426798183,-0.6490833369334198,-0.033395915300683,0.14118905362299658,595.0361798095917,387.2277571888834,653.7048215908873,downstairs
18.180300500834726,0.47791798791236845,-0.3183180879838579,10.239289526741251,0.9274129610390602,-1.6714147440908789,0.3852355197269979,708.1937336507453,380.39219727256074,676.6420211696322,downstairs
18.230383973288816,-0.17793470651740506,-0.23980207345542123,10.74364574359256,-0.45092696167652874,-0.12175032845163015,-0.732355645352079,685.0465575956201,380.27768090997273,599.6890597832523,downstairs
18.280467445742904,-0.36670827654039023,-0.6872796946123783,11.305849071746666,-0.6978412921594637,0.010646556300105005,-1.0693014066139404,726.8740534701636,335.67574480451395,716.40381219205,downstairs
18.330550918196995,-0.35973681390651996,-0.7088703874091333,11.231488834744239,0.09312600715006528,-0.697776359960639,-1.0177311640784203,607.9722373280363,451.5140039738593,631.1678152821823,downstairs
18.380634390651085,-1.217281291957045,-0.396156449576953,11.133407333832734,-1.3487831047493015,0.03581367129967967,-0.619280524670445,692.5943157564758,402.09394674691697,666.132072038241,downstairs
18.430717863105176,-0.43852018776984153,-0.5776567680006048,10.555743021957351,-0.2982380240288256,-0.09044970800055926,-0.26605813111280613,634.4171077634339,426.3321997433762,669.7176396903866,downstairs
18.480801335559267,-0.7185866616556583,-0.26552792061486974,10.125716699585446,-0.002648045533626689,0.0518719434556571,-0.3559597705162979,658.5848197135282,379.7303678013901,620.7911731640937,downstairs
18.530884808013354,-0.337256640809207,-0.07713565232555632,9.210582402198403,-0.3251824487806024,-1.2188821886567436,-0.7715428701308464,679.6876934536499,429.30135288724983,624.2771923233774,downstairs
18.580968280467445,0.11622481576828289,0.3255297379231157,8.698024823090188,-1.056837317579058,0.08625165431100514,-1.1359190296749169,618.3558556920125,409.7687037974027,637.4916974774703,downstairs
18.631051752921536,0.5821882053183028,0.6826740184408395,8.505777199733007,-0.5563677580500109,0.0984610821690411,0.12801264752189254,684.988827152344,429.9126461685828,733.2597606420767,downstairs
18.681135225375627,0.9266812902632899,0.18653471636989832,8.2652990014893,0.9959671896212476,0.09074374517237685,0.029085843875596287,731.796159473866,435.3761579257995,656.7838091324944,downstairs
18.731218697829718,0.8119307458054407,0.4221742983074668,8.7504413560252,-0.023677135370789002,-0.6639551929849437,0.03392687483471887,697.536863232236,437.9457014848499,625.3894562797565,downstairs
18.781302170283805,1.016539360146723,0.24076329645400113,9.346974878013823,0.25939231164353566,0.1848113637013678,-0.0539088111177059,733.0292510640166,315.0596422737749,710.6062698307736,downstairs
18.831385642737896,0.7981902935814698,0.33973137582517393,9.60679163631984,-0.44807510385485644,0.03842880789700919,0.4260355451691247,581.2300820931367,430.1526734732149,608.9767822953971,downstairs
18.881469115191987,0.4060331666432538,-0.15112120441047375,10.17119979456978,0.14444892162759834,1.0013229340596328,-0.605307494920439,643.015712325891,391.3052712798309,584.8254887219405,downstairs
18.931552587646078,-0.1982212460746292,-0.31064509837982796,10.745009742277153,-1.0774286197989853,0.3976110772546437,1.4411865775199595,720.2444620530664,359.42877557294213,684.281119747953,downstairs
18.98163606010017,-0.6464039101189968,-0.3389121585859353,11.332313682638645,0.576833135343997,-0.39764925674665463,-0.02935502820491498,657.2214212287597,374.48739445036614,624.4699488124718,downstairs
19.03171953255426,-0.5655940711033961,-0.7290071498266271,11.492875967792017,0.016281953499328403,-0.049576473463355614,-0.051117051000212646,741.571179370316,302.75330509984815,690.5207964784748,downstairs
19.081803005008346,-0.22337694160386384,-0.7673988049829887,10.757841363905305,0.6365694623315572,-0.4022806819224884,0.12237352952886969,700.1653269311007,414.8684453146842,604.181090028937,downstairs
19.131886477462437,-0.7642819543327248,-0.6671320408061698,10.900966301188642,-0.30608745629527967,-0.008851576528431658,0.7982902827923103,646.0961523693396,318.1323003247618,619.7678271651724,downstairs
19.181969949916528,-0.2636434328417957,-0.12088366805021006,10.224343407269467,-0.43469882193354537,0.41669532838594914,0.21908654495787602,654.5525237404374,402.3964686662801,591.3454142764192,downstairs
19.23205342237062,-0.015444138938342858,-0.19523138927250272,9.441832001136309,1.2044905527034424,-0.11484286748423227,-0.010660564160507138,632.9928688056294,394.5893314551873,616.0008755496184,downstairs
19.28213689482471,0.12139814196573817,0.0959580116843057,8.908479170637891,0.8252514430762726,-0.3318917178311974,0.3593728202818741,651.2048782589507,344.702675974384,672.8766914909062,downstairs
19.332220367278797,0.48839728020091405,0.21352831665999378,8.781032765690354,0.22278551414043568,0.15670710106461885,0.11745678296925893,646.3690900278542,377.41568846389066,702.570970769937,downstairs
19.382303839732888,0.6700290389900665,0.617532078998426,8.130018335978127,0.7887815754013339,0.29598618207599015,-0.8424506816602455,727.192730471776,381.64174863612436,576.8545530364015,downstairs
19.43238731218698,1.2220058268077514,0.2860397111857244,8.537380423157439,0.051493628218632015,0.6750632075473396,-0.5751504687019815,696.0792138743597,407.0466403655485,632.9800780223061,downstairs
19.48247078464107,0.8770242201703333,0.4420114306545693,9.233235136228025,-0.29257011361712115,0.6205452219632629,0.5653846312602896,655.5769069709858,382.01052545259154,588.4052586210205,downstairs
19.53255425709516,0.8880191447197181,0.6054447904364106,9.60989480062092,-0.37802778393839054,0.9933319241817261,-0.03031116397019729,644.4798593701116,372.5361360520311,619.6206672672608,downstairs
19.582637729549248,0.37746749122408746,-0.16717260037883486,9.981022244575735,0.1754437730354612,0.7892761302039011,0.16163152629756466,652.7868907658416,467.78349328788806,586.1115122150063,downstairs
19.63272120200334,0.22389120433694015,-0.41798574644329395,10.757375259257609,0.3793518432951372,-0.5864535823374636,-0.8563050821583809,642.8860594496699,424.094334547469,569.4122417991977,downstairs
19.68280467445743,-0.10792867279578865,-0.493386124483019,10.959445173773458,1.3519799020522434,-0.7359765289088996,-0.7055780131358277,706.396905004247,360.39545716439636,667.2241478409154,downstairs
19.73288814691152,-0.4478234058069755,-0.5709723630622405,11.218450311290116,-0.6587262986129679,0.8939372294304925,-1.4428745648345653,616.4281847623727,437.44580137023627,537.5041533364238,downstairs
19.78297161936561,-0.5664311282113285,-0.7216978076537146,10.97434793670531,-0.30886486927974255,-0.0792833147157563,-0.8610508695929601,684.6499123823194,360.45927794406936,589.8253080304384,downstairs
19.8330550918197,-0.9301804525211358,-0.6816063761436908,10.741254091153854,-0.4142782797842947,-0.5234108667139514,-0.12160528579804812,658.7659170206086,386.99393839507843,605.8957954038189,downstairs
19.88313856427379,-0.7854441839823402,-0.4307019016457179,10.216526032554254,-0.3977536953459801,-0.2948314290552353,-0.7733695468331276,702.8399743437104,337.3916812441868,622.338631969283,downstairs
19.93322203672788,-0.6670117465515434,-0.01753552443990339,9.735301587826447,0.5384395244515667,-0.34992777770286687,-0.8603264776626034,698.4858608509846,364.97524429488675,627.3336261779847,downstairs
19.98330550918197,0.08506608148842161,0.30745047469193076,9.17944490676995,-0.9366489312611331,-0.9189384320916172,-0.26855876017910135,667.915652986696,410.3852037720574,613.4543048166928,downstairs
20.03338898163606,0.5291317902072062,0.6060933639981818,8.689067485558585,-1.5975396907148522,-0.1811689059857723,1.112753967175536,703.0068850512704,395.3110383474333,683.9691151651336,downstairs
20.08347245409015,0.5794348706808452,0.8038706511993716,8.513355708234828,-0.024289357782700284,-0.8610686877537189,-0.24131507282237843,662.4339797152954,439.66771578789167,609.5350310151576,downstairs
20.13355592654424,0.8589342273084647,0.6872035621037487,8.627878950550794,-0.21133138782134855,-0.5688154240863308,-0.315420514160635,632.5747709374047,397.36472096738294,592.6508887940056,downstairs
20.18363939899833,0.968299441083968,0.49373127357173047,8.843739961620388,-0.758437649395652,-0.465290600779084,-0.774913639565641,692.1498753970051,444.4095543748325,701.4702912720137,downstairs
20.23372287145242,0.6792315798380555,0.45786024183879387,9.481796965872224,-0.9517490633102208,-0.18237839858808758,0.5664679316335579,736.9378592682156,361.8211130177186,595.2479815846316,downstairs
20.283806343906512,0.46267544745578953,0.04746056493496925,9.59735952412295,0.5574446384912183,0.3218220054362655,-0.07047132273807337,643.6765550506728,378.9352338569405,707.1718260784304,downstairs
20.3338898163606,0.5656598781465598,-0.3759813562534761,11.148356936237347,-0.2902304988859324,-0.8817335505181924,0.2812675839504096,598.0801599239577,412.48699330782216,642.0032572842629,downstairs
20.38397328881469,-0.2522367939833866,-0.13406383504174685,10.781947888048089,-0.8540887102237409,0.6057640385636959,-0.8737848711919478,668.146159195077,409.8995929163164,615.6856323355756,downstairs
20.43405676126878,-0.34188610162842614,-0.40556698509563444,11.544449806563962,0.29990544595502133,0.7014067640025053,-0.31855246057617936,641.0082621152023,433.093856232638,693.2063208072933,downstairs
20.484140233722872,-0.8025334943832051,-1.036830912293548,11.040861865126981,0.5849270617277034,0.23403913424091738,0.05459591860220009,614.5620727506741,365.6355294436315,589.6255186841724,downstairs
20.534223706176963,-0.6915719903491866,-0.5576980829855793,11.123058178401473,-0.08283818119722341,-0.1649989018457364,-0.08952581798877193,655.8506025930354,397.65230106133504,653.1779514541374,downstairs
20.584307178631054,-0.6356902636582692,-0.6859342407444864,10.338942063241992,0.35277776341447536,-0.17355895529629753,-0.337384296982105,635.9560671089461,329.2637670949224,587.8055569092461,downstairs
20.63439065108514,-0.5532613895051747,-0.5627526448285116,9.688005259782434,0.39858718865508086,0.32534893934520676,-0.6083758466555977,627.6404420193408,393.81854619737913,653.8740837082784,downstairs
20.684474123539232,-0.1679595977800044,0.19194152032702166,9.52633224100566,0.1789892340602864,0.20093595437198963,0.2210004265403235,707.0991868046642,411.56357427827555,623.9179600671205,downstairs
20.734557595993323,0.44253303444779163,0.2290482278898504,9.112874838094957,-0.4416345147566904,0.6106799192028227,-0.4301516415185217,678.1642286697796,437.6427974971557,588.3213844734296,downstairs
20.784641068447414,0.7036328302158773,0.49343597736481454,8.296071868726344,-1.2644469601509156,-0.44194619730114854,-1.382443010419098,677.5197431341525,423.4151592692294,595.3210526193178,downstairs
20.834724540901504,0.7478499595640575,0.0032234182949618106,8.682378942646777,0.3816685752281521,-0.19314094324734582,-0.44941587300478525,725.347323694958,361.441835176333,588.1576623756712,downstairs
20.884808013355592,1.1071591286895073,0.8224743691927143,8.991945534665602,-0.8217042831952427,0.30288129437853395,-0.30900511520478463,742.7946496428585,450.056484472698,581.4328997911703,downstairs
20.934891485809683,1.0964172854575576,0.05532042612449917,9.428161665399653,0.4252250791166651,1.156931096884906,-0.022192970857209234,656.6705931317214,366.5382991216085,577.0501492079217,downstairs
20.984974958263773,0.7300861443112575,0.5264638256310787,9.73424698454209,-0.7515371553312881,-0.8788952863553977,-0.1935554882594333,709.1405390118778,338.7263626403042,605.9623114993855,downstairs
21.035058430717864,0.5925386394734654,0.03038077384020592,10.777479531201964,0.4633334916166397,0.8787700065028163,1.6389735836666672,634.8262386937473,373.9218067269601,629.4150711652208,downstairs
21.085141903171955,0.05976290845743333,-0.6031771837281164,10.980514502751747,0.6134046370030813,-0.9774683485190356,-0.9030939339760929,681.3297469368298,360.138473288354,684.6379523511706,downstairs
21.135225375626042,-0.06955469484240591,-0.36391680940011123,11.249085906044602,0.9133749720123769,-0.6168656379504178,0.22682320365445924,608.2543376830802,441.92829315964195,681.0007620128075,downstairs
21.185308848080133,-0.3452258255125617,-0.4834791369452643,11.029692702766317,-0.41945361158820527,-0.9025283720835982,0.5354190146746133,640.8921119980731,380.3506458125426,589.5454975133041,downstairs
21.235392320534224,-0.791689703663307,-0.4633149247620662,11.447805083187154,-0.400037084137807,1.926110007006094,0.5793877000128098,590.6201440540965,324.6317285193731,585.6721894245154,downstairs
21.285475792988315,-0.665057498260336,-0.18169843376923084,10.667217417142325,0.45077358789572125,-0.5196000148908311,0.519002479301744,697.4953258395816,410.9805970800069,614.464227419617,downstairs
21.335559265442406,-0.36990914688459625,-0.25698595544808484,10.207787533284703,0.19873709147741483,1.015441340982931,-1.155100091288505,617.3190734695684,398.80135484311995,579.3564483964194,downstairs
21.385642737896493,-0.24984749143564694,0.09991654916901485,9.697003747898606,0.4084189142476616,0.15421347492883244,-0.18316315455959106,613.2558171134554,384.828906719926,598.8008032709639,downstairs
21.435726210350584,-0.08696318423869469,0.29463120897722045,8.759300997099803,1.0102755819875364,-1.2139283902049025,-0.25138058215614156,612.6975844108501,431.213058452847,610.6270106586358,downstairs
21.485809682804675,0.5698915365934633,0.7112409510472739,8.61469809804659,0.853252805400102,-1.5863740236250576,-1.559892055999447,659.5614486725525,384.0271361521757,585.5630635569289,downstairs
21.535893155258766,0.8620837371110213,0.8716722892077389,8.567209257788114,0.7607677514496044,-0.7576831465883741,1.2473148660348095,660.8331891299107,389.35934755947653,598.108171480168,downstairs
21.585976627712856,1.019031891354452,0.39389519562092595,9.037821790180795,0.9089079385936648,0.6717969718672993,0.8239408557124955,661.9553014210907,395.0222669254832,609.6100759496602,downstairs
21.636060100166944,0.4484643996973053,0.5887473786969526,9.222967041946584,0.17432694968763238,-0.39434442180946977,1.3830739537125571,652.2467579900656,345.1036825212872,673.909437736906,downstairs
21.686143572621035,0.3129168260180922,0.145819653573933,9.644156239763618,1.3583805484572238,-0.018751092743914274,-0.3613170543848484,643.291082722027,365.53576262622005,568.4784140916597,downstairs
21.736227045075125,0.539563063675672,0.19546098750966673,10.626973422019175,-0.13722219994443685,-1.377433683062197,-0.8401767110521876,739.924628481698,401.0669373514769,649.5055229486196,downstairs
21.786310517529216,0.230783995522654,-0.30247438684185673,11.002983163505462,-0.4967724506955762,0.25367846502653696,-2.2818106393803035,664.4690565062144,424.17956531049504,634.1303051717446,downstairs
21.836393989983307,-0.2578445234414386,-0.616724358762758,10.938425306511578,0.7353218840464851,-0.12549914068237725,-0.7248100632082201,704.8063874934935,369.49736446819,678.7941496313573,downstairs
21.886477462437398,-0.5013588545377147,-0.4604762112708997,11.136636679121592,0.6251958013907564,-1.3939579946372203,0.9642292197341092,723.6640717952056,418.49365623339907,664.176688258873,downstairs
21.936560934891485,-0.6648394197241794,-0.45958575783966477,11.24527068144478,-0.48723214556453576,-0.029363948439147386,-0.7348931710852404,606.4881097634991,340.23730999344673,622.7374956419955,downstairs
21.986644407345576,-0.5989564446772612,-0.7133173659596688,10.880046022863688,-0.08368778985032328,-0.6506329288118585,-1.076979123261742,770.8890136427092,434.764984336324,663.9547732380031,downstairs
22.036727879799667,-0.4894485948888471,-0.4118181642470798,10.20826748543127,-0.06491812431764626,-0.041262699789555345,0.34285094620549916,700.0640444172074,316.50869659031827,656.2324726326934,downstairs
22.086811352253758,-0.45621315983926064,0.07038651007740918,9.665710580159612,-0.21350340852185223,0.5932855736524166,0.2303545426026258,733.4687189570062,335.41171601612285,657.7160631695745,downstairs
22.13689482470785,0.0818577600416353,0.08276170961680837,8.83329176299244,-0.5552128624027903,0.0833885036478353,0.22599319439525875,719.7062845530882,359.07752860536453,681.201672447254,downstairs
22.186978297161936,0.4324881712773993,0.46579358062082127,9.137487906609866,-0.04027058075465424,1.2101927540592978,0.8662228830528096,754.2896724103063,389.4673013226702,638.8229780633587,downstairs
22.237061769616027,0.8406105394223268,0.40765232968715553,8.682185762610215,0.013443125201428563,0.09764432508862399,-0.056649447301803185,595.3487686710605,419.85192661031306,599.783450771612,downstairs
22.287145242070117,1.0275022454357539,0.5534680363721141,8.158556073241492,0.2108002290150137,0.5834683026927142,-0.3693306359299457,613.4921995922493,366.9217050239292,600.6234171542774,downstairs
22.33722871452421,0.9472365720054391,0.6165048340759143,9.208806415583172,0.28787726939761477,-0.22679491524529583,0.6250674680207795,675.6913292394081,408.6749421438672,637.7714798394181,downstairs
22.3873121869783,1.2208211080716798,0.5489771840374724,9.427847239865645,0.7747664192607701,0.20626521132104836,0.2154998456173961,637.0128804242902,315.2255800096668,574.7091400609698,downstairs
22.437395659432386,0.18702310452051318,0.2605408213356829,10.11852591206053,0.6850607379856535,0.18161310970153535,-0.05951186415484184,669.5979805756567,382.67196346640196,533.6314476377831,downstairs
22.487479131886477,-0.09684139160125886,-0.23020337122338494,10.67618576728256,-0.0882266220008804,0.9523858291845181,-1.0520111227621811,664.2722727324152,454.0503550941154,522.2054128033226,downstairs
22.537562604340568,-0.027438368512134062,-0.44842818686804253,11.04032969454658,-0.6075516107742204,-0.7851056057897976,1.0769423187575182,651.6325255206365,414.8087580555915,662.1160251268014,downstairs
22.58764607679466,-0.5454847303058533,-0.8084509719641051,11.155747046214092,-0.45334361845859683,0.9325030882162109,-1.2213876574504725,610.2874894483201,396.9253986857898,606.9741391477324,downstairs
22.63772954924875,-0.8269886311998506,-0.854335935089197,11.195721315041276,0.15873256586090936,1.9278127191218062,0.34050433197217067,590.067112374195,418.4419876416456,613.5996915570439,downstairs
22.687813021702837,-0.8099748266058919,-0.6835112443577929,10.884612553439434,-1.1958657570977473,0.022609920883896722,0.20149651861586518,611.0389421379119,357.82866916803346,731.435774901936,downstairs
22.737896494156928,-0.7094119099550497,-0.6251741849157475,10.39256898667735,-0.7952388912842202,-0.9194770727738878,-0.38700236697640933,678.5916798908873,361.57066418690596,625.5184872943818,downstairs
22.78797996661102,-0.3748943643790281,-0.23379094820574192,9.694211776218962,0.40227076756306224,-0.11008382783860236,0.5419552179287419,652.8249961596966,283.1441069047396,568.2315299570928,downstairs
22.83806343906511,0.041603311482861255,0.14689758189374313,9.139534385549434,0.19097344185600165,-2.1771390063677214,0.14449242458654285,581.3908573285917,305.69566046607656,655.9060869813796,downstairs
22.8881469115192,0.043831934425577104,0.07612833109467321,8.829651328485143,-1.4226016667394166,0.450517554553191,-0.9093878892346849,585.5898818631673,467.9610792418341,544.3878171699141,downstairs
22.938230383973288,0.6785649994991992,0.5033600018635114,8.20545670858123,0.3784844735859686,-0.5382399572064152,0.6404408439535836,699.1383477243464,440.7034737059197,601.349037522718,downstairs
22.98831385642738,1.0205204569921622,0.8831448669287529,8.465916301136522,0.5324850086045477,-0.6345954800893153,-0.47178714933886506,697.8707752476979,341.0766021563426,703.080744113937,downstairs
23.03839732888147,1.2683652509894718,0.4966052045714033,8.553151069835652,0.2451041149772805,-0.04042540704657306,0.002930577120681339,636.6564412753464,407.3783552171896,663.3839956566484,downstairs
23.08848080133556,0.6697664652822415,0.27420463960834934,9.352567343436522,-0.5133220182842523,-0.5516099461896661,-0.46789556109876906,678.3426773507375,468.5659041318047,591.5772154080254,downstairs
23.13856427378965,0.5473458330436493,-0.14937151448402758,9.928118335312332,-0.2569823180254586,-0.06895234256950068,-0.5657749239618783,692.7452067510242,412.6056301246828,525.6361228990525,downstairs
23.18864774624374,0.0681244649437757,-0.41128399544612665,10.281560935462231,-0.03285739295186279,0.012431752035214624,-1.4043748100336844,632.7752419923319,378.5016535950877,666.2745224997313,downstairs
23.23873121869783,-0.4860511692338843,-0.5877327916916144,10.869476476154526,-0.28534898828372623,0.4141560194466469,-0.8377312529017286,659.9242031671191,326.29178257284195,626.5348152675265,downstairs
23.28881469115192,-0.4498802365398203,-0.8062672645671369,11.161320225695869,-0.5768984318068194,-0.5562878447743673,1.2519201928559844,773.5328815941546,380.9825253245358,607.3077341969832,downstairs
23.33889816360601,-0.8406110913071352,-0.690117061910789,11.359795684147803,0.10586522420775094,0.15276431342284988,0.1363685581456566,708.8579059328706,447.896755565984,693.6777833396866,downstairs
23.3889816360601,-0.6246778736727211,-0.4057871998169205,11.241187932665959,-0.7710486258383759,0.753754757514953,0.05083183392477682,657.4121572746074,392.0213137177087,664.8181929833866,downstairs
23.439065108514193,-0.6824971115839586,-0.722411940389962,10.363995737600144,-0.18493566433420752,0.31760942955701355,-0.0031189542265003148,640.363085306955,455.2591503828959,689.9273463226122,downstairs
23.48914858096828,-0.41589524538537687,0.016358881993775498,10.160556474929484,-0.6749628712699458,1.0824874163358436,1.154419551263486,657.6970504945012,376.91071732568366,581.643229099216,downstairs
23.53923205342237,-0.20697166523656424,0.22409265754803637,9.597028928516414,1.0515759446973005,-1.329972365089901,0.3119115477134057,733.1414906133675,312.3858157015015,638.1032568884845,downstairs
23.58931552587646,0.25623791195625506,-0.10207831512209331,8.755976030913978,-1.1104873280335794,0.6440758894986014,-0.6923370950903524,721.847164992853,288.20228195607484,609.2228348098109,downstairs
23.639398998330552,0.7906727664399188,0.5810021176599385,8.269688004166,0.33734610292300865,0.3772395539581408,-0.6041554108505423,695.2497046900772,429.933622665231,617.3968535555421,downstairs
23.689482470784643,0.7729019991619922,0.44133116899528907,8.343703297982245,-0.03678390503856932,1.5127012996508333,0.7262187669742468,652.675367960108,382.28189351831054,620.1487881290155,downstairs
23.73956594323873,0.7817884375995746,0.6706967162286519,9.120810401259071,0.5937104374359495,-1.2603384849784847,-0.43255566537136736,733.2238576623686,389.4095640558875,672.0242703762876,downstairs
23.78964941569282,0.41079327308428876,0.023408521031350826,9.133568119469567,-0.006028723932874403,0.6324102981850807,0.07473973063346442,683.4974781926082,310.0140878229918,613.8466008349396,downstairs
23.839732888146912,0.6203448344155499,0.057679880425604374,10.091097887908193,0.3591782722051112,-0.46688052099240784,-0.4034011062513491,668.0818970415208,437.37967830095647,648.0976094356729,downstairs
23.889816360601003,0.516950667108384,-0.34928560033573136,10.53876780869969,0.658925969715371,1.1243244696205827,-0.778125212602791,721.0799701749938,462.37149897820177,658.3992005577444,downstairs
23.939899833055094,-0.028119951949116748,-0.30116790091831097,10.673400395428311,0.5660646442499909,-0.4554803358934112,1.8043617598937163,700.7167443491023,395.15608843112824,570.141463086687,downstairs
23.98998330550918,-0.8383166803751064,-0.16360376171774943,11.376460228172377,2.074366092833254,0.10467886722466349,-0.23013830735357013,722.5966237492039,439.69328223676655,577.9172678237887,downstairs
24.040066777963272,-0.6884611624248672,-0.9330226722461457,11.48253495125976,-0.6792641271626217,0.31847522355545865,0.10557354379078951,753.8640452971694,403.012148819124,618.7767860014756,downstairs
24.090150250417363,-0.63087653857556,-0.5103879594843265,11.051984588491173,1.2295269363898296,0.37361032780200404,-0.4213594138357205,697.0895635621669,426.54637037024384,617.3523910661006,downstairs
24.140233722871454,-1.031734539626647,-0.5292719726421178,10.783205831132019,0.8857188230181208,-0.33271578478816133,1.5531468830838815,677.5526995119179,330.32887219505244,649.1215615801834,downstairs
24.190317195325544,-0.5952767450766783,-0.3857914726360025,10.403418543011055,0.2338938663041738,-0.24396390534121393,0.5351136321850738,684.2514975557403,358.4200841994728,668.2098932540221,downstairs
24.24040066777963,-0.08211331558760558,-0.18531353046713797,9.85760779576059,-0.45281346017233537,-0.5006838548859635,-0.859104161588508,707.5035927172838,394.1841268322271,546.9718974238519,downstairs
24.290484140233723,0.04101796825993885,0.2951895940016831,9.185740067792501,0.7946333512603931,0.1559451536258955,-1.1674508717573275,649.223397760147,403.7244213189869,673.4601676043969,downstairs
24.340567612687813,0.5595350378520915,0.3667384537011433,8.622795196410252,0.678931444431581,1.5155756558845994,0.1958897313990466,686.4980744158136,379.0044537685579,628.6033224401247,downstairs
24.390651085141904,0.41005556810486204,0.4446130597800719,8.405212769493964,0.3136403880727144,-0.09879983982847318,-0.749773470428246,642.2359582098208,380.9712714512198,609.0589070671599,downstairs
24.440734557595995,1.0228649150881293,0.6525583838458757,8.819064766470076,0.1151076869156971,0.286986087669642,1.5274720732206393,719.4974864209642,344.34133127150017,652.7038167990107,downstairs
24.490818030050082,1.0382110532602011,0.3069680397441599,9.197295422044444,0.34368384384269646,-0.9775678548631648,-0.9298406876217158,627.0903801607012,407.6625608901739,638.1481263740599,downstairs
24.540901502504173,1.069585164495292,-0.3107754567259763,9.633155886490863,1.278979305515422,0.8012757412764028,0.4144831999478905,665.0572789057584,355.23867181269225,668.7523503378161,downstairs
24.590984974958264,0.36646500567494217,-0.0669592486335163,10.078057481828221,-1.2552207624554137,1.0717777706152167,-0.8523343801151549,624.1579984564589,354.67482454059024,699.613023002738,downstairs
24.641068447412355,0.2630290451416991,-0.21843225811707673,10.636602464334375,1.5899330104095064,0.04448604704039127,0.9778352675759822,667.2960996336677,406.305804427124,609.7981282514281,downstairs
24.691151919866446,-0.819431530244871,-0.7157908078751645,11.33445298195393,0.41626622153541365,-0.8236569408304355,0.2618510156671041,680.3926978412974,317.38641735078676,610.6032316850929,downstairs
24.741235392320533,-0.5901554554241744,-0.3426290328320404,11.607242864263524,-1.5544849328563666,-0.40906778451182163,1.0662855307866863,703.4003363278202,365.57760237634204,630.9402706306786,downstairs
24.791318864774624,-0.8152509465556083,-0.7325548232545456,10.774206311705122,0.32673960746215563,1.0305370914111889,0.7218298904604916,687.8277424017538,415.97748524120595,601.502714839354,downstairs
24.841402337228715,-0.9446604176192067,-1.1022679164269575,10.981389785695153,-0.8308500288466846,1.115212093564663,0.10416943804664143,651.670624349429,400.45805411243714,634.8148787953063,downstairs
24.891485809682806,-0.44229522355505296,-0.46790033525694724,10.307867820214387,-0.6979971446186456,0.8005803915848373,0.2200380797058668,672.4961223186186,382.4651817294408,571.5121129868342,downstairs
24.941569282136896,0.03322934194305181,-0.23840606708102302,9.773538396778841,-0.9234289686986232,0.5410890305772191,-0.7144452114435722,635.3321404487886,390.1308415366849,599.1097931468977,downstairs
24.991652754590987,0.23270741968366093,0.22781636315860765,8.906538214472143,-0.24535172847618586,-0.13978596584032613,0.0073031724377558725,699.5982090460388,431.42802539555174,617.9092050498225,downstairs
25.041736227045075,0.30054525033602913,0.5259336704048183,8.465528399831287,0.13657388049829572,-0.17111527277476177,-0.24652571242237775,709.2158166869722,406.6465587866356,620.3403176315841,downstairs
25.091819699499165,0.836575254805205,0.7486489189758212,8.341014592193103,-0.7838308686149392,-0.45230816776846494,1.2582744759603972,629.7497315586054,427.8166999092259,662.6987057077924,downstairs
25.141903171953256,1.0305011225622762,0.6093816078054395,8.795696285910486,1.4950837973652147,-0.31413221276748654,1.0410961635369083,745.787540925139,374.48917155597474,622.0881622505242,downstairs
25.191986644407347,1.2238091186657936,0.5616240996199804,9.217880397880256,-0.8697754952005826,-0.5767879215934884,0.08163798374770254,660.9574404884752,354.1910138637322,628.7229516304448,downstairs
25.242070116861438,0.7877509128979618,0.2798926449851098,9.454107454584237,0.9753771787692951,-0.7501451256017625,-0.47055849873360167,639.1918595017199,354.7887086312081,653.8116573722245,downstairs
25.292153589315525,0.4126558055065202,0.12972017574279276,10.205079520631088,-0.24993710160696478,-0.6622412528656332,-0.32611118985896176,702.1775262866263,353.0789924765554,541.8000274787282,downstairs
25.342237061769616,0.4681804601535418,-0.2826911415668285,10.672405610928116,0.5522627911379436,0.2504840154636807,0.29617306026806695,721.0736788152809,402.31589289155625,676.5286142095629,downstairs
25.392320534223707,-0.18843229645376675,-0.3564734585563346,11.326834305331351,-0.2152241598367243,0.9333127646257963,-0.8786203145167729,544.8773718070411,378.6018418618322,660.3818338920026,downstairs
25.442404006677798,-0.3463451103659026,-0.10968697816571599,11.272973983664462,-0.05296865791939954,-0.09606009652611326,-0.6734400865786557,691.9352641519724,372.50530938859106,663.8989247348628,downstairs
25.49248747913189,-0.676104864247501,-0.6398216946726121,11.217799425802541,0.14409793308639143,-0.35186987773331274,0.1894866190805814,740.293047322935,419.0143622361533,644.1274385059141,downstairs
25.542570951585976,-0.5401229848600341,-0.5782465942077712,11.327129075995057,0.35022341269820456,-0.3706823166683499,-0.6072265857114368,632.1479855792131,402.3780562137412,651.1561371759359,downstairs
25.592654424040067,-1.011488404924716,-0.646546003947366,10.412973033946207,-0.3488649863240912,-0.20585627100978676,0.21361715351424543,605.2084172506296,376.8082459075543,626.686100881259,downstairs
25.642737896494157,-0.2573478093822173,-0.42400482799334444,9.723918820682957,-0.42114933853786135,0.5907436037413851,0.9161034174675415,688.3517814736095,395.2432563214544,606.9517926575829,downstairs
25.69282136894825,-0.4458148799326523,0.32873489527210664,9.149063676343358,-1.212030972018238,-0.3268265191630063,0.520428912247647,680.9191144820636,395.8890583111977,628.8805389744222,downstairs
25.74290484140234,0.39390916343546883,-0.022413668460286418,8.806651453275194,-0.051109775402260686,-0.47079931483462756,0.253828782500808,673.8155619632332,332.76201685100244,603.557408469045,downstairs
25.792988313856426,0.6400956704429942,0.41941138407287254,8.459388045235196,-0.8877476445680114,-1.4859314932229002,0.2449182352252469,671.6067265757501,381.2544408291154,601.3318152463642,downstairs
25.843071786310517,0.6801831326465281,0.6477534491815202,8.558018066094267,0.22260858103855946,-0.7124530282564938,-1.7398897214558435,657.9001863435776,399.7062766020945,530.7033621378883,downstairs
25.893155258764608,1.0875105703132393,0.524568742529884,8.875042425199352,-0.27536803664932563,0.20256582635809214,0.26529726020095284,645.8071101338114,479.79525474194475,617.2424015216004,downstairs
25.9432387312187,1.191829063095179,0.4637445443014832,9.599131788149787,0.14332720977365432,0.9849281892880528,-0.6462712920727846,661.4792336453021,389.77351844814234,633.444149022503,downstairs
25.99332220367279,0.572929749657767,0.11118253344468715,10.432032548934664,0.34180361003433923,-0.1014243734816487,0.40573761817417214,689.2970808195191,368.85597431747175,589.7431950203713,downstairs
26.043405676126877,0.6033981695162786,-0.23343848039709472,10.237465216901848,0.4896960296918228,0.5315680312807124,0.663226965086032,677.0219791822475,386.38352985204665,611.4133349358715,downstairs
26.093489148580968,-0.2551793233761192,-0.2122751433142496,11.022541743637547,-0.8772854344615808,0.477080192968541,-0.5552854931149513,729.8386455897547,356.0343121884144,695.8969277725397,downstairs
26.14357262103506,-0.3990192008316412,-0.8014170169317687,11.181561515665836,0.5693596747979504,0.6588900145481363,0.4981534970508659,723.6179098863332,418.43720730946023,600.1918386830275,downstairs
26.19365609348915,-0.6106014971928113,-0.6400959487139883,11.331430504100213,-0.6039651600281004,-1.9047088106631318,0.8324434324657003,634.0935696550304,331.87095458257573,623.5560470603418,downstairs
26.24373956594324,-0.8879114144095676,-0.37867283740174124,11.028714209997302,-0.31418317469707924,-0.8820974240753455,1.2330499779251756,586.1128995030181,349.42732952573493,719.5362304604605,downstairs
26.293823038397328,-1.094190102737587,-0.3686681223070174,10.881773533383784,-1.3053366139736098,0.2538621274809584,-1.4063900101434355,723.6853158899386,370.9889256540234,608.6699669272093,downstairs
26.34390651085142,-0.357308482122857,-0.561867359284109,9.961549877980516,-0.8156978807975255,0.18056838851786094,0.6838670798838296,814.6322050092485,459.98599640283976,607.5214452214576,downstairs
26.39398998330551,-0.15810507360385323,0.10441653801585188,9.56515066100055,-1.252758296491251,0.06458679946670198,-0.4163907048922099,740.7376021489416,390.09206315687345,680.647173149647,downstairs
26.4440734557596,0.262999208728454,0.5506060838814106,8.8638104233228,0.704375682033396,-0.4180952765910632,-0.38731174694114867,649.520274468709,468.3795626071893,616.4127329046614,downstairs
26.49415692821369,0.7567282493868018,0.3326107842024953,8.350529535295447,-0.690295014439341,0.01696914597784082,0.4211993726784909,686.515981607873,379.4312177204466,586.438722059484,downstairs
26.544240400667782,0.9256829816623873,0.483065288772267,8.183706958503333,-0.09588027592576243,0.2689111533185792,0.3380454417897257,639.6452970420643,318.966406503576,584.9900976787674,downstairs
26.59432387312187,0.7622276906605218,0.2688856207774117,8.934794182618669,-0.7540402829385318,-0.20855573655763412,0.9729683156072798,648.0940810700187,322.18472265815416,545.3148297079301,downstairs
26.64440734557596,1.2188989621349622,0.42620104763338834,9.120934125925423,0.41227434746128944,0.1591443521873775,0.5254094260860942,710.7348673266408,392.82032708940267,647.0986968947735,downstairs
26.69449081803005,1.1377973230385396,0.2072732143252724,9.595483402625396,0.3240697333781859,-0.1656942104896547,-0.9087679982614987,666.9052356659445,391.98866050208244,616.2593374783946,downstairs
26.74457429048414,0.7277693716517567,-0.5032676351440577,10.170928804481111,0.5739849578955167,-0.5106177739631219,-0.347887618674365,663.9950062810778,378.0633937773203,591.7881769568107,downstairs
26.794657762938233,0.14895249568477884,-0.39684633560773935,10.787398852930657,-0.07832779194036224,-0.41192799649121076,0.2876700618108918,677.41116631353,393.617743246668,628.5223088738493,downstairs
26.84474123539232,-0.48106925802327954,-0.6445747523728436,11.125293173388163,-1.1894907419617762,1.3331626362417142,0.5064002318123119,680.9903716644284,406.3329828390398,627.1938477227513,downstairs
26.89482470784641,-0.6798971192615114,-1.0037871388038573,11.43857346580904,0.1703879250796585,0.8365124276096404,0.5686374823439382,709.2792920544686,427.62664285226555,596.2466646348298,downstairs
26.9449081803005,-0.41030830365848675,-0.5742946030584348,10.829119062743873,0.5117110812075435,-0.0652849526604673,-0.23643719836027866,698.0386607049742,368.6039808846929,627.3964271299752,downstairs
26.994991652754592,-0.7051723112819883,-0.9579865379947972,10.885411847620803,0.832293027500313,-0.9117978528069107,0.7866389850539871,667.171014697537,372.46669011233223,593.8086692241166,downstairs
27.045075125208683,-0.7669484821926383,-0.6867028373379209,10.086307594822692,0.6101648721798518,-0.39733494229418714,-0.26446427867229716,657.7581825321668,361.0540497006338,742.2969801670367,downstairs
27.09515859766277,-0.10203690163120542,-0.12935394390600724,9.44238411061923,0.6494792748259477,-0.035095616793184285,-0.7513174744152578,716.0746359259936,349.595842674438,635.334730496378,downstairs
27.14524207011686,0.43123236413815136,0.08881280521697033,9.022990274594763,-1.3379085411753266,-0.9768361160955289,1.572329687861816,628.4536400324475,415.2910721463548,672.6122740059487,downstairs
27.195325542570952,0.6132596888979637,0.13584918997483786,8.675114987442253,-0.5061809867429544,1.112152395518545,-0.38268816963235197,629.8451337674107,383.98513465085705,655.0118283902132,downstairs
27.245409015025043,0.8082009524506694,0.08848839098759081,8.600200048388453,-1.4734534026944335,0.9939073273634327,-1.1163126576307545,705.2074659456032,344.8747502748925,591.4747703819958,downstairs
27.295492487479134,1.094704032284064,0.2882782876140693,8.878984552430223,0.0199247210277492,0.006307233610638934,0.5279112499866491,730.8283080210986,347.4921591337272,610.0670122835674,downstairs
27.34557595993322,0.7737405438654921,0.6118824319182667,8.816398268046365,0.15985586837766166,-0.9530142784620262,1.0831021237512686,653.9133577373126,426.6205422587,642.8669641148871,downstairs
27.395659432387312,0.798970686971279,0.0935333385046136,9.377152069337104,1.5148013046603181,-0.21806993380366038,0.4974968807744403,730.6064083386724,460.5443770409928,517.6364382759467,downstairs
27.445742904841403,0.7427068492315877,0.03515422689705702,10.284236306168626,-0.17882377178100164,0.07523160078638129,0.1005449816897225,710.6635072728259,381.2749297061017,656.0200472464086,downstairs
27.495826377295494,0.467779430475635,-0.4369945038361001,10.640870690602023,0.8224083392837094,-0.4374871097552897,0.599781730641076,672.1837396987072,428.67158735126463,653.6272383300972,downstairs
27.545909849749584,-0.14813237328197165,-0.5315725152234114,11.25652986635703,1.2500490083710536,-0.6757033022760444,0.032712782247538603,702.1809487912637,363.87801416973826,672.4547153082491,downstairs
27.59599332220367,-0.5115187651711505,-0.9905574272914781,11.383690407498714,0.3526443893863652,1.071929478119609,0.5586215929214993,746.2743722522832,379.07392517562255,576.0858407838709,downstairs
27.646076794657763,-1.063596795444591,-0.41177525166334455,11.370588833528446,-0.046739278992846564,-0.8924463495200008,0.743599309524404,760.1961556243684,395.32286689926224,575.4156064206063,downstairs
27.696160267111853,-0.8541375191077751,-0.6658794121260196,10.856713718797465,0.027015395837357507,0.8703019003089701,0.08001497898945367,676.1893536975326,408.1409395278798,677.7629894263622,downstairs
27.746243739565944,-0.6113110582258284,-0.16869857655934056,10.176473350399915,0.203242655318703,0.6145295750110434,1.1180688284731084,754.2865683140118,349.25474371177836,577.9316593529487,downstairs
27.796327212020035,-0.516920204044066,-0.14586329536007536,9.718983105466283,0.3291152406434107,0.2308498780237153,-1.165395587972,709.3133712195435,368.62464023033465,598.2058383881338,downstairs
27.846410684474122,0.24545754872042935,-0.2664502789882468,9.040607642593272,-1.1359507523746035,-0.377251175018762,0.2572743386968441,727.5671807248989,327.10419116722045,569.5969679133998,downstairs
27.896494156928213,0.4366266441427879,0.01740216321789334,8.18781059451153,0.4882398482087862,0.934783741722707,0.9012666876033794,581.1322092596477,361.07417861502984,576.1571983697572,downstairs
27.946577629382304,0.6157118551378581,0.419087402714524,8.438198386902823,-0.6064871870080657,0.598990239504934,-0.07907382290680295,693.7803012775706,364.3209820317966,626.8225136425126,downstairs
27.996661101836395,0.933991561462312,0.8501190326170871,8.552264453711452,0.44840775225645235,0.782071943444341,0.5874592507963765,762.2351501021324,376.1489472074058,611.4399022849724,downstairs
28.046744574290486,1.4315497605690308,0.2890414838511866,8.893722310143295,0.18504691100222376,-0.654706303083092,-0.11485576477417907,746.465398761893,407.3111749438377,629.567408582498,downstairs
28.096828046744577,0.98673213775661,0.5933096837987113,8.842279837258681,0.5938401701282108,0.5024962717394307,1.4500107357003933,708.4297233773318,379.5299574504872,703.3751160261927,downstairs
28.146911519198664,0.533394379739719,0.2293000661730114,10.266810258234248,-0.686576018619958,-0.6477609927206565,0.2732524513973051,705.2988437758523,382.9197801194892,682.5237518255822,downstairs
28.196994991652755,0.11543459949854742,-0.1217017162896967,11.146420372733278,0.22154744976331092,-0.8211500944459834,-1.2958724144749665,730.7639056021809,355.21071663031245,527.8878795254,downstairs
28.247078464106846,-0.21675042668288252,-0.508103368869307,10.978833693432009,0.11533331480963503,0.8874943247658648,0.46941059023374204,712.3778276928401,381.20326808492115,676.934680421143,downstairs
28.297161936560936,-0.6271574621345349,-0.47098008435860955,11.21893081203856,0.3872614163094934,-0.5575789634865886,-0.2591894164666706,634.533568180464,372.27178427753455,640.9553432605856,downstairs
28.347245409015027,-0.5711599828645387,-0.6501515169442136,11.387351435837719,-0.03802915203022705,1.4233221240146043,0.024738266750208793,723.9139270647607,380.5962732422268,673.233971072054,downstairs
28.397328881469114,-0.5511213982053519,-0.7690372471329125,10.724615995044111,0.35005787057990134,-0.38976543023432786,-0.03772244045073277,694.8341544936724,365.95140696027886,615.903108797219,downstairs
28.447412353923205,-0.9393008243832296,-0.09479230746421896,10.440962000755958,0.14996699113611034,0.07851113081919475,0.42252061457494966,652.8253318099713,353.76553247552465,649.3005015594524,downstairs
28.497495826377296,-0.6052473024446984,-0.23983379978690061,10.091643996156549,0.4693703288720011,0.5580532721965102,0.5367203273756694,754.1230123234911,330.89041275426115,561.2738036106239,downstairs
28.547579298831387,-0.0029905656912284917,-0.08827282711847112,9.533247042575772,1.0802038107984848,0.8095429638814857,0.045329609863292215,631.1990781183345,363.4931975300821,633.0302689633253,downstairs
28.597662771285478,0.35315524225434763,-0.018300457752690347,8.840930096091881,0.7299380900837922,-0.6787802847158029,-0.22472660890637206,698.4596944678857,381.1097107245355,561.0568263273212,downstairs
28.647746243739565,0.565426183979729,0.5045999908256245,8.865610243480976,1.099431403815906,-0.13928508020525304,0.09094061691744014,653.2383926546058,378.36942308864116,654.1176591625299,downstairs
28.697829716193656,0.9064996045177459,0.7675266773897964,8.625620136491005,-0.2240662898397626,0.6384289305461811,0.3840462221364272,635.0883367154606,396.74831177490915,562.3807746385967,downstairs
28.747913188647747,0.6442572364479299,0.7118728224312028,9.048421753434718,-0.7958271282880732,-1.1323555744688885,-0.001248465617560701,678.2614620200876,405.29357397340897,661.3554067710506,downstairs
28.797996661101838,0.7390901103300969,0.5674818699799145,9.134615791423325,0.48661223598254366,0.059976637351180896,-0.8089815750921759,667.2160940772827,348.91981376790284,546.5488355825717,downstairs
28.84808013355593,1.0490449604376297,-0.06506417199327796,10.176119478431145,-1.3168166485833508,0.9727698704997236,0.004847545944372331,703.4414745500758,375.3137188187322,636.9972824766721,downstairs
28.898163606010016,0.7830512258117864,0.051117572739142594,10.631844469432894,-0.37506305829598424,1.156302481766705,0.049603179326107874,649.0158164290782,333.8847706667115,563.5669670328139,downstairs
28.948247078464107,0.12568519734600947,-0.11651995798303316,10.60977525997947,-0.14604985795131595,1.2738271861610115,-0.3650153405574772,707.2081662557226,416.2988433174347,642.609173703076,downstairs
28.998330550918197,-0.434321255706737,-0.8847219352366622,11.606436777598592,-0.5022600673404101,-0.11285191510042945,0.887602360697198,686.4402112227324,384.33953680259214,566.284880285241,downstairs
29.04841402337229,-0.8414797812536916,-0.4924245304189867,11.211751157450472,0.9326664333213854,-0.45071089706174855,0.3047943853649839,721.9356065229202,358.380411851343,659.2055100758693,downstairs
29.09849749582638,-0.9457362121746885,-0.5446034605167759,10.855829754184125,-0.905712678692583,0.01680135041146491,0.3674958372237422,734.0119154743123,427.06467744594414,618.3924653677093,downstairs
29.148580968280466,-0.8719101664287787,-0.5694263384206726,10.53146402820461,0.8712466695336805,0.13557480276066194,-0.3252137062470031,753.4047735472506,401.481350219487,658.0036779398963,downstairs
29.198664440734557,-0.5910591872133454,-0.10455112693008806,10.268624481837842,-0.6791171324220249,-0.0837806874118356,0.5897027990461715,717.5066930895905,413.0575187277579,631.6267244681286,downstairs
29.248747913188648,0.04732411455713302,0.14316629958135718,9.705425141288815,0.40058139868193665,-1.4394346211043498,-1.0981426257533453,655.2399141836447,446.00913905391417,572.0533659555192,downstairs
29.29883138564274,-0.08092305994447686,-0.09766194394127381,8.927875792456259,0.06346053882097129,-0.8893361088579648,0.05465879849807144,671.8819454248411,294.2752875425436,647.8200372731652,downstairs
29.34891485809683,0.3361409285827633,0.30685086466418005,8.404825806187421,-0.8563753607598329,0.5284454470967175,-0.7544470470231966,632.459296406633,374.82480564543005,613.210965757028,downstairs
29.398998330550917,1.1746074560844821,0.4826910339596639,8.454939607294119,0.9528586434052037,-0.6087169128025944,0.04947929131557948,753.6284080978968,371.99009364184155,671.4881350600922,downstairs
29.449081803005008,0.9730576098460905,0.48192880462534654,8.44044196357198,-0.03321232762161727,0.09056239442447088,0.08468619297714829,709.7742103813836,423.5441046523566,634.3501143318922,downstairs
29.4991652754591,1.1680566626080529,0.2763175956389557,9.432357426537697,-0.6840379894631587,1.3122571038619946,0.14073268127543734,692.6106216074913,427.5755450706754,606.931332786977,downstairs
29.54924874791319,1.0398892698006312,0.2393012744258899,9.725426050242215,-0.05813880184776119,0.6272947343322209,0.7216322074158958,702.5579158416551,351.3742785443135,643.2490949605071,downstairs
29.59933222036728,0.5944300356769829,-0.22201729329026929,10.427488474355119,-0.40673895097592644,0.3644409523331908,-1.3858297643999349,746.0688987879165,385.30252417015623,614.9905343016799,downstairs
29.64941569282137,0.07908308796346078,-0.7284583712603203,11.057691159310124,0.5321862167135791,0.5479651007332659,-0.22838856981794972,671.7102802044008,400.4430844664567,704.3375804911676,downstairs
29.69949916527546,-0.5976615215240331,-0.8893591835114683,11.15540069414684,0.07062250580225161,-0.05748544728355984,-0.39303155701367176,618.642606886779,419.71770066402837,530.8931487565592,downstairs
29.74958263772955,-0.47278630959125506,-0.8147421450101857,11.40994561859908,0.3509004825853434,0.4753272389502747,0.4632588383161258,701.1827687897174,343.2452630783705,672.4343157690299,downstairs
29.79966611018364,-0.884599567651151,-0.577395599763838,11.426000548715404,0.7069021810810325,-0.2895147258162384,-0.7687297463297958,726.7670049274277,338.2949181534586,685.6091875257181,downstairs
29.84974958263773,-0.925273680825539,-0.29496274596274064,10.861302195112518,0.19048064581526006,0.42300004224373067,0.05831471313821307,669.1233368373128,383.1179060577607,611.1292362426497,downstairs
