timestamp,ax,ay,az,gx,gy,gz,mx,my,mz,label
0.0,0.4895670666891911,0.5779267193434368,10.71164188600131,-0.44326738236737273,-0.3603583131163416,0.39373423945365665,670.6756789881372,455.6535079815375,605.3018104755222,jog
0.05008347245409015,1.3771140259992993,1.3452205827594403,12.093515611910894,1.3995889475102614,-0.2988651085851238,0.12454209047139626,632.6391648805661,414.0907076216016,647.9610630712123,jog
0.1001669449081803,2.114118226252331,1.4061992811098716,11.810761884537866,-0.06447172656562566,0.02678683977153072,0.07202935670520617,668.5638858835395,367.93532969696156,592.2424363560251,jog
0.15025041736227046,0.9178071546866342,-0.06421399810653566,10.40901458399667,-0.3858363972575291,0.5974560372915328,0.14718246208103578,738.846318597943,386.0462114554825,592.1739447132018,jog
0.2003338898163606,0.12594366542056668,-0.5578666047099032,8.712073727398085,0.596063982586737,0.45953059120579937,-0.2000162519226548,623.1986973761941,362.6312735879442,665.101919247563,jog
0.25041736227045075,-0.8940112838286435,-1.5876349682502133,7.958156686412016,-1.000215737895693,-0.3538213864722195,-0.6176720511435498,647.226470014475,334.9812419970259,638.4559397178235,jog
0.3005008347245409,-1.7227632806095026,-1.326032118855081,7.894029872292666,-0.40368530285988474,-0.3039444603023452,0.6154696751142964,757.5974196592196,342.2513304753052,597.3051926094527,jog
0.35058430717863104,-0.9326221968291534,-0.6845040438989238,9.471088536270809,0.03944369256422985,0.34676937423057436,-0.6076890156002149,676.7771786408134,358.42079710182804,622.9623827337682,jog
0.4006677796327212,0.5489397686438198,-0.12342872391141363,11.314556122980933,-0.0324508175007183,-0.999223493179111,0.8416228047405295,647.7208856092203,371.64535312416996,683.5189125249004,jog
0.4507512520868114,1.2678195553037213,1.0463988191989912,12.07472549751271,1.06432185363916,-0.2574805906066683,-0.9735644862945484,697.4907523269271,440.1337219770776,632.1984377155302,jog
0.5008347245409015,1.9021566509621808,0.8474496229961899,11.234457976682213,-1.142371884466387,0.27977802927258777,0.9387487914861057,648.0223268575642,409.8536210257074,620.3694288722014,jog
0.5509181969949917,1.388900707323843,0.23401988304570281,10.030358853932006,0.7852455270846567,0.34619677307498575,-0.06764380574642469,665.0904686634943,421.75353687799486,704.7975056907371,jog
0.6010016694490818,0.1858989881135063,-0.22157491636638071,8.68464501890344,0.43841131485126345,0.5090003346207309,0.16412585575754282,687.4218796135315,340.272658166417,576.6089234280472,jog
0.651085141903172,-1.469172615260465,-1.5160245744146996,8.251584523167596,0.49958855204509484,0.5278258528651196,0.6529464077476265,682.1547471779311,409.9782104393314,632.5777420347583,jog
0.7011686143572621,-1.5944268516058078,-1.2360874644023203,8.106269640110702,-0.23701908451905823,1.3344875227681148,0.3203825081996577,701.145251188272,408.6910733013807,564.2129571212881,jog
0.7512520868113522,-0.8059150082592467,-0.5169651773120785,9.801405117515483,0.5440350569146136,-0.634185062359412,0.38290725130405,620.4686902325609,440.6429496341692,546.3970845567421,jog
0.8013355592654424,0.0165653993805598,0.7152576831189856,11.165116391925661,0.3319133278961782,-0.2331642246823941,-0.23894977165937933,708.9642767118921,393.96454839515536,564.6172792272923,jog
0.8514190317195326,1.620333999153866,0.7243094027526882,11.913231182319112,-0.11512711792247263,-0.014017783804093475,-0.1606636105198175,791.6581781697549,402.30814209593,624.120349075,jog
0.9015025041736228,2.0756350246587387,0.7023867391192322,12.10205292168813,-0.5381341424852764,-0.13437579408997807,-0.9175990599564374,688.3760611397416,376.9170739163995,612.0335653866822,jog
0.9515859766277128,1.2862620089791772,0.2223089229635013,9.97508515273393,0.241308627154372,0.27877737175050865,0.2909726281635672,714.1675370027062,411.63239066729346,655.3176286850155,jog
1.001669449081803,0.15229775281278518,-0.21930093726598898,8.732709380785195,-0.8773913877042692,0.9905484957139665,-0.8954873617042882,645.1249104978547,411.1769313907671,672.0435577169658,jog
1.0517529215358932,-1.98474893007997,-0.7765103205508077,8.218939623934913,0.09719081553254787,-0.3072173581120854,0.8710643936882922,673.0491052660673,360.78571451332095,621.9237918147154,jog
1.1018363939899833,-1.4756873756962712,-0.5347502479385013,8.054458353749519,0.6213735991757566,1.2281065800535051,0.2543927768439641,629.7470882938883,359.9084489959886,551.7636474406863,jog
1.1519198664440735,-0.8768959951309313,-0.9287517982238434,9.675273769729285,-0.7841092726877095,-0.23579910638073595,-0.6171903580284576,650.9878945360222,360.13355507709446,764.963473004964,jog
1.2020033388981637,0.23768854867821543,-0.19220277119375972,10.996813247716087,1.8603083348689047,0.38163397028141877,-0.002238659752544112,616.9393317698216,332.20209072775265,692.6693279430405,jog
1.2520868113522539,1.2000422708778515,1.202424326517583,12.087102659287762,-0.334656467730963,0.2057659753219354,-0.10119001145096905,708.7380786648015,435.47566380481453,634.6952584757348,jog
1.302170283806344,1.255962683077195,0.9688885095697548,11.70043540999574,-0.08908132098599128,-0.10756673269127388,-0.12562971549113322,658.4489037357325,440.13690674140366,616.6368657579886,jog
1.352253756260434,1.5757364836870968,0.6207335408545203,10.735973397307193,-0.33340012334238206,-0.9649095006126409,-0.2796418704984488,580.2574572499057,393.0404535097318,627.6066698804603,jog
1.4023372287145242,0.06376012332335221,-0.09188499252569776,8.676162136946335,-0.956364297911443,0.9276470859463071,-0.019594263006641698,802.9475855813926,420.8180036553145,648.1184802309324,jog
1.4524207011686143,-1.600920900652286,-0.5844327530904436,7.806804447648737,0.8375499203644432,-0.05441227727971143,0.596940148049366,635.4055826951043,399.651751453212,653.2937022984435,jog
1.5025041736227045,-1.7298768757265193,-1.4215043101452824,7.955317360880659,-0.8772209104102078,1.0618793078484265,0.31102980286026494,736.8097697642013,378.7062253080556,674.2597003080227,jog
1.5525876460767947,-0.5982487975749876,-0.2007764140930166,9.463646703531493,0.14130899214754225,-1.5657444843747585,-0.587699981320724,657.0806009709567,377.89049010450026,603.2542682629139,jog
1.6026711185308848,-0.11987249073811425,-0.026288549094450775,11.343323209266462,-0.8295530295212538,0.7654826341218984,0.4537147224926952,616.6947653836041,436.10762013370515,660.4339962182992,jog
1.652754590984975,1.3082979802836527,1.299378297027723,12.30416211760207,-0.6518646015636839,0.7499970659729788,0.06352262927164276,729.5505494974519,347.3536679445512,673.3011550013754,jog
1.7028380634390652,2.2145314661847646,0.9272100571740622,11.544224613189025,0.2794451362404285,-0.42929348353946256,-0.015873631792557602,614.0329749617385,416.21282846227854,619.4051553144234,jog
1.7529215358931554,1.1333369166362615,0.34066018641255524,10.017990660536546,0.8260493430407118,0.1927636223536952,-0.5157410075404464,692.370168568234,375.2605282658645,579.9154903948454,jog
1.8030050083472455,0.1760488468498438,-0.4109371568898597,8.865575478508694,-0.439778907447872,1.4282455475940972,0.45193502648438105,690.3770452396407,325.69216868215085,644.0030795574696,jog
1.8530884808013357,-1.518413321755681,-1.404114963505183,8.08935524713866,-0.02800576000119246,-0.9067572626612096,-0.08826812595723052,660.9617546000791,298.50549678302554,638.0159284752252,jog
1.9031719532554257,-1.9689313394622987,-1.1391793192603157,8.03550491731255,0.5202639034374514,-1.5067146267450895,-0.6752696712775965,752.7365090311257,343.0730098794192,595.0317009665362,jog
1.9532554257095158,-0.8308491419722347,-0.8123703674728995,9.741901730238236,1.4019518201698122,0.371390351886226,0.9405699844908334,652.0787167127313,418.618872600088,663.3497315269856,jog
2.003338898163606,0.3438524558568421,0.38429580050251877,10.732821359464626,0.8094867630533163,-0.6505101295517012,-0.4453018699601924,617.7214464411118,438.33450344072514,620.2344003693155,jog
2.0534223706176964,1.5264773311858253,0.67119551534949,12.14745649788545,0.38031918243698065,1.2485842544822283,-1.469822111366565,655.4332434720661,441.4384046159338,609.0910321631128,jog
2.1035058430717863,2.0566260708506356,0.7844745527487256,11.84983363080112,-0.6089806646051423,0.25648659917663763,0.1563333427347203,717.4795818414378,342.19141393040746,670.0439586256259,jog
2.1535893155258763,1.6712788686649185,0.9325741786904744,9.900119136191218,-0.45337109287923505,0.33121801650638016,-0.40438942908368014,701.632243689994,492.63042101744406,631.4503322002638,jog
2.2036727879799667,-0.5912382324060975,-0.9342318739158448,8.660044467130824,-0.3503809383956378,-0.39548511946711756,-0.865836976959216,683.2264296780602,375.0911361205687,614.5765014598313,jog
2.2537562604340566,-1.6685365779512293,-0.8139270549168973,7.501605179579411,-0.3070533805806167,-0.19167822247372052,0.9959545222680917,691.9861488049928,355.4790882531478,651.5588517026716,jog
2.303839732888147,-2.2299020474907,-1.6450545674071109,8.009544253206158,0.5483336809701258,-0.07942449161584984,0.615422579890755,656.3429159407398,379.63255118599875,621.7179786278572,jog
2.353923205342237,-1.3677317731737582,-0.32429118613512525,10.177746339349923,1.0281076968621075,-1.6597518096714097,1.5613286277018863,704.0766648725919,349.4485198798658,594.9752692093996,jog
2.4040066777963274,0.6169657765834733,0.4889136626131754,11.731981920477,0.29423006750291153,0.892960676583417,0.8976708165488261,667.193159899021,438.71561398426934,666.804709699123,jog
2.4540901502504173,1.8289947127470763,1.3002910573574598,11.922430633018282,-0.49375787649015135,-0.2441995495041054,0.4645808215745229,638.5912003661091,316.6688767981446,625.749361564734,jog
2.5041736227045077,2.032721694374854,0.6648984038404833,11.53688192526851,-0.6299641103962057,0.19400294443574226,-0.08171354150185321,643.5782594469202,330.3643216399879,568.0941339186273,jog
2.5542570951585977,1.3731192341726812,0.5318549729906865,9.934682286598072,0.10474731365375364,-0.35069484711006216,-0.8299808501937356,697.9405540648968,402.07147148295365,622.37902743399,jog
2.604340567612688,0.08965595021990802,-0.6067716328495141,8.399535057099834,-1.9852599213384736,-0.5574554819054557,0.7082420735002647,687.3147680340002,379.8781071801908,622.7855368556416,jog
2.654424040066778,-1.3535741773041732,-1.1500680200782176,7.968650051544157,-0.7958712320844248,2.190435511750917,0.16126599441482756,660.4171508934535,333.32521623878347,640.2945387773958,jog
2.704507512520868,-1.7022984175557123,-1.3730943548800978,7.991353255509752,-0.6309315176652545,1.0789109171929263,-0.8188408440262444,706.3965767582063,357.66243316401466,704.137721011485,jog
2.7545909849749584,-0.7367667991204111,-0.8323597142058421,10.139128988325057,-0.251058868342604,0.7948711077137852,-0.9634134987111079,663.4867196862751,396.327092770189,649.8592901743915,jog
2.8046744574290483,-0.07122378193919775,0.49551591788209387,11.111538883455111,-0.1642297780738226,-0.36066492283351254,0.6244916448870858,679.0439085403161,332.1044442537282,658.9105603047477,jog
2.8547579298831387,1.9519680423050845,1.3840638654651571,12.064032986985932,-0.3387029361277253,-0.31301938900364334,0.09953349302486734,765.0577052538656,391.4699586564123,660.9713238110716,jog
2.9048414023372287,2.1578075406331685,1.1963711247543662,11.733914257386603,-0.3447459359087891,-0.3784687636453062,0.022858647860285214,636.3930944016585,355.70523751755945,705.2245454662095,jog
2.954924874791319,1.3893053127921788,0.30710514648353193,9.993301186829147,-1.1822021290511722,0.17872614908181345,-0.3290466595093653,738.1647877124691,437.3781631828332,520.7982587244555,jog
3.005008347245409,0.2930417044541993,-0.6406091351200409,8.402030784731878,0.5703861511692897,-0.3399555853604023,-0.6689127842688077,686.0926078771892,341.4904900755786,627.927956598024,jog
3.0550918196994994,-1.462121228376775,-1.0500343082793175,8.347634153772715,-0.4839822890111972,1.0651565977697204,0.8401320681791646,667.3682291462894,310.9390943607909,646.062727907311,jog
3.1051752921535893,-1.869318194006679,-1.4646071151240427,8.258269522441076,0.3504436519811065,1.119330313189332,0.6890571307408407,717.6752869414706,371.917334396636,623.293164871728,jog
3.1552587646076797,-0.9388082226980471,-0.42757756863603585,10.067382674050082,-1.2549237205265753,-0.5885314829071233,0.3371991781063518,652.8490289199784,457.96429899316354,600.9911261590528,jog
3.2053422370617697,0.1975038907610917,0.8653063319585423,11.128924169086307,0.4698033989116076,-1.3002475406415712,1.0929997124714832,693.4132469186986,351.815230263139,611.6881508199737,jog
3.2554257095158596,1.832772731326419,0.9453435995116382,11.84349858901894,0.40643272442876477,-1.0856667022783524,0.4322244266308694,639.543232105357,309.1791615887518,635.782734381012,jog
3.30550918196995,2.017788148466593,0.7688287161251315,11.996258623699733,-0.14307408343547928,-0.10475362829378436,-1.2796301687929978,747.1469832795143,375.72782105572094,558.56620801096,jog
3.35559265442404,1.193706961135928,0.19257980843100614,10.205225041377851,-1.1477457022265671,-0.23367927383286008,-0.28084473374599317,715.4680525567479,456.9652954249125,582.9120989036785,jog
3.4056761268781304,-0.1575837200977354,-0.3961358990135789,8.51156013398672,-0.058744749518163795,-1.2394890795699711,-0.30077796548977137,665.4615712508268,401.33489429620755,669.2923996893571,jog
3.4557595993322203,-1.4371341862854676,-0.8524355262901568,7.796872118696867,-0.11538573272429345,-0.7721215751084602,-0.3866308012907854,734.6128279915965,386.1306357219868,607.1763465498441,jog
3.5058430717863107,-1.6079210764573002,-1.1813258268031979,8.241093907126102,-0.004539064262126331,-0.1685406127820001,0.8213479269091417,680.0358219303877,371.64344156621945,570.1992812827161,jog
3.5559265442404007,-1.0048447816321406,-0.02925178775132342,10.074106381485139,0.0734277347643384,0.5678735066384101,-0.511885738989859,583.797929137643,383.5028593261317,584.6408187841246,jog
3.606010016694491,0.23084766449374106,1.0822990364414746,11.743900032779734,-1.4778480490245478,-0.7585856261183408,0.1579675087787073,696.5015358995042,353.7735379771795,562.0700418522604,jog
3.656093489148581,1.6005963121053008,1.1935966331141972,12.240207855467338,1.0582813315284927,-0.2773919792271895,0.8860476889218241,686.2648459519826,364.5715402760047,575.8407025276939,jog
3.7061769616026714,1.6835595930297986,1.2762920593230576,11.834696668033551,-0.09709174698766047,0.43423188822626585,0.027049722860509672,681.9597664963401,411.69458710011793,670.1195769409755,jog
3.7562604340567614,1.6524919207732922,0.1662093717154859,10.332307054748469,-0.533065169830347,-0.2863076927455159,-0.31348607217576313,674.9351318318319,349.17677643353346,666.7408087057586,jog
3.8063439065108513,-0.19500162679252087,-0.5173338645893588,8.487739748225808,0.7611461072703907,0.5375314621562175,0.1559657824456108,754.1999687309376,432.61672384241365,663.5390422023676,jog
3.8564273789649417,-1.3673366496702692,-1.137754012723848,7.614210656682763,-0.10543060117840965,0.0876723454497405,0.04445019035840785,671.829321082393,373.44802978644896,622.0134568168055,jog
3.9065108514190316,-1.5776682095142913,-1.3706942821857162,7.999228463709077,1.0954727044495143,-0.6148304241714931,-1.3089446626734866,759.0419952869544,430.3032116853316,645.9203848321381,jog
3.956594323873122,-1.6207410304945595,-0.4575741561327308,9.479583507146808,-0.15403260393345009,-1.0964899066895992,1.018666907665078,753.677444064711,342.2848488808285,614.4978659335663,jog
4.006677796327212,0.12153639778855956,0.048781714471408444,11.451113680825733,0.36779796369725254,-0.6688448989140486,0.19076564037447094,690.7533450356935,344.116766496823,638.5650263074241,jog
4.056761268781302,1.2932123952998615,0.6745954480606458,12.189347871711748,-0.6654830593182884,-0.9113926627030206,1.512888663024859,670.2031814742301,379.7805871448118,641.7999915964467,jog
4.106844741235393,1.6172396179487105,1.0070638833473784,11.319030188418537,-0.8656714454843998,0.7042730699889747,-0.43720910494903165,706.3922816371224,385.1516733794946,641.7163408871327,jog
4.156928213689483,1.0568809222291349,0.6640694600450308,9.62480525730149,0.0837514649686694,0.5399048785963015,0.42334001797625476,749.177762589729,414.66938841778335,578.7204325736184,jog
4.207011686143573,-0.6252451252193445,-0.15668376327607159,8.312522226325711,0.3782664347755484,0.3981587496129983,1.0297719730844388,731.7844191383965,413.1325837144343,642.0040327297672,jog
4.257095158597663,-1.1863475955295888,-0.8319001903456651,7.365902962568164,-0.12433541457347813,-1.0025721792570037,0.0553892149537135,742.8583465452351,381.85563076293187,549.4583052121843,jog
4.307178631051753,-2.0156006165090625,-1.3301315293423515,8.270701916703231,-0.4993174277872245,-0.5160564225096597,0.5213119708147044,706.9581534354048,378.51956682785146,622.1761800023779,jog
4.357262103505843,-0.892998261993659,-0.8412196818075384,9.510106325405474,0.3837664661738036,-0.9715509550973739,-0.11195706903279744,721.8117831326578,393.5882071137888,630.0204462021263,jog
4.407345575959933,0.049423274252827096,0.7618267086080444,11.341941428259808,0.3233326759374043,-0.2171569590297522,-0.2813396250765215,649.9925844529864,347.3786282183244,620.3825271801784,jog
4.457429048414023,1.548155529777762,0.8164476262396765,12.150115814618175,0.1207160997901707,-0.23565538850936232,0.5455392831250718,723.2092663794801,430.55200258619834,651.3409761052753,jog
4.507512520868113,2.1114939636399557,0.5337523049098731,11.448500737623228,-0.3232431498760851,1.4604146175136616,-1.1178063315211793,554.5573966396338,340.1781050974927,585.71871147712,jog
4.557595993322204,1.258213483297949,0.2507248960540505,10.578321203479293,0.10807939602307483,0.060074432741525664,-0.766249318305629,668.6638220765366,421.72045750658884,672.4886597788395,jog
4.607679465776294,0.06512701710117065,-0.7854865447817019,8.621215213281907,-0.1726972093737227,0.8250060111597414,0.5413387068600465,706.6007319357168,375.8039140505473,647.5590093309562,jog
4.657762938230384,-1.4154338448208232,-1.2117737349372537,7.328525402629931,0.028892665870750917,-0.41950727895732487,-0.31068581527223843,663.3425026163826,362.65177913932206,601.043843074018,jog
4.707846410684474,-1.4950743935077717,-1.1069498193747813,8.110925728629562,0.4595155203349295,-0.693136175346858,-1.1608655918533295,686.4967995087213,410.6110394627658,695.8152712091053,jog
4.757929883138565,-0.7553824478827256,-0.21889138628742072,9.849807821600134,-1.3417095943199768,-0.5544787640697778,-1.0619630471741281,677.8974184665597,348.00340282176717,645.6066844757664,jog
4.808013355592655,0.9859652308537408,0.10618299797369674,11.433277634998513,-0.3134311925567789,-0.8335762134579688,-0.3301264449505494,727.9856314633645,406.2672743978119,559.6153757705117,jog
4.858096828046745,1.8283774446886547,0.7887104262157325,12.019298539164007,0.4243854400383316,0.062050396399735565,-0.7820379270556652,607.2003996186622,380.97845935424186,584.4862879066884,jog
4.908180300500835,2.063409955854372,1.0836797479200861,11.390249270826239,0.7527775600009551,-0.10778606061875207,1.27649710982525,650.5777484059349,419.7433383331159,574.2768715353052,jog
4.958263772954925,1.342471962573598,0.7402195373812315,10.230003914521713,0.421721702631592,1.0032359495890217,0.3007497442309587,658.2517974467982,366.5629814644332,651.6642091141365,jog
5.008347245409015,-0.6967036872264484,-0.6236648996192979,8.657245121108906,1.30880856376695,0.0847935122826768,0.6125275251476284,688.4708210776727,330.3795113842455,582.5553217005248,jog
5.058430717863105,-1.2521203794192024,-0.9525975127507464,7.670438669097401,-0.4603442289059546,-0.18499869285092982,0.9345130429136514,697.284816536958,400.52009050660115,644.5556550934022,jog
5.108514190317195,-1.830608491277746,-1.3485316869699688,8.016904865034702,-0.934245282838378,-0.6165547996069808,-1.1589509547124683,736.7834024166389,365.0638531347324,708.8422313747343,jog
5.158597662771285,-1.0924823038276685,-0.47780926555492764,9.655122018207123,-0.8448648949448871,-0.30321111559251224,-0.7222290095023428,690.9395514975673,346.6433740767105,616.9953121877107,jog
5.208681135225376,0.19487297980539925,0.22303740935477134,11.16631274756694,-0.8468598275588037,-0.05986353812161613,0.5962203467715482,725.8008881525456,393.9059383289162,611.8890465089653,jog
5.258764607679466,1.7719857894508806,1.0057594434458739,11.878666666452691,0.7600673043886849,0.41376518723819766,0.6329596928118005,637.2282953850096,387.26947931980874,566.7093941634558,jog
5.308848080133556,1.9664192178493956,1.410202179387643,11.475724736674875,0.2573562655543733,0.25857362462223543,-0.566267478104789,672.7015621614142,377.89906499087084,613.5844374870996,jog
5.358931552587646,0.8351387941510985,0.4346419637337648,10.070355869301107,-1.1003902845475617,-0.3211965902382673,0.2611967979685764,655.6255175213378,410.8882890024833,556.4355737171234,jog
5.409015025041736,-0.2609413766417628,-0.4017042389398304,8.236571585626988,0.43394246358170374,-0.08833655298527278,1.4022028243489073,655.522564060138,310.55543456094625,665.0007679845612,jog
5.459098497495827,-1.1714572981559321,-1.2283394032627302,8.003771108491524,-1.4288397401715751,1.5909712989831526,0.1824746400104662,664.252569305304,436.35989946109476,569.5501270407046,jog
5.509181969949917,-2.049474638920755,-1.2026503109551194,8.35860416337955,0.7000029587523582,-1.0182308085418104,0.17748664285763535,716.442630563276,387.33878730967564,597.2032432176026,jog
5.559265442404007,-0.8192831945285153,-0.3567509374930672,9.898740173064317,1.5107654819835934,0.03312485330152758,-0.8873894503278114,668.4968801247713,422.74329446142787,571.3929367609649,jog
5.609348914858097,0.13143174008728803,0.6715835195804547,11.992541241005483,-0.15786352996287858,-0.11249293520054637,0.300657863137983,611.6198783851275,389.67243120448,701.5491071259889,jog
5.6594323873121875,1.441585399493699,1.1597450237551719,12.377415494343568,0.767082235703428,0.05105138708257439,0.778224001780498,730.7332854392148,457.9234176297874,582.692126674581,jog
5.709515859766277,2.0509755272125476,0.826207080975258,11.453892852788998,-0.313794444635213,-0.5944651209675323,1.1150458603006643,684.0153420666156,376.151032476378,543.1187771466604,jog
5.759599332220367,0.9493829861966175,0.3701997079184649,9.898306549544666,0.2650568900713418,-0.4303691939338272,-0.30594609415298946,695.0439918100149,411.2971237330505,646.4401758563648,jog
5.809682804674457,-0.09902755834538209,-0.8964720204883123,8.31962961792336,-0.7259122665611746,0.39158566822088325,0.3095408179004803,718.6495267169897,409.42080532870665,585.611104797423,jog
5.859766277128548,-0.8519505706086119,-1.3549565170915532,7.787833444909494,-0.7580698380052665,-0.22982819339717447,-0.5929050322865718,704.3961035365929,400.1623784378124,650.1691623621853,jog
5.909849749582638,-1.2108771467780133,-1.4505638779483703,7.92440987339058,0.8495456493659629,-0.27669394088167903,-0.40638759128417246,626.4102449952326,384.9983043821425,558.0659217315542,jog
5.959933222036728,-0.6325503331478198,-0.5956454886900806,9.652790413626086,-0.8480061556570171,0.32357395713293763,-0.27333953267361144,759.1006578367923,434.79008103519766,704.851226720344,jog
6.010016694490818,0.029595101624476247,0.528144038195959,11.56782677834788,0.2531639434580674,1.2238466644218027,-0.5950853925947446,653.7334474015348,398.40607997681747,577.2381236573425,jog
6.060100166944908,1.448202027844597,0.5857598630429572,12.052559475070883,-0.5476427253422054,0.3279563911458345,0.7780172175079852,727.2866232008851,360.5176747933457,613.1715197531682,jog
6.110183639398999,1.6746291183260915,1.5539070665400243,11.70283221604804,-1.2233359687154173,0.7287672028447246,-0.7547338453358962,611.4417475814414,352.46971952800277,653.7448095677776,jog
6.160267111853089,1.04032921890163,0.11964876864580173,10.165161385018354,-0.4156368548982192,0.506572665020308,-0.3770455048825494,658.3908310352653,421.1056968278456,633.9829150048034,jog
6.210350584307179,0.02204587339096127,-1.145658333318952,8.425611472720373,-0.17489109798160948,0.28712510995509694,0.10608229202400139,681.3855121017511,376.70651278086336,558.4274759571022,jog
6.260434056761269,-1.2631992444813116,-1.1598310456289964,7.861661054849864,0.6692653774924877,-0.17615007836741164,0.018161609078958942,660.6516124765232,485.0057655922682,626.4595466307462,jog
6.3105175292153595,-1.6068516265391335,-1.586147975142799,8.183517816960473,0.2655738531394752,-0.0031478799373909614,-0.9815628857392598,652.2426742410405,402.14830775495227,598.8886655878198,jog
6.360601001669449,-0.9467629723033374,0.1639768693447955,9.87460171773294,-1.1012776597264489,0.25641141186718847,-0.9476420338185636,610.0976177698653,336.28457307215217,664.2171600698451,jog
6.410684474123539,1.0958507160581035,0.3635998725359088,11.500558593148504,1.3455009444885078,1.4899422998249723,-0.33934725364680773,688.1941292614331,501.0384928094704,631.0843452011055,jog
6.460767946577629,1.8896812696233898,1.0280742966710685,11.848880272522806,0.033350296831198264,-0.320711718667169,-0.31126237998241774,651.8799992002247,390.043050332308,630.994121754684,jog
6.510851419031719,1.6939885333154854,0.6153665837005498,11.150334117021748,0.18651654674212667,0.021495293756775113,-0.1766834619807656,635.6094358321642,372.4058106243912,556.1235303915266,jog
6.56093489148581,1.0738036753195772,0.12373344956119986,9.46106628737813,-0.8774572452645554,0.24926259904772047,-0.007693879669872953,639.1027989972599,363.5549661847059,608.2855764385785,jog
6.6110183639399,0.11765873949196902,-0.33494716007806585,8.440778818054396,-0.6106429088718721,0.4153695171242621,0.420848601469945,719.8632915851152,346.41278028163777,577.8361738629308,jog
6.66110183639399,-1.3283671625340148,-1.146890940226421,7.6208671414542914,0.9481677076075445,0.9943522677050582,0.841361742673936,614.6962072873556,400.9731426957478,675.0410353959043,jog
6.71118530884808,-2.018880716547998,-1.1294531842977191,8.174652341107613,0.41712919832993073,0.10303599329020467,0.666841719282623,699.1565847839065,329.1707274389327,619.1426314282949,jog
6.761268781302171,-1.142855050552127,-0.27611038382956754,9.901792632218495,-1.1696778527038618,-0.07947638132565883,0.333067069980848,763.4390799478621,380.5901118563348,681.9938583943998,jog
6.811352253756261,0.4848769965193551,0.7022275413064274,11.469840856952455,0.18833554066356523,0.39242968184599564,-0.6108561527051926,699.3298054128581,394.17577842840876,594.1630389356443,jog
6.861435726210351,1.3662681943766397,0.9689827100721564,11.98454885851808,0.8016629176425375,-0.6112324000950837,0.08196049280747769,718.3092001128822,422.84854848058063,650.3118505118653,jog
6.911519198664441,1.7770769476894608,1.0691440546107238,11.286162640297634,1.2541658610263173,0.5167426610695838,-0.2905966098055381,693.6973203298943,351.90489424805037,542.1993133942948,jog
6.961602671118531,0.7605765043276268,0.2008179704971358,9.603029079277306,-0.5677158009452813,-0.48104075579373107,-0.28754215425899304,714.9496135328092,409.4081410129965,643.1985371022492,jog
7.011686143572621,0.17266137618423638,-0.6324877595089544,8.56977691851247,-0.16612560964340586,-0.039243452106009304,-0.00683907802453715,646.9922893087635,377.0092374045641,667.2091724075963,jog
7.061769616026711,-1.766817307285736,-1.6415587144435635,7.423835408810988,-0.09889191011496369,0.21875572959259315,-0.3263530326269341,732.444592448139,395.99697194218066,650.6969096674969,jog
7.111853088480801,-1.8303830475666816,-1.0399801751996858,8.782973149626224,-0.18829786276089666,0.22699845150420705,0.31870421630173,735.3939863295969,432.62550931785825,598.1790836873763,jog
7.161936560934891,-0.7135516678102894,-0.5289448655724187,9.834803153932791,-0.20470862310000457,0.09342209879641432,-0.46630919652704544,653.4313167208021,360.54729842413605,641.7019318078926,jog
7.212020033388982,0.06448059489003304,0.4508538579250582,11.803711151463421,0.7433321976750654,0.14474695398255585,1.5077738417932345,690.277348284264,359.6250423271714,549.6444993976836,jog
7.262103505843072,1.417887442138103,0.923647104018017,12.551236740615364,0.3521531727948097,0.9353282340663637,0.6555410323851283,693.1079354264061,396.92403231403887,667.5541661779448,jog
7.312186978297162,1.7352896172556815,1.3566359892906759,11.752936544008609,-0.3505497475476768,-0.8487170945747421,-1.4255302603130413,641.4708593095187,412.35409013663775,623.4826210761829,jog
7.362270450751252,0.9679312442228233,0.48120033609132845,9.767948101770859,0.001309364765479342,-0.15958602495451482,-1.0454722642816108,665.403150102387,413.5624075824469,704.7773797179077,jog
7.412353923205343,-0.012219005533739072,0.04684271660290612,8.435042969754676,0.18639665364294755,0.09065008178819221,-0.6294115952053873,652.3356985965559,357.3767332321356,633.8596192365205,jog
7.462437395659433,-1.4649490682966726,-1.3148728859955439,7.220812263029844,-0.9078415096595522,0.25211116929966954,0.4007167896600241,664.5943606407279,414.5213394659361,649.575271605063,jog
7.512520868113523,-1.838546686537883,-0.8499147477628062,8.632871661513855,0.5834373923742561,-0.6531683402330474,-0.4570683779020581,611.6674243688733,372.11756262644775,637.3458440151235,jog
7.562604340567613,-1.0112800138350424,-0.09332598365904549,9.767996824445621,-1.5222433599999234,-0.4382821855835336,0.9786740109551968,683.623355486498,369.82914455234277,589.7237174492684,jog
7.612687813021703,0.3121344259372397,0.7322201255858944,11.694717794715482,-1.123596904512973,-0.5922636324799851,1.3167954050362003,705.1353927289811,374.0185925219145,590.1074713733618,jog
7.6627712854757934,1.537625086265885,0.7560195007591208,12.343085747696302,-0.8627568226200916,0.4191198232895875,0.8983977515650565,741.955826147485,384.6031249721346,655.0683446031004,jog
7.712854757929883,2.004620919880473,0.861124942789504,12.07461814720489,-2.156790642523401,0.8830370791041561,0.006575678275863201,785.3262655459843,411.59757094718015,691.9983596912583,jog
7.762938230383973,1.0410335686335717,0.008395868762241576,10.012348795905675,0.8345334072977867,-0.805327236604652,1.2694465243674526,689.0380993169252,344.04523024509314,643.4746759516045,jog
7.813021702838063,-0.44695811255385093,-0.8990245308499543,8.57806307261782,0.48106941226459815,0.2803983872524514,-0.10031569861580722,682.9872845775828,403.0234787648148,544.5859605436847,jog
7.863105175292154,-1.5298981681267618,-1.0628698829544219,7.495602155675124,0.16909277571606218,0.97114809545949,0.6246966472383828,588.9443863071748,450.818506612089,507.5356881026304,jog
7.913188647746244,-1.2022658340344599,-0.6236788879572188,8.462945934536217,0.15031621679109855,0.40357220747619943,0.7846086253066852,694.7777574876333,414.4362480958948,608.5925144797304,jog
7.963272120200334,-1.1703537633314693,-0.4197072087742596,9.919418604460667,0.7271640900918117,-0.7673641587679035,-0.9481336628909085,681.2445383691613,393.10191657718366,627.1054350601914,jog
8.013355592654424,0.5013989888417533,0.7335103491348975,11.540528039133902,0.056742081636288806,-0.7107129130359552,0.10923428505053032,633.1227414712912,410.453648131997,703.7769993272127,jog
8.063439065108515,1.4636072866383791,1.0769524940353954,12.36699631529016,-0.7667439048265401,-0.10632117086667535,0.561186976286958,581.7245001431202,413.42253452932704,618.2380308284337,jog
8.113522537562604,1.9108527159564073,0.9117948131644111,11.479668407951355,1.0152308325213737,-0.20662738820964746,-0.5249654640026056,718.6466714118728,377.0126203335308,664.4455013156025,jog
8.163606010016695,0.7181663612258559,0.4485974724016613,9.798252385573646,1.3428989456214266,-0.8506918200475823,-1.3787758297434283,658.3446085914953,376.4657681538847,666.4514824630118,jog
8.213689482470786,-0.45796766132517025,-0.6670421176241279,8.824101247853749,-0.7095407419971591,-0.5224495656497744,0.8040340792118205,749.0322644079514,367.88052826138096,686.625833858617,jog
8.263772954924875,-1.9024942511347949,-1.453786408744182,8.111516964571944,0.14746452099363258,0.8492697606546652,0.5468655371191122,687.9795156606135,383.44030954265617,686.1599550180515,jog
8.313856427378965,-2.3261705210625925,-1.2982086053013455,8.348282769471604,-0.5390140969222271,0.18274298530016916,-0.021673504334907355,667.4340679029116,435.4417392113436,638.7800153781808,jog
8.363939899833055,-1.0032356654025372,-0.5365427419680053,9.736707701453705,0.7523081387996333,-0.845959175065351,-0.4079322233576527,760.3824858321555,353.4827729761679,624.7130507382375,jog
8.414023372287145,0.3882453742307635,0.6760520770358547,11.41726188929083,-1.3750415815818293,0.30589172129449305,0.3843508170797668,680.3253305713868,370.55553753609695,675.5190935236952,jog
8.464106844741236,1.5918477734091085,1.373390687093722,12.015159513568822,-1.2060560900864634,0.40319754518436157,-0.18916858803191847,644.5386231147688,395.6117756271913,574.6376857338958,jog
8.514190317195325,1.8721721417622386,1.0419971338112388,11.560952605036427,-0.08363819856419084,0.09369676413941135,-0.4055434940796334,693.2701406306894,403.49020046011225,642.846761706179,jog
8.564273789649416,1.1533787137778364,0.5511406062233521,9.85366091415999,0.26903244848698193,-0.4611942081031494,-0.23462686457923612,628.4127751675269,412.7289966465798,641.03681189385,jog
8.614357262103505,-0.5509136697578801,-0.5076892525418342,8.147838968712085,-0.3415936870114308,0.7512552306008183,0.4910899889963594,613.1611956591894,411.2512002308107,613.6938516807214,jog
8.664440734557596,-1.636021437585598,-1.4614681789428028,7.68592947194663,-0.09949046023061392,-0.08825573866817564,-0.6844670965224401,571.848480392067,382.10564520713655,705.8963036571172,jog
8.714524207011687,-1.8472417729052608,-1.0291952767559456,8.694486283349768,0.6211100235489603,-0.7970707073640025,0.3121201355465364,667.8224846216867,392.7175380002204,652.228428022268,jog
8.764607679465776,-1.043053376065374,-0.732566030257606,9.900776466773868,-0.7292193899197568,0.3402610895829971,-0.5966020905849205,623.9737603132089,313.9295330656771,692.9422073568356,jog
8.814691151919867,0.9524723952362729,0.8379385794292131,11.286053402261999,-0.23827116918670949,0.7289931171820383,-0.2995306818921336,685.3105431812883,406.2771067880932,615.8056781229722,jog
8.864774624373958,1.883595808321121,1.1937841346948534,11.933908097792566,0.340771942986739,0.5290448083215977,0.06891215981025639,704.2033461106817,385.950268839887,563.3737600904203,jog
8.914858096828047,1.6498127328688577,1.1996094769035008,11.409139751168567,-0.5810554930718523,-0.9141886265717967,0.0987629933820783,707.4681823446539,389.2436642716751,568.1802195610205,jog
8.964941569282137,0.8725175055478216,0.5811333571732504,9.430095226427255,0.19518663394880223,-0.40247859782021694,-0.9332981053314345,635.1292225469927,421.07308708376297,642.9277918272631,jog
9.015025041736227,-0.3131252415816626,-0.941947561522448,8.438400824523255,-0.691983772841023,1.1403391791966966,-0.15405036050376367,634.389272271457,356.60626111799235,685.0588221993502,jog
9.065108514190317,-1.233750068119278,-1.4671420066351504,7.852700238413582,0.4535652694895337,0.40854704116457313,-1.0574203414682386,673.4219070034947,402.744197041162,636.2094158469364,jog
9.115191986644408,-1.543366319408973,-1.0854046747332735,8.332465107099326,0.5427063164756043,0.02787878760923088,-0.14448393169585944,647.6022951698404,378.303593363671,647.984462348774,jog
9.165275459098497,-0.7184875049886039,-0.0009676424362935476,9.751987303249342,-0.6184962879381118,0.31785959447063844,0.637538941566497,653.9433006817454,361.0692742127707,572.3301136572709,jog
9.215358931552588,0.5217205195976379,0.20090757084782612,11.679832707382172,0.9788827024646679,0.35010805930514605,-0.2641900013579012,676.9428850946335,332.47397406379787,632.2205732970796,jog
9.265442404006677,1.7125903747210638,1.6869306411083431,12.045405331063888,-0.9475084312627648,0.6832896305250469,0.8682472110933904,664.1988064321931,373.56696747015127,621.4491187854659,jog
9.315525876460768,1.8084708625401977,0.940060754714465,11.921426957831475,-0.4440954586581279,0.3095651059329421,-0.029444747329042373,642.2724902643697,405.9776778238442,612.4149403660379,jog
9.365609348914859,1.0003454971538344,0.036156288205957204,9.85343729548333,-0.7033019071703672,1.3723459099720965,-1.4200626047090077,706.7955572376046,334.9581630512157,649.1347656290931,jog
9.415692821368948,-0.44724860355544654,-0.24178318956866662,8.74025767874869,0.502895114332118,-1.1933702943317506,0.3494571206912645,605.5136578153626,351.1198706309065,614.2387054163878,jog
9.465776293823039,-1.0101132763326843,-1.1382449108221722,7.740514224082663,0.1749915622012564,-0.10969933394042142,0.23869819018996113,653.6492982197192,422.57456944256035,620.2085141006571,jog
9.51585976627713,-1.6799813314961556,-0.6807825994732344,8.936978828706934,0.03889177924177832,-0.16637622733420135,0.5334437996866018,730.1090250036999,377.92763193928886,561.1155336863487,jog
9.565943238731219,-0.43212993310820097,-0.31962370075844126,10.22867124983372,-0.3388973606333216,0.6022778542943267,-0.3683812182440038,731.2706737934635,353.3278987491151,584.7010202863341,jog
9.61602671118531,0.5105721828312949,0.7498699536465376,11.395506466828841,0.2392446992584685,-0.12314082894989002,-1.2051124473361905,702.942390884643,424.6962164858057,599.277076085076,jog
9.666110183639399,1.726652316988615,1.0018873807629693,12.281199875816029,-0.40442326989039,0.547292829501737,-0.8260612745418873,761.7963460763826,385.05168296531514,610.7132442927609,jog
9.71619365609349,1.7352716211691315,0.8676114292968424,11.594835848932851,-0.6350691132524751,0.9455682517591414,-0.017818768840499443,700.079656846746,399.9527957929691,624.1276788629992,jog
9.76627712854758,0.9944074300113891,0.425971303813691,9.937889029073471,0.3957339698012622,-0.8629941619840593,-0.8052923623895757,654.726276198629,412.2124442026209,559.9362685331695,jog
9.81636060100167,0.22920169030387516,-0.5326498676826226,8.2974993566913,0.47510172460318334,0.32361909575115105,0.2279296347621995,726.0407218966251,404.96227229224746,640.1361719722153,jog
9.86644407345576,-1.215675249552779,-1.493113202235652,7.77866958743674,0.8443020739906127,0.5411184022653295,0.9045796848901662,644.4316649018767,413.11101396013515,523.3310148793423,jog
9.91652754590985,-1.6807878508031708,-1.1029877038195495,8.471037700696266,0.1189653850242545,-1.2747563865617904,0.1014528192380888,622.9258435780143,411.3214012893895,600.7740144391792,jog
9.96661101836394,-1.0376187878810674,0.10869374673651999,10.199618605887537,-0.1547598776170385,0.7545082835241783,1.3509127213689431,761.0697569627446,343.59794608219437,642.3297318383724,jog
10.01669449081803,0.9386206919422441,0.37484106258010186,10.963465951663782,-0.034993597959127855,1.4720839820231848,0.346254891884356,689.9122314213596,403.75374461629815,628.0302402840709,jog
10.06677796327212,1.9468174418670854,1.2476303289094797,12.087269574695467,1.9431537700496508,0.09004530696111479,-0.5910089695924222,707.6977206260233,395.2602346916556,528.2023092702009,jog
10.11686143572621,2.1080835013560453,1.0443575163633747,11.333954352612489,0.062077393147819494,-0.3538364109435174,0.8514588379803051,739.3680304105737,328.25999802639495,632.7332663576191,jog
10.1669449081803,0.8728173584979767,0.21319737099140318,9.806149829882568,0.1731618403194673,-1.0660603847076016,-0.2888983379380538,699.6757810840622,393.5202114434171,616.1617608976848,jog
10.21702838063439,-0.05113932951289009,-0.6097535454729499,8.211254130862761,0.17775934451462017,-0.25447994043493466,-0.27660281401264253,706.8171988104638,366.4291402723064,655.7062591401251,jog
10.267111853088482,-1.3469951484022473,-1.4136621884245835,8.110624063463188,-0.7670484745589559,0.1546640310130173,0.020089864101970587,627.3992888032107,365.0006328234689,657.2454396343077,jog
10.31719532554257,-1.3775218968500287,-0.9386129272311741,8.238813833885807,-0.303631640494243,0.5887496145260275,0.6267502435196027,670.9916680986748,359.76308565158325,676.1118904167636,jog
10.367278797996661,-0.8219475688538821,-0.32229560900983273,10.391752393076457,-0.015930426186932686,0.37660533014833253,-1.737042184461939,659.2200358395694,400.44492083165096,589.5206981096769,jog
10.417362270450752,0.3084917968396614,0.7912561421311444,11.623189564557808,-1.1292462692292724,-1.7401847181680994,-0.2598631022901893,677.5193591164299,339.891869145044,575.0894917553287,jog
10.467445742904841,1.3675477879566047,1.1245933609724865,12.063152581708367,-0.05857320067363223,0.007360724577798291,0.1428543997190378,651.7308867991235,380.81191578945754,682.9519394050084,jog
10.517529215358932,1.4598193403549407,1.2256895239112635,11.217376250962154,-0.6944616148913525,0.0953055824690283,0.5702101340727583,766.965607211819,413.39981143547266,624.5911709627788,jog
10.567612687813021,1.0337991591988023,0.7849381105144431,9.616368925308175,-0.04119412400254198,0.29787886460547475,0.12159648534095614,637.4580216142548,405.48756645646733,666.5438113913016,jog
10.617696160267112,-0.9101483146550667,-0.7383109076257799,8.338808517966362,-0.46728786983109366,-0.17938096591918537,-0.308519776939669,778.5201925924141,357.0881858060985,542.3914126199127,jog
10.667779632721203,-1.7905163716944033,-1.0687064818553653,7.945148817715918,-0.17277021706346285,0.2253932764484815,-0.7033125051836587,737.2232957937391,425.8720653292651,659.5012419017044,jog
10.717863105175292,-1.949905108741035,-1.39555680406011,8.710066031670323,-0.5309116381807397,-0.05887447571319099,0.6842262090668052,645.5962924446063,347.5934047532108,646.5536035826586,jog
10.767946577629383,-0.934562444989777,-0.17134200529658122,10.265625053538795,-1.3779396587456747,-0.8917935308983325,-1.1033046346896018,695.2977905800378,347.45144554197157,636.0361313661773,jog
10.818030050083472,0.3839219707551079,0.6178098439906665,11.588603647422724,-0.14481475368561506,1.0824370242780366,0.6332667865869588,733.5646598601573,336.4942221028402,639.7445984273579,jog
10.868113522537563,1.9189884934496564,0.6037134567450271,12.293876439474433,-0.3394815618002704,-0.11787501147498128,-0.1293611723795339,701.7448694249373,317.3466729756431,670.3261680191582,jog
10.918196994991654,1.206956271544879,0.9692431665163017,11.09732546175897,-0.7389090468903904,0.39618231287593136,-0.23695619557388328,674.3388146210771,320.0523879395284,583.0125428755719,jog
10.968280467445743,0.7507668817190125,0.25092732523669375,9.792369566457989,-0.38741083405822874,-0.09309080748034713,0.02559523569603177,703.2274637668525,359.9691786287899,619.3138350723062,jog
11.018363939899833,-0.3431989133660365,-0.7478231340951136,8.370175215739309,0.8527372401477271,0.0554587374009886,1.2690223426476444,726.149219722145,382.98759259981387,628.7772047988947,jog
11.068447412353924,-1.782749682659528,-1.2082357257345433,7.4613987516155875,0.1654295019711447,-0.29657742699947653,0.5096232304579834,694.1168135882186,411.91279804673206,651.5823152768744,jog
11.118530884808013,-1.2189493982072372,-0.7443576822520053,8.539555502024745,0.4643136169556533,0.9225103704922442,0.20643874639638402,711.3293461220086,354.66526139086534,674.5125612349581,jog
11.168614357262104,-0.844302658706067,-0.21922336240840418,10.49512631153759,-0.8780631291524432,-0.4256428322138044,-0.3650811538800945,730.9352411133375,368.9470531776111,601.881919159965,jog
11.218697829716193,0.6069666096266231,0.5770579967009091,12.008197626669903,-1.3671250396953682,-0.20671893894142274,-0.3800664283885123,719.5206173612179,422.6087238158669,683.3402547542187,jog
11.268781302170284,1.2962135119584044,1.0661900855204751,12.265671428924138,-0.9419594594271432,0.9323740815040336,0.40072537649639733,707.549104894245,364.20010644555566,665.1422977034539,jog
11.318864774624375,1.7441210878903237,1.079643747641607,11.160192637503995,-0.1039742386605232,-1.0409162056786212,-0.7755234879947814,638.2500812023089,267.95292382544784,577.2899445203768,jog
11.368948247078464,0.6825731193072303,-0.0020959692227107696,9.244182687515726,-0.5221020074540837,1.0724964582904377,-0.12586535262138185,721.6645379082984,381.07497889831444,645.7247682181677,jog
11.419031719532555,-0.9747039402071459,-0.7691619703697239,7.914304735009719,-0.10585270541518196,0.16301969743185682,-0.6349327815595767,639.5649105241914,402.17813703491527,620.9491952655945,jog
11.469115191986644,-1.013092025171264,-1.0807633925921738,7.8060917920689095,-1.1026756928498074,1.9703891993185896,0.24308554590649178,650.1580638107794,467.70215262343936,625.9793409577184,jog
11.519198664440735,-1.5492177677566208,-1.173634638732182,8.650469921606717,-0.18757996449751707,-0.9494590294359209,-0.4360446057742666,752.2132811506414,442.1679819931628,592.7566434063904,jog
11.569282136894826,-0.7933660868823632,-0.19878235350397305,10.491864881919316,1.398867987078288,0.26143079514953277,-0.5150982868183477,631.8670199306064,408.55122679254316,603.639617245827,jog
11.619365609348915,0.513257838972882,0.4637749840021497,11.898780812692241,0.623362093438391,0.9445259903040679,-0.6465280317932617,750.2337985765844,331.3052262488377,689.32196846264,jog
11.669449081803005,1.547482277844935,0.8989983083426465,12.103051933313695,0.991084364620747,-0.4250472982918651,-0.11106057388690914,690.3689306595905,361.84883543756627,621.6110921880312,jog
11.719532554257096,1.410515354101227,0.8440085713074363,11.137760717293055,-0.39723581729875757,-0.8335430192579484,0.3666091625427001,732.4375274585802,335.7642992046847,579.478293255507,jog
11.769616026711185,0.9331287367742993,0.49663082982106604,9.385047575043373,-0.3650012305966728,0.13655658101845378,0.5062841870483625,677.9212555889558,382.22244781200055,628.2073946964578,jog
11.819699499165276,-0.7404074548566487,-0.8096867635712246,8.193917933031521,-1.0284568671655527,-0.5218984044943522,0.1067864698393593,779.5038490732329,409.43680862374976,705.5599512737085,jog
11.869782971619365,-1.2271549717750294,-1.6248950292815465,7.892841819803218,-0.1595378140679235,1.2495378674398352,-1.359514863342219,717.1916646260886,386.6022280203334,565.3600851153831,jog
11.919866444073456,-1.4867589573076065,-0.9918828391044845,8.65630825320227,-0.43260872552310387,0.5061370607049172,-0.557721696314128,650.5791522145947,389.97464101382553,583.521625186997,jog
11.969949916527547,-0.4266434265132802,-0.25839826007894406,9.99467564650795,-0.6655658330612259,0.5666409925517105,-0.15367969724703714,670.9858881164921,418.0960083327523,695.4871547212025,jog
12.020033388981636,0.8296197195551317,0.8257692448875387,11.220892054765569,-1.225477583386042,0.5905951188330452,-0.50955929052691,636.611439848984,336.8290715921424,628.9338044592598,jog
12.070116861435727,1.7333770989895105,0.6369429068028278,12.335945242620976,-0.006473416204508793,-0.618337741372724,-0.07461530918132524,655.9297405455657,382.3845433546302,680.2856874950713,jog
12.120200333889816,1.295749570046854,0.9324535016559155,11.778196579324664,-0.1577580094427687,-1.9868948087183607,0.9132613189997728,645.6629028761707,321.44326838647106,635.4678207389327,jog
12.170283806343907,0.8174854055715353,0.052998941429774626,9.340224412734468,0.4689999446958793,-0.32166370426517826,-1.1573737712058638,672.0778285723743,357.57525948799656,624.6992905929227,jog
12.220367278797998,-0.6924168609431739,-0.831282224662026,8.035399142860896,-0.5665526369898422,0.16074426673351386,-0.9823715999953205,696.0893243755927,361.0211102127621,593.2478371652933,jog
12.270450751252087,-1.3613441376284927,-1.6213141513762568,7.575817572976992,0.11641075654764088,-0.534326470875617,1.1376469226153707,684.0919776186486,351.3487193874361,636.2617062331768,jog
12.320534223706177,-1.6363110132028,-0.8800375759456616,8.93349746270378,0.20474691830709102,0.4597371936061524,0.7990539436938981,761.8092369035043,409.43951080940553,586.6637818411341,jog
12.370617696160267,-0.6543353080655808,0.004007504544265156,9.912219104855733,0.9463027258973532,-0.5408514225680587,-0.11168902548848106,645.1640501315675,416.2839024048148,601.3197879300881,jog
12.420701168614357,0.24869837491873387,0.7903091986535273,12.172299291718934,-1.4299966742233385,-0.07036083394290985,0.7375153526297649,734.9755065960154,319.498489329827,581.8764033526379,jog
12.470784641068448,1.5955576850503743,1.2183694696088847,11.783101763546805,0.5540530624066715,0.07081589110565252,0.8783763971692959,676.4070500609158,390.06856312567004,655.5034980810246,jog
12.520868113522537,1.34119858560936,0.702113552483832,11.04578455426491,-0.583170119604165,-0.15965708706059029,0.4285473400080894,650.6675243185995,412.1383002986854,554.8440639314665,jog
12.570951585976628,0.7281327757935102,0.17416277353985177,9.968417261704772,-0.38778873837788574,-0.3507081755100888,0.45200321344695615,670.0724421764342,404.55947750587336,571.2889270262907,jog
12.621035058430719,-1.0608899888841246,-1.0708274142490237,8.402361002602134,-0.7463638915399783,0.4392637828353877,-1.025972636409863,722.4578631948192,285.3103150635472,671.8589358225071,jog
12.671118530884808,-1.4624204039241315,-1.6355784120453911,7.476193298449226,0.32203796312661337,1.4442509641091714,-0.8768890357162777,702.4061791173907,371.6935397801116,615.4844658362148,jog
12.721202003338899,-1.3997768841272298,-1.0522537952756112,8.215427621643077,0.5626846206070851,0.14983142035508284,0.8433638456113098,746.0635167789852,369.2884680298516,590.9948277778569,jog
12.771285475792988,-0.7488150685990175,-0.3444545729230003,10.224415289305423,0.6466775389016918,0.35169199888789837,0.33565000793576705,662.2173117458547,356.138131792122,617.6368741933694,jog
12.821368948247079,0.6573651932798943,0.24339802043987452,11.875923317569319,-0.14236038961787373,0.9573347467715295,-0.4452477359491429,590.7525421921689,391.86171024415734,626.1563596848091,jog
12.87145242070117,1.892519726768157,0.9830008402836137,12.231213446427693,0.11018591170550684,-0.42520134635123297,0.36692502726583304,671.7227121355706,365.51268902496565,627.7546817103976,jog
12.921535893155259,1.8308947017470174,0.5762408072670868,11.429313354469434,0.3891849839144055,-1.074597063782633,0.9489412900182811,595.7090828573798,392.95212323366644,628.0796030498069,jog
12.97161936560935,0.4025948665887551,0.1620555184064279,9.743980939017305,0.831957939720858,-0.9189720378681738,-0.9939055631524082,735.3366742662687,381.18076595773886,539.5859421962343,jog
13.021702838063439,-0.31244907106307646,-0.48782172858652495,7.51680501490156,-0.007840537865560862,0.7692835662390185,-1.0935101686008415,645.9486640812855,377.1842794744941,612.2682292440535,jog
13.07178631051753,-1.1860602786813987,-1.603460040640197,8.033913947612195,-0.051656626736977206,-0.08910122657386516,-1.3980337106393668,771.4360237324024,394.39709567868647,670.988915491013,jog
13.12186978297162,-1.3327378553822942,-1.4243106541751052,8.532783229826515,1.1018149716368584,0.43094175563928294,-0.15114724058057213,770.780128149214,371.9296263551557,592.2574018518883,jog
13.17195325542571,-0.4214768160801368,-0.24408107850898017,10.07206829166979,-0.4289934845901704,-1.7603560771123352,-0.5897202827520446,692.945324036639,426.6051955110776,664.4487350105869,jog
13.2220367278798,1.0131779000418517,0.5988949634239371,11.904493657198007,0.6113061153590952,-0.4791944622130565,0.04218223181832271,742.4465125783466,403.53705559727086,550.261290569367,jog
13.272120200333891,1.6088395878352268,1.2795774245772975,12.28138608946878,0.8183818847903306,0.8623439595201806,1.0448024326000147,686.6301947089577,388.5777094103845,652.2222523001061,jog
13.32220367278798,1.5044369507679565,0.8039628179893372,11.26065626583684,0.17543954649731328,0.48803249411839267,0.14698556409657249,753.8357395143116,324.05758986085266,660.6636550560398,jog
13.37228714524207,0.8916828536718022,0.6206855650477536,9.803875321533129,-0.21423839987250745,-0.1623716461039575,-0.865638611192741,681.0105612405281,420.6084652736887,608.8713605042688,jog
13.42237061769616,-0.44468877976431037,-0.5261920922778458,7.741806162075135,0.36108302354442495,-0.5710298891944834,0.05443687043567409,654.1405602211964,396.78856741730385,671.694290733754,jog
13.47245409015025,-1.0737010106496503,-1.8391775445644198,7.962830866147414,0.2597719292767391,0.9105807213179904,0.561615672746367,721.3825136984905,396.6252776860372,667.4278432615563,jog
13.522537562604342,-1.6138901121558302,-0.7895233446987129,8.997525308982063,0.3305171559858865,0.555474355610413,1.7615856860597447,625.9066555819727,448.1792016676284,587.9520518387071,jog
13.57262103505843,-0.9617078249254242,-0.255825574684323,10.239947219557598,-1.1603787346765588,0.030949907188593508,-0.5104740049333745,668.534217808476,376.3142531534819,596.4875964535331,jog
13.622704507512521,0.6569552702566673,0.37519207292826484,11.893099853496574,-0.4802282976788912,0.024977203930102373,-0.01814691221887155,724.6845280162468,386.8376586061818,666.5200234598276,jog
13.67278797996661,1.571855204902633,1.2911668449333882,12.258686558803843,1.0344225484459908,1.4591562420127,0.35339580011677685,707.9604139353742,413.51678695042307,652.7788531086632,jog
13.722871452420701,1.688120631286898,1.1100410740863935,10.98390298943907,-0.0002059197945644792,-0.3827913890203637,0.033355751389572086,708.8322190136183,383.41042716068984,634.6526585519455,jog
13.772954924874792,0.49828556402192503,-0.07740581566833885,9.53567971196161,-0.6355747138735216,0.45177991819537244,-1.149679465214432,646.1988132532873,425.5329854072327,613.7048586301208,jog
13.823038397328881,-0.8631255757422994,-0.85892010165344,7.959579462968823,-0.33116481107128753,1.197434391262098,0.3445799420698416,691.8800460324088,336.25155599238633,587.3576669027427,jog
13.873121869782972,-1.839964234277956,-1.4268165573893672,8.394924234330043,-0.5329003771426355,-0.799414698224389,0.6609447029085903,632.4275775110857,340.116516271635,644.5985811468513,jog
13.923205342237061,-1.7339851626562557,-1.2905733393290648,8.671712093358535,0.10987480986637341,0.8001640532226856,1.493870399161283,666.7400435990496,425.0655657899774,629.2523289236143,jog
13.973288814691152,-0.9301702817139484,0.04812931065735343,10.425112506667393,0.49486669153246643,-0.4587535041616032,1.1615703725982423,740.0273679001789,385.1172830529486,672.29895539347,jog
14.023372287145243,1.1441178266777763,1.1331474731916438,11.694252654121545,-1.3234884637268751,0.3205872459314199,0.582457000955301,721.5965249741422,447.6937533545017,604.071183528645,jog
14.073455759599332,1.9261801283110245,1.3833977885648818,12.073864303117361,1.041242272460434,-0.3433660178381854,-1.3496268322287217,728.6302972764548,369.6852604214444,590.9689104625779,jog
14.123539232053423,1.739476161916063,1.1730075370123032,11.19138581103453,-0.8769045992077789,-0.9240103113720775,-0.10922322660122527,677.2955771572259,377.62349641709574,602.9210353032843,jog
14.173622704507514,0.8621466765814378,0.15411425619004449,9.042352783339554,-0.655840477510131,0.47318210635306424,1.0041308415845396,695.7352197655571,377.53870782018134,595.8735990544037,jog
14.223706176961603,-0.5117405184998403,-0.9317013314954925,7.930007070404303,-0.691890548884954,0.13349279943243508,-0.8645740501593029,694.6453778487244,424.7127522656844,591.7035114840193,jog
14.273789649415694,-1.6324658884288115,-1.2401826504605515,7.791852942716487,-0.3546112987615342,-0.008416429966583379,0.16999273714901753,624.8030525047751,406.19569228425866,572.2456407599129,jog
14.323873121869783,-1.4724509042372473,-0.9831755709580083,8.374236078405133,-0.6989512348795722,-0.6899549710295072,-0.3998832487631567,653.5333406007846,389.1259839218295,566.7813928514997,jog
14.373956594323873,-0.22280358226519148,-0.39994290770748286,10.310086783858837,0.1793077569426972,-1.2080513632912486,0.12047757104618555,693.5870748935602,381.18880935992803,599.8944786967977,jog
14.424040066777964,1.1652278782696746,0.6851095184375795,11.60733927604348,-0.8577512290441336,0.7785820567154002,0.4165595639239224,730.3423848792447,336.7159761026633,574.3493119540476,jog
14.474123539232053,1.3114039811190157,1.1242170326820144,11.830441214358402,-1.1959550212541488,0.13306696580120259,0.18310481873039539,637.1549096148115,416.8301126042493,629.5994423864497,jog
14.524207011686144,1.9647137003352046,0.7692266720283258,11.591471739458523,1.832482379426377,-0.3882778595652744,0.18455980895126942,716.5080935713862,347.30601090641466,645.704095696977,jog
14.574290484140233,1.2024170242550887,-0.10851047202886387,9.33351943231906,0.3244868829147458,-0.7107863526272851,0.5657941682004537,615.373527323725,383.8887276305835,593.3317846787534,jog
14.624373956594324,-0.4068301766669426,-0.6678481629507409,8.102478697859292,0.46360872833276834,-0.28955225499143006,-0.29535428043048384,631.5008414641363,325.56425258791984,666.9469778693453,jog
14.674457429048415,-1.605934319317064,-0.6425146873439647,7.574132351930645,0.7586351693519284,-0.4965753021439599,0.1973153540530241,683.1742855311529,448.55435689874446,624.1042523858139,jog
14.724540901502504,-1.4795148447155952,-0.7881778681617511,8.386490177913716,-1.2336930003765312,-0.8486720351102139,0.42841091306449475,671.5211640071839,353.1150070290279,650.2116736239611,jog
14.774624373956595,-0.7498645863628831,-0.03259433817691476,10.193479995599853,0.7720329012215656,0.5393768854649673,0.3770886809108235,697.8764011732509,385.4263954213292,648.0001071564777,jog
14.824707846410686,0.6324675136915711,0.5652906272752163,12.180085053433698,0.9716082037371567,-0.01648306261180564,-1.014138328451933,687.4016830863878,411.12380084253266,675.3471440438585,jog
14.874791318864775,1.7750286182109691,0.8493302866164483,12.007463628031967,-1.2650820181962315,0.26856101474801053,-0.10760937446734485,695.1770044217076,423.7686098809723,588.9623633583928,jog
14.924874791318866,2.228714231563634,0.4970389908854654,11.108911486897853,1.1169253159967305,0.06329690731502172,0.4067870454687203,662.2648455944205,413.6033316109928,572.9061216076548,jog
14.974958263772955,0.6324085367835242,0.12630896912003858,9.706050615161985,-0.0998121326429617,0.12162299922368619,0.2642025660346887,662.3864605124398,394.20647808199556,660.1778095536548,jog
15.025041736227045,-0.5769826923680232,-0.5234585802610185,8.391868319671167,0.5891840449295708,-0.5398311402550743,0.628955561253798,682.8088182302772,304.37931443825335,632.9957462737899,jog
15.075125208681136,-1.5806922387872655,-1.595822064444642,7.428135517857844,-0.21640903896377242,0.23216872112514256,-0.4498353808311339,739.779359477253,417.70824220056073,565.1865256314541,jog
15.125208681135225,-1.296756531461915,-0.5261395372797713,8.733779961023538,-1.086313959325191,0.3281339602612503,0.6092704001050786,681.9083106541672,383.8749082930605,552.3268820161716,jog
15.175292153589316,-0.8834913091034081,-0.5218439823400437,10.113603165530701,-0.20788430015325007,-0.6404468171296835,-0.5100701967598636,630.2962794975364,367.2378506774697,683.6849232129617,jog
15.225375626043405,0.61848368191005,0.4192709524421003,11.865637220386205,1.5992863386803706,-0.6845375457989106,-0.4901979500457346,750.6725485348919,377.8811599491101,690.2256459213828,jog
15.275459098497496,1.892115298298899,1.4324511720989603,12.504706435285563,-0.9428060110901755,0.06787494405279616,-1.0320385512558348,706.3856733242321,310.41519327123535,611.0463023339352,jog
15.325542570951587,1.5769625069967115,0.7767081668264182,10.735460641998593,-0.01611009736213011,-0.3663844017229814,-1.1331288168073768,695.0665969644434,308.97792271702826,677.5244813610028,jog
15.375626043405676,0.9138431373955799,0.4250765152914479,9.418496144240564,-0.545585116847242,-0.42183872236377534,-0.7811999028927701,677.582877417534,448.640318070573,654.6076518329197,jog
15.425709515859767,-0.788696699291567,-1.0800547531744362,8.13047456932681,0.42455173667085666,0.47586994949546835,0.13597447369794766,646.4638598916264,399.42848763164636,655.7885201750682,jog
15.475792988313858,-1.437018071338406,-1.4742646020469763,8.114348249288584,-0.06860520368979008,1.522091491340341,-0.5409937252693111,671.6186693037403,318.5390283646725,595.3359620617048,jog
15.525876460767947,-1.1889457871671487,-0.9557047439438315,8.801477851734143,-0.23164162184981626,-0.29905769805032123,0.7685444362291199,669.000639225936,466.1438684985917,640.6020836479016,jog
15.575959933222038,-0.8865491075526105,-0.7954267386442562,10.459800811326662,0.5740421962309528,1.0263052229808627,-1.027309952322021,685.8921794774393,395.4510936104661,637.8843176366573,jog
15.626043405676127,1.0393041472338975,0.8927028414457325,11.83820280433459,-0.6355960723804858,0.3257274852399058,0.8999244106827817,685.8897436685646,298.4229136920927,630.6580144224336,jog
15.676126878130217,1.3894031323448743,1.581766520400528,11.945935287022627,-0.1558593808676818,0.6386582150194403,0.22400701884571017,687.678539347948,353.0616830859949,671.6903036999054,jog
15.726210350584308,1.8786030709539285,1.2241748740781127,11.156369871762505,-0.8985681698840287,0.7249189579166314,-0.5937754353976678,682.2630912432791,403.74710021734484,654.0197415259958,jog
15.776293823038397,0.6186558364677244,0.04045585898519258,9.312927740851803,0.12257401792593614,0.20551231624273292,-1.283148397834347,714.9529362277896,377.7586668216898,623.2623106851723,jog
15.826377295492488,-0.5349093912060061,-0.9271263889464203,8.285727283378185,-0.13952440460772458,-1.691014232458556,-0.7792364466075853,624.3673729025261,440.4972610794638,635.0310032609093,jog
15.876460767946577,-1.7458755911769348,-1.5404118552822446,7.572049550258701,0.1102708140721684,0.12917575458340627,0.24458318897162856,696.4142820841162,372.66002934087714,654.7811968056845,jog
15.926544240400668,-1.153440605407929,-1.411783068438627,8.767253660746176,-1.7512697349321926,0.4959002281761536,0.3309349935991211,636.8911840725526,409.1878111486877,653.6457474868992,jog
15.976627712854759,-0.9795315020024763,0.07941837686730199,10.342978145800949,-0.14591958699994595,0.5401975732610802,0.4470056759849759,646.7423972655242,425.9586989663919,660.3240279160658,jog
16.026711185308848,0.9103173342059546,0.7371665699069998,12.092361985268314,-0.8855564701871702,-0.7992864488789311,0.4394084879770259,637.159699173926,404.5686451623893,706.2075695824888,jog
16.07679465776294,1.887246184230139,1.1474539625777869,11.654826810479877,0.48287743481528855,-1.1292937684894007,-0.4470125144732385,778.1935317208286,397.5889847027375,672.5468579014898,jog
16.12687813021703,2.4651491782730526,1.1585782899292942,11.42327453281125,-0.8491481290204395,1.1166084923048598,-2.33405749690034,660.125713937416,482.3317395769767,682.4123566665043,jog
16.17696160267112,0.6914849854671464,0.07441767205115868,9.39412211174342,0.18457679655120968,-0.31960342537888725,0.2612697007220158,716.7853159078013,441.7439866449812,586.1732441674574,jog
16.227045075125208,-0.6194205352893497,-0.7511501864272416,7.844630594714227,0.818197441994818,1.3712151824525654,0.97350956981329,790.6178243468943,421.5967981941828,594.2561127253108,jog
16.2771285475793,-1.7133256494480094,-1.1896876877493463,7.78184345983383,0.8618584237403653,1.6163434171551945,0.4996127255153627,609.5527735189631,424.48594285087796,578.9712055558216,jog
16.32721202003339,-1.90693797028471,-1.2988253444724525,8.471532460728195,0.08593533958600812,0.1959532145437104,0.14320559909678288,735.9937880218735,422.1527296737562,642.6969912177382,jog
16.37729549248748,-0.7976729599906177,-0.4185329680132599,10.48436229933712,1.007497762052283,-0.43605161835270434,0.8038395328597112,665.0587611670354,416.3421575693571,648.5643988368904,jog
16.42737896494157,0.8174898703913271,0.9747551247923054,11.470828504755351,-0.20891020029106314,1.5032749250009196,-0.0927972411500352,656.2212240732362,422.70667254985835,608.9793144768693,jog
16.47746243739566,1.8643529777570498,0.9917995740786023,11.928359892671201,-0.19925370062914594,-0.27206001023805576,1.4652229676041613,664.8249933033419,361.4546788702761,547.0150884854338,jog
16.52754590984975,1.8038570912762029,0.7858451659929744,11.081009522713824,0.8013072955079382,1.3436077805137963,-0.46422762562404557,713.4779104072858,408.25335905117817,603.5816857869919,jog
16.57762938230384,0.39306912522086135,0.06438100717788914,9.717862800368714,-0.958962985973657,-0.4431179709197139,-0.548666939770905,656.4611363529169,455.3889491189583,574.4121956563843,jog
16.62771285475793,-0.8227671205930099,-0.6150646750639628,7.621827014131545,-0.6733919692528112,-0.5368263315618107,-0.522618469500124,642.2498517358755,395.1209077113835,718.5295242277922,jog
16.67779632721202,-1.4433209436681662,-1.175384292434226,7.720256887202959,-0.28822229868388616,-0.24769649365923765,0.7905296997145794,687.8481401281351,433.5937313229915,631.0290518670427,jog
16.72787979966611,-1.5499422190294987,-0.5725291934110739,9.115171635071654,0.9341490466079746,-0.16863920361563325,-0.4587146431331812,713.3070587281601,378.2807835191903,620.6112723482132,jog
16.7779632721202,-0.5051420741379182,-0.0786359045440172,10.481253178300413,-0.8686976868610914,-1.1772130197841368,0.01695185232086236,715.7366334013278,347.8363177876805,663.1638350335702,jog
16.82804674457429,1.0446353745654304,0.6662771703333772,12.372865457381215,0.3699165612081191,0.9375845226558353,-0.19018780725085724,693.2795971318757,424.84881365582834,625.6804446713872,jog
16.87813021702838,2.088215063641615,1.1544244841322255,11.936612733684672,-0.20316694738271507,-1.2262082363868505,-0.5439290524632723,771.0283797098709,378.5810413199024,661.3416004765415,jog
16.928213689482472,1.7887546520224236,0.5757477733910625,10.83719706520045,-0.9277618701613182,-0.9523641122164572,-0.25285845789777095,638.202794813335,420.1335286892849,670.8287492286681,jog
16.97829716193656,0.6143162427774106,0.00573181845807301,8.88890989370615,-0.4453845860157382,-0.2652696323963057,0.8877684629132616,691.9501217459642,348.982895496461,621.8090543156748,jog
17.02838063439065,-0.7282606574522777,-0.8318758476111219,7.684137816632804,-0.47089043871072306,-0.09557550420073764,0.9865961150495418,738.2366497579784,376.3317434920614,597.5472560597516,jog
17.07846410684474,-1.50605150779153,-1.3160057705699346,7.861496072466611,-0.9617850151544224,-0.1322730968120388,-0.06021352015368883,733.9622495725536,357.77160542641303,563.5551046551427,jog
17.128547579298832,-1.7101549368129245,-1.4347043187407005,9.0490529805802,0.4207805037055378,-0.9742045883444457,1.3615625546435173,719.2942873410212,398.2103081300337,557.2245385569281,jog
17.178631051752923,-0.5900872680788499,0.035614418309823315,10.789255951631638,0.18737342363514678,0.8895390946066654,-0.3445042916114534,737.3318473859252,392.7663214096276,626.6602910277368,jog
17.22871452420701,0.8616794112778531,1.2069585906496625,11.641985362508066,-0.5916926038059006,0.2385643521244184,1.1966803036385558,641.6641023284434,410.0996661519918,645.1518705058195,jog
17.2787979966611,1.715491244690151,0.9330625928980629,12.104844746079575,-0.5369248739610631,-0.4074121748713828,1.5368722381668967,686.2294032717168,388.3358780832518,555.8566605056026,jog
17.328881469115192,1.438232853490631,1.0712037825650222,10.875734422814922,-0.4475952050941331,0.16188018690559966,0.005080609758867818,656.0924279011804,389.53585061752824,617.2479978560027,jog
17.378964941569283,0.8108414226006492,-0.5353615760636745,9.281919251191757,0.24314347892198285,1.1177700436000513,0.42488274340122667,658.5918991797195,362.53162171010183,630.1405099600022,jog
17.429048414023374,-0.20051088045259985,-0.2818516398219593,7.984688012134531,0.06361408907428942,0.25095049844200606,1.1821565110661756,726.4928731331382,453.96851717309846,615.4217272123385,jog
17.479131886477465,-1.3610167442614856,-1.1279455131000207,8.198582428582963,0.5309705193125716,1.3863741239795948,-0.5966465130705352,635.741465349981,468.0715763028131,620.428629469035,jog
17.529215358931552,-1.6062202288235876,-0.9045719348742811,8.485497834464171,0.02353053173547183,-0.49650305861330174,0.12195436474011344,658.2953515137503,435.87603047012624,603.841480367246,jog
17.579298831385643,-0.18650794157694922,0.1905234429233646,10.323761629356046,2.4504912905647522,-0.8832441157534112,-0.7418259450541007,606.2216279224319,409.777283568133,589.10562289721,jog
17.629382303839733,0.5919576529141325,0.5804588877459442,11.879122093955349,-1.601369995501226,-0.0031494824474493353,0.3586438599983123,746.0704786460365,365.9950715787061,632.1028685933184,jog
17.679465776293824,1.8958412791737205,1.046205419540216,12.012681239981342,1.3828608037036938,0.3369008221824379,0.15590331246058892,741.1493066971228,390.24923488662057,614.7165570189709,jog
17.729549248747915,1.854913470665772,0.4449399608917373,11.066026022311448,-0.103007773069971,-0.5150857422627083,-1.0149322607548998,683.1504427411511,421.31615990600073,617.4330166621257,jog
17.779632721202002,0.9554329519428646,-0.0015675845593442275,9.577054220294919,0.377426839150741,-0.9371692765187295,-0.4493127940829191,646.889301826396,396.57353359250016,626.04114854125,jog
17.829716193656093,-1.2060004621729057,-1.0164570067721859,7.555917902270135,1.4269213692342002,-0.40531998616887643,0.6944017696007593,659.5678323853817,380.9419947765789,626.0723038353052,jog
17.879799666110184,-1.6134399718753678,-0.9811640845327043,7.908685898959407,0.1766043820134371,0.12365901182479881,-0.722380725974867,728.9424697260434,404.4648877368461,663.8464454848387,jog
17.929883138564275,-1.557833061572841,-0.6920848205573964,8.733730133336898,-0.6538173903487725,0.10540047875419505,1.4172764906634578,792.2881288164691,380.5327043046162,658.7938511768034,jog
17.979966611018366,-0.7543361649359573,-0.01810805688644289,10.548645467246699,-1.5280511294832064,0.17403426502444294,-0.5827604636837789,660.3375431334728,335.8415163926032,633.5038244681316,jog
18.030050083472453,0.7097850740854844,0.7253309219897428,12.113604307217098,-0.9840320271766548,1.2327375373273648,-0.8954462974980786,661.9355924210658,305.36895748790386,616.9981436280384,jog
18.080133555926544,1.2205122859327657,1.2818166677785843,11.976210884718792,0.5614617863444566,-0.6393865449345015,-0.1828976516004019,771.0067948094868,361.76112150898456,658.3519659980414,jog
18.130217028380635,1.8288210314676685,0.3786908316170746,11.59418861309362,-0.9703887609727292,0.15786314741325405,-0.4613457786726143,682.7324286200137,410.00846756855225,651.0305079467319,jog
18.180300500834726,0.4742280736198323,0.3360201559316735,9.53828872911112,-0.7191217809690975,-1.5776233717709762,-1.4564063624197672,727.4316076203853,354.0176906291781,644.258904813607,jog
18.230383973288816,-1.0141705366580684,-0.4309079936171084,8.276318938777692,0.7203332594646858,-0.25370154867623973,-0.2649417804407228,728.5335631651124,408.5042799043489,600.0553126586589,jog
18.280467445742904,-1.8386549669671135,-1.1330645156983554,8.019266955498587,-0.01379773117305437,-0.11985911422053601,-1.3984337484215932,652.2094211393205,421.23171354253134,572.6221842729315,jog
18.330550918196995,-1.552903567781645,-0.6478704311649282,8.93666508486031,0.8090347086184133,0.8973660121110906,0.7530490732055654,717.1250508975091,390.66665239579714,600.0238533916395,jog
18.380634390651085,-0.33500162949115403,0.22780595654441538,10.739560679264686,-1.0815619229975189,0.3789115804528977,0.7039608315882319,713.1511094160253,428.22036495274574,580.3953635136729,jog
18.430717863105176,0.9192276889012139,0.7426922216183662,11.739998106944011,0.508034184060343,0.1452143193652933,-0.2740081987668653,665.3441444724923,445.14580487085675,595.4155000095452,jog
18.480801335559267,1.9117444158188301,1.6398311678144404,11.565914621986058,0.10970118273112985,-1.1477998360452466,0.31561744186898716,651.5626040046329,394.85037510224277,594.5940217973716,jog
18.530884808013354,1.6974507775386194,0.6468818589493368,10.858210914692089,-0.10602991830061231,-1.056906324350182,1.0470952188905989,689.246164710196,380.568019352558,589.9791746593031,jog
18.580968280467445,0.28046016862364104,0.0735318180830839,9.459952515888036,0.7331000569763275,-0.48243406455522886,0.42467376337392093,666.1941717304386,375.95131196244995,592.3215581136924,jog
18.631051752921536,-0.27222158204386465,-1.3031642838305035,8.018263799105073,0.30529662551807435,0.4948419015675228,-0.9500392053013101,673.881855870443,412.97022614029464,677.60580766937,jog
18.681135225375627,-1.6354501129165966,-1.2979432430802083,7.145850089405594,-0.8209630720898494,-0.5430628956982141,-0.2725665057025067,716.0201561151266,453.77486893881405,645.5964838760636,jog
18.731218697829718,-1.1259654107965722,-0.9273188396792529,8.988683793439337,-0.022092937418921092,1.0384267377041414,-0.41817965730283047,642.821601733406,456.4994373238176,550.5000875315191,jog
18.781302170283805,-0.5545540930115104,-0.5185686427690847,10.073941637737125,0.32279313124001785,0.5893980508934819,-0.991067040350418,601.3821564125176,393.70368476185007,616.4720904787848,jog
18.831385642737896,1.096387418765903,0.35360661788036946,11.860579094865885,0.584549130971821,0.8125766655684957,-0.2049901510107123,767.0882208759197,408.9590076357682,638.0053151444679,jog
18.881469115191987,1.7262038317692072,1.0712984437523574,11.642720109381429,0.1783698986890101,0.6602668931390223,-0.23925680707305055,696.143542521633,409.94783629061527,713.2959502418931,jog
18.931552587646078,1.7922556790965036,0.9343956324653504,10.816991686697596,-0.24160425098139246,0.21438035358119684,1.0030333339946051,699.1300794748169,413.7087301938544,670.0471922907043,jog
18.98163606010017,0.8906532751696515,-0.15636712283671916,8.730997789781213,-0.7783706268802911,-0.31298501177805016,0.7870457461748233,747.0943292884481,388.7936168943996,670.8704438127969,jog
19.03171953255426,-0.9054955278108653,-0.8748387599165843,8.036710269235646,1.1227899372738694,-0.34599775087472695,0.07217252658022962,631.2734490873561,351.4498006566772,598.5684297982876,jog
19.081803005008346,-1.6437055226432284,-1.158493987451773,7.98038115287836,0.42248657261465855,-1.7740163411906509,0.6826692753123946,755.9664638274487,432.28045559415386,602.9028147039324,jog
19.131886477462437,-2.267073325547543,-0.6335163387805249,8.876907869854147,-0.2314660379861511,0.6080750676806711,-0.004958259574431632,746.6270067306326,410.8339960668892,638.7771508260214,jog
19.181969949916528,-0.6248549939374973,-0.2634765825674743,10.361622429757997,0.3227348990202741,2.1654821945313025,-0.5141030379634655,674.736181474966,351.6620928091094,632.5271892598882,jog
19.23205342237062,0.6848452300159481,0.6144433425301135,12.07213554468213,-0.13767193677066117,0.9441890188770738,1.4539308043864039,636.9853496234159,466.3212155292208,534.2309298876985,jog
19.28213689482471,1.7624092455418594,1.0576022533326968,11.857612943943403,-0.8218042259134966,-0.32726057526946206,-0.029121859958109036,663.4131667259074,340.92148819815895,652.3826011345813,jog
19.332220367278797,1.7367086831562593,0.9709023712534086,10.802603302459698,-0.4475410501020903,-0.154098027321322,-0.9039955374086261,724.7735678842092,359.44515921705636,650.5887749618802,jog
19.382303839732888,0.5003363298771581,0.08609560630560847,9.264950602038637,-0.28333121692165913,-0.6169482954530859,0.7864209711562616,694.5288511173175,399.59428391869676,604.1584547839453,jog
19.43238731218698,-0.53997342426334,-0.3996954475164462,7.995207842895266,-1.082444856877665,-0.8460870909771169,-0.25083480729463886,729.1726996675654,323.75070189255695,607.3923352086981,jog
19.48247078464107,-1.5312353782994537,-1.244163751689193,7.575950406138345,-0.2960183230833402,-0.42705867785822865,0.0988593964036837,691.2146437861159,403.413778074003,633.4267713318484,jog
19.53255425709516,-1.3891285934361193,-0.5081601390987819,9.303639311451995,-0.1367737265839146,-0.6705977251778201,0.08046688626685554,646.6346641896664,333.61065779226385,572.0968265367176,jog
19.582637729549248,-0.5421557710848534,-0.10644653379337872,10.540542818076249,-0.7142245403038457,0.6945023491723616,0.7917653890663714,668.398821948199,418.1448951163189,676.345585831428,jog
19.63272120200334,1.0878722174927247,0.9325067449081237,12.042259117925596,0.42898376715365594,0.9977190992959982,-0.6995888316756257,663.4793659180025,409.36381433380654,684.877128343148,jog
19.68280467445743,2.177738016739756,1.3191042131552726,12.130174150578194,-0.9438689591094193,0.48161765208540647,-0.3665827556002389,723.3514697334762,413.19975109569816,606.7967272364427,jog
19.73288814691152,1.7657681756609767,0.7129497211645752,11.530540770109942,0.3284991381194705,-1.1779794662086913,-0.947530094728893,698.5357574047149,410.7714877900875,674.9920278096746,jog
19.78297161936561,0.5228460567525717,-0.9650109653166072,9.024898635674834,-0.38700601181263145,0.6460067097775274,0.744270842878868,634.36503735063,355.3457184124196,601.9543399204053,jog
19.8330550918197,-0.6986272548712683,-1.056310064852901,8.308111026325541,-0.1293903694759594,1.0609127379022583,-1.0550497115339352,652.4465275738248,354.7454925323897,667.3508130987402,jog
19.88313856427379,-1.4188495391391847,-1.1302238155196582,7.900107403435048,-1.620862966901428,0.517218867321491,-0.6561398793210502,682.0177730601887,341.2370171775123,670.0599518645055,jog
19.93322203672788,-1.521512893938779,-0.15300748931840352,9.096397815948443,-0.668228665081498,-1.1706246186592122,-0.006791624770319845,680.951414174895,341.4732126569663,584.4523177280909,jog
19.98330550918197,0.02310907169465641,-0.14401744290522345,10.425799354017263,0.502720030243425,0.04281332022164067,-0.28996862797250367,765.281556816057,296.9539521956286,623.8385310516492,jog
20.03338898163606,1.0683855463784737,0.822787470144337,11.647281458742535,1.5679715906537313,1.808747568355944,1.1597267814317251,669.7986933655616,371.37596075158615,553.9360187624802,jog
20.08347245409015,1.7472762755029296,0.8301217982216871,11.890152033671741,-0.42102838108461715,0.783421897578629,-1.2876525562887997,774.5429933714557,440.6877160452558,586.307016909174,jog
20.13355592654424,1.8445885899528431,0.924377992504215,10.811915332125867,0.199067457669229,0.35913265607430167,0.46291679130940216,696.4442014869221,340.9935594567724,588.6805320525361,jog
20.18363939899833,0.38763541247351396,-0.23758038637954892,9.339882588331852,-0.6129878613786464,0.8095942908447034,-0.8104171456594511,714.4005338763976,401.4480488339603,616.4323285788686,jog
20.23372287145242,-1.0609897174850256,-1.0598672664990714,7.961914057815847,0.4769432452484757,2.1502378448471173,-0.35052240571635906,721.276697195769,336.8500308305787,658.8417072673487,jog
20.283806343906512,-2.3556749450944534,-1.0728998730369637,8.033666428637384,-1.4121230157726141,-2.0706753650879373,1.5477558290520506,718.5031325494571,366.8370639932228,592.8026471307551,jog
20.3338898163606,-1.3072596826227216,-1.1409740037278586,9.248012738271505,0.7232137450582963,0.20378615938516095,-0.4769530639078621,716.4718887108775,421.52635171900465,596.7191679171865,jog
20.38397328881469,-0.9432893608677796,-0.0595929718907497,10.906620292575875,0.09308502741906367,-1.497544348278814,0.2364784298967137,592.2783219564445,394.4132300274782,623.5560573130563,jog
20.43405676126878,0.7139851463550376,1.0732200424036196,11.936294326785593,0.346985483769803,-1.2196411992484526,0.06957638886550854,627.6178582555522,334.894665949287,591.0023039483597,jog
20.484140233722872,1.6598417761520239,1.1866619801165712,11.910290787690451,-0.335303645363075,1.067332837580497,-1.239159283934098,670.4458528335614,372.4218402475125,602.7000720972694,jog
20.534223706176963,1.833051382925915,0.5351905456605077,10.638590302889007,-0.7974152952006063,0.26958541463136326,-1.073363870217484,596.9747243627673,375.7928697433452,625.9209007095228,jog
20.584307178631054,0.4816008885826164,-0.6934250067333838,9.852779292974587,0.6811293949565361,1.7727843233867242,-0.875957995762616,592.2687928159924,324.9057377707664,597.9842167463738,jog
20.63439065108514,-0.6120249518821249,-1.0424046428089138,8.158559580017648,-0.1386455257330646,-0.8436403126028083,-0.23684178635276198,723.0244882856601,444.79218839057296,584.188993360392,jog
20.684474123539232,-1.5744117672349125,-1.2885066928761857,8.452954804917528,-1.2986897863881486,0.12618780817689101,0.10732431103686642,764.8513131989428,415.27815021123575,622.6952067964378,jog
20.734557595993323,-1.3734816599058643,-0.6374761095105086,9.368617899781993,-0.5908304249416166,-0.14769277653860063,1.4701004578251913,681.1397237286053,403.97081952349225,549.1784826924214,jog
20.784641068447414,-0.574700867036222,0.1137949290744964,10.583980163553496,-2.357234781009634,0.6048317999162198,0.2866511253437244,633.671949344409,372.97522977636874,614.8508749361098,jog
20.834724540901504,0.7921681794670785,0.8011843572373059,12.159591921804358,-0.2272386016153016,0.23692070108307017,0.4216309271661112,581.0963473985523,397.8308983467011,630.6273751566623,jog
20.884808013355592,2.1142004857929617,0.6221266524305995,12.12446375365256,-0.5530623109546176,-0.683202860893013,-0.7752984824961271,647.0464328747952,417.3236884612103,665.8447957618716,jog
20.934891485809683,1.3840645369753686,1.0418073002098536,10.710133751155668,-0.157700822433455,-0.238176839703181,-0.30240491845811474,610.8922435684785,317.0889327608652,582.5249904397358,jog
20.984974958263773,0.2724135590034172,-0.3186176863675452,9.324736578560422,-0.6374541845845735,-0.13699090971738595,-0.09016505663156729,717.3438647242359,331.37589390949506,617.4709654210823,jog
21.035058430717864,-0.649137757191685,-1.0486887391485802,7.694897645621025,0.7054039389335361,0.8316208894211504,1.4852151074880167,690.7498946816042,316.4480320523716,580.7494820153828,jog
21.085141903171955,-1.6482911605199666,-1.1694624246651546,7.97042676894937,0.46935378042196146,0.5510749446233688,-1.4317123706926949,724.2053734369754,419.20824717426825,589.4069001879975,jog
21.135225375626042,-1.0432190805257737,-0.34988934152237966,9.110139336149592,-0.1624267773528212,0.34383092965757683,0.10582812935748254,699.3030527358417,397.6336042248571,594.460269694349,jog
21.185308848080133,0.04368571565697453,0.10170819882775559,10.569516590347712,0.30950028576629135,0.6476192195920953,1.3989762139043265,685.2985542206219,356.3566185788858,557.3756786175959,jog
21.235392320534224,1.1756933202185809,0.6244344831144506,12.25202012829444,0.7956613558943798,0.8729739520335378,-0.9957176103391202,563.8051050975876,332.4187662320565,673.7999793035633,jog
21.285475792988315,1.7675377310949123,1.266458221748899,12.077001119860903,1.0520251959016411,1.5296679001988245,0.015353985495241808,703.6477665877819,379.9203204151966,598.5349138045744,jog
21.335559265442406,1.6059008270899735,0.6782983307063928,10.888940060108766,0.686708036604018,-0.48886535250607915,-1.272131918062262,676.3165051724241,383.4421558105858,562.1204226633099,jog
21.385642737896493,0.1847988903088974,-0.42038699930091405,9.185236412654955,0.6398511699198091,-0.31344111662295987,-1.177863011847173,614.4017753079756,411.6036910051451,682.5769897188881,jog
21.435726210350584,-0.7284259892694379,-1.0831772907762507,8.024479042437578,-0.8276795599344815,-0.09133937797223188,0.31834597374126,719.7002019253545,485.7670963842311,619.8382334425077,jog
21.485809682804675,-1.6670256020065382,-1.0813891786335676,7.851486280463638,0.021548799021314503,0.1657962378622151,-0.6248569091429221,648.8978809585343,389.79909869559623,731.5475856437357,jog
21.535893155258766,-1.3527901892555874,-0.6232434941088851,9.234774759660962,0.35078120941065555,-0.13930342201843948,0.37500556953574793,719.6470797185896,376.17356387776726,598.1932948979713,jog
21.585976627712856,-0.4421224853326983,0.30271008103082103,10.842531534909488,0.6067857916277852,-0.007908007503344394,1.0144897468806466,688.3706281800683,465.7126451240738,598.8849902780761,jog
21.636060100166944,0.9628691218229287,0.9760176309057522,12.1197730739655,-0.4295565008272418,0.1399476951528403,0.09636603475946653,684.4137491655831,381.77301047528454,554.1964462891046,jog
21.686143572621035,1.841618965823264,1.108550976872957,12.18584011533004,0.5072435362910456,1.5115007927057704,0.367331713166155,669.8769285784189,339.4537446843406,660.249520953633,jog
21.736227045075125,1.6160727081188866,0.8732764595274656,10.950438155807536,-1.4541886347549382,0.9296574842469032,-2.0396092364392056,600.6767528312982,375.1578459097088,663.6259474673094,jog
21.786310517529216,0.465486559421358,-0.18613659079228367,8.948076079050244,-0.009222926202785907,1.2938772748573473,-0.5308764573743383,755.914839587495,361.21508082721556,634.6924516730916,jog
21.836393989983307,-1.4236304817621641,-1.065532643079478,7.281348030489652,-0.42665711375091236,-0.005636990178058201,-0.11884581678694298,681.5466040997587,353.9596063691174,677.0350241787293,jog
21.886477462437398,-1.7433468831377212,-1.2292696110556132,7.524353979303509,0.06751754153916405,-0.494284300755944,0.20682531475170207,705.7056863854182,401.77783580142176,587.7179798786702,jog
21.936560934891485,-1.6125114156551017,-0.91203035544395,9.071873945475268,0.05426919399418192,-0.7830007454001792,0.01563827372942649,594.3824602284274,402.95042053096074,639.3391153102067,jog
21.986644407345576,-0.10147569353565204,-0.05088654372052549,10.56245052717535,-0.9444781652379065,-0.6056083641954035,-0.31236843406466924,680.9810299555667,445.99983833505587,528.2996561477744,jog
22.036727879799667,1.1126994366978833,0.9367804863206826,11.758916558104946,-0.2138110753486263,-0.3839501674181104,0.2315015979596945,688.2748957586512,324.0547330245247,590.6784395532407,jog
22.086811352253758,1.7971858014250706,1.2938788546266253,11.824644617469367,0.344176932534166,-1.0347394038591178,0.17518322922128987,740.5783553876297,433.95838389706705,640.696395667953,jog
22.13689482470785,1.5344654552969939,0.6163610017750831,10.806314241690126,0.08362273627179188,-0.24985989308445078,-1.3323757101456535,615.7352048451421,336.91271791914056,652.252624260763,jog
22.186978297161936,0.22066906284355153,-0.3635840101324504,9.443874557023605,-0.4345516880265948,0.35444758567092877,0.7185208836425091,709.0832946200666,397.46849470041604,695.5278822282838,jog
22.237061769616027,-1.171575460455887,-0.9456861827375784,7.659710099398681,-1.4035614433279293,-0.1999543844508883,-0.39436337711539865,659.196484783814,372.6512586722,603.3271420746526,jog
22.287145242070117,-1.4395521910080116,-1.1265661899599249,7.974328096802802,1.0758840618391732,-0.20976434553422013,0.1378747022094624,764.2364544049825,327.5058854921374,625.6398279042257,jog
22.33722871452421,-1.0895609975201337,-1.1174559620028985,9.026374024794972,-0.9329468828647655,0.3364791120376776,0.16392843886401953,700.4098341287407,393.5903939042671,643.2443891415933,jog
22.3873121869783,0.01947050098788082,0.13780878176313016,11.10773317798634,-0.1039573571365866,-0.4605593643600511,0.8748986264373448,661.6026245382327,341.9329282915029,652.9407643984794,jog
22.437395659432386,0.8434798523494618,0.5445705237564984,11.516876247150558,0.7038147061380454,0.4807648328352242,-0.527678846114822,640.214208800725,399.876741012522,605.3152097536735,jog
22.487479131886477,2.156293461708022,1.5199999226092378,11.864174667412318,0.13112862017785912,-0.6956549148857074,-1.3044843682263385,704.9258203460738,336.10191816334145,599.0557211072891,jog
22.537562604340568,1.3143297542270385,0.7110380159468057,11.287658983252761,-0.3598370520264035,-0.17277354379401266,-0.19352487825629142,637.3523129006745,433.83935786862105,627.8635059647528,jog
22.58764607679466,0.3646626738337597,0.10783161816476095,9.023588194025702,0.5876872049213022,-0.5211796519648432,0.9550109672589884,711.3447451410851,391.5134533450261,618.6631499587199,jog
22.63772954924875,-1.0432350798175065,-0.8557390152749045,7.711607416072454,-0.8199477839083484,-0.8146561473695642,-0.6570292781754464,714.2887996335704,366.1382409500329,598.4122653549545,jog
22.687813021702837,-1.6540264641741678,-0.8393971304045147,8.048621671902756,-0.7270700623200146,0.489895878045333,-0.48368576104271116,744.4378514070193,373.93734940736584,692.9800617959049,jog
22.737896494156928,-1.7516281950294237,-0.8732780037871464,9.220835285213383,0.14597504321386937,-1.0649173200559665,0.3669252260460126,701.3802896730483,384.7417047089543,620.719700553661,jog
22.78797996661102,0.045005917195919884,0.264469992419695,10.611290614321732,-0.17976877735228464,0.3575353698296528,-0.21662846166655078,702.3979952077741,482.59356215681953,588.9016404759159,jog
22.83806343906511,1.022761263279975,0.9450100857903365,11.817316971039997,-0.23551183368783052,-0.6729518684637582,0.10857416007141561,732.0016630596416,414.6627826222451,624.6039392913796,jog
22.8881469115192,1.8731191698964622,1.3357690722359281,11.75436943634731,1.1733465072629397,-0.03657951588421769,0.018020231722280303,681.1488245102913,397.9282638828643,592.6221746151323,jog
22.938230383973288,1.327349797829523,1.0064126737744035,10.178823703833645,-0.5450965880500855,-1.6061452852645504,1.4969235292361716,801.1259150133513,383.24297253359,537.7197318961828,jog
22.98831385642738,0.45684297671016877,-0.1889572261930972,9.163998416116861,-0.16006427137920495,-0.7333133644165601,0.5285158575322879,686.9539593521132,400.67926706778286,621.4802512056812,jog
23.03839732888147,-0.9564973954148929,-0.9409649748151152,7.5102773169449595,-0.147107756000202,0.4015182346103313,-0.30998243437762574,746.4061745721186,390.5708439073144,672.0956718604307,jog
23.08848080133556,-1.249138506278998,-1.2939901582016728,8.214408877219693,0.4975067134577082,-0.007239887543684588,0.7148853586569607,740.5175684098052,366.9403876344988,667.459206230199,jog
23.13856427378965,-1.1557835216883687,-0.8902774961314721,9.235394822560998,-0.5532888629594787,-0.2597501579321146,-0.8450164827477403,620.5213646567067,418.0305077011124,604.4687494534305,jog
23.18864774624374,-0.242941179185314,0.549109213057976,10.866649980662885,-0.6339285958259967,-1.1009382568820907,-0.8168878376599936,633.6556039101337,375.2067375391267,699.8672198895576,jog
23.23873121869783,0.8458907823969424,0.6796319758202531,11.862569857038649,-0.0657228526347856,0.521102594476625,-0.4446378854145778,686.8481825513758,386.53387587800705,582.5986859594036,jog
23.28881469115192,1.8097886626085893,0.9117745937950528,11.660180917240131,-0.8226387050247678,0.10684805481373776,0.17407400348586688,691.5359126221459,331.5650309296002,624.5659736163698,jog
23.33889816360601,1.8616666746648365,0.488135735658447,10.80596478583427,0.6546135788655402,0.6537808325779064,-1.2323426961260802,714.906427655825,353.8499244171333,559.1729354440916,jog
23.3889816360601,0.5910255986237527,-0.3611845132635268,9.33491329172824,0.13631506651618477,-0.14497288887391957,-1.105004132301055,775.0627852039418,360.7319581411965,606.8594600906481,jog
23.439065108514193,-0.7800207394522285,-0.757977895293777,7.680941591569414,0.351935794863891,0.009468610917232858,-0.7882885054396742,702.6292758371412,337.7490697017134,654.5540623437295,jog
23.48914858096828,-2.1298301437758944,-1.2854442091033556,7.698263449272466,-0.9243594870052999,-0.8936144027736628,-0.8264221015950606,701.9519050319011,439.22096260184674,619.3479028176228,jog
23.53923205342237,-1.420353049861424,-0.7225733023827774,9.096487468720253,-0.23784490137666398,-1.3695281572164617,-0.4932522087062831,741.3269470016504,409.0599661928821,588.3632096346753,jog
23.58931552587646,-0.09132494964312703,0.5968334119360785,10.492740794735631,1.5833985521050278,-0.23141218075074022,1.022839160270706,669.505343638883,376.88706300232565,661.6164547145319,jog
23.639398998330552,1.4255941057350514,0.7907748345358097,12.29149602696167,1.103334862636808,-0.4401849825957718,1.247428446400279,669.8932005370776,351.3538812233111,606.6534583358397,jog
23.689482470784643,1.420257655077142,1.3440829817683242,12.008594163552566,0.9875814092885514,-0.12506361440923555,-0.45822091131034987,678.6557237313273,379.3290032128424,607.6979865072923,jog
23.73956594323873,1.453210767846905,0.9407631744844278,10.691175687527329,0.17647742515420145,0.9051236283188648,-0.6930820990730789,643.0702671997865,387.4614034395928,590.2087867823545,jog
23.78964941569282,0.4859063282795196,-0.24774356777159043,9.273731012490458,1.7143056376076165,-0.13908963831907523,0.23512272442778825,637.1555427482062,331.3817609642731,551.6991394435356,jog
23.839732888146912,-0.8657775168964073,-1.1636476690624504,7.420356403678922,0.9004010291606621,-1.1003897555654842,0.12117456454402166,688.7892633825777,400.05548055214103,574.2388076091702,jog
23.889816360601003,-1.9713675920298206,-1.2064647615347805,7.933109055285702,0.46063102940741946,0.7715662430660519,0.29069742987549524,672.5982168286454,366.76197104348864,679.9426372839744,jog
23.939899833055094,-1.4150075633455652,-1.0294994518212655,9.374334170706977,0.7225925583031196,-1.230928174494644,0.6164472902937178,782.8544540023079,372.3891549561794,650.9427603605761,jog
23.98998330550918,-0.32031920333611624,0.31551058984824537,11.053974947410872,-1.3051138354751408,-0.06661270106913882,0.4790629367391247,693.3938337213248,365.26895399207547,589.9672439177023,jog
24.040066777963272,1.1338788845000185,0.5272174513369752,11.757605022628155,-0.13389732149771827,0.06595022299168408,-1.6577574162665814,686.1295582530706,341.958371428441,654.1103135013585,jog
24.090150250417363,1.9489169631928147,0.608025848267721,11.897212551449442,-0.5928744919028986,1.241332234423558,-0.20100802228882467,604.3706632682317,385.79243494347514,578.5806494083952,jog
24.140233722871454,1.6826761047353092,0.6784684777787913,10.346771407712138,0.31544410001179546,0.18780630152714634,-0.49571756770771824,623.707223565958,453.8924284731037,634.0144396682962,jog
24.190317195325544,0.5262889383265632,-0.3663865279033925,9.103882178660452,-1.4080182862323758,-1.0672413534743237,-0.277576873678969,652.9479292883858,354.0258242649136,564.7006857562812,jog
24.24040066777963,-0.947222420930585,-0.9910661085529078,7.962532353715897,-0.9157500350507529,0.7201159393143581,0.8243340915466785,716.8452188328138,375.0372269483787,555.3506896376005,jog
24.290484140233723,-1.4991234487135157,-1.242285351569316,8.19906595012449,-0.948194708563953,0.15396610747994738,1.2220810341958495,711.4859882836681,352.86805352482565,571.1750418427519,jog
24.340567612687813,-1.2588864452823205,-0.7229938783731304,9.149847413953662,0.5080114756509657,0.3664311406199368,0.8912939234570088,721.7916791472204,362.52091560324834,694.105536321115,jog
24.390651085141904,-0.23165879876251777,-0.006411229235217308,10.78537849894668,-1.2064162232897262,-0.2970768211794354,0.6147661551771827,663.7264355253475,387.0968504962144,624.2227777261609,jog
24.440734557595995,1.0600410442318946,1.5157552045171045,11.819222304609758,-0.7833026873225323,0.6362690169541972,-0.13855082075931446,704.8605297007263,385.3639647495559,618.8554762032653,jog
24.490818030050082,1.926847595300417,0.7990421239421976,12.120680226693187,-0.3100846877940999,-0.09890998064312374,0.3590432703133205,621.8377431882473,396.58040241906986,552.5377514722468,jog
24.540901502504173,1.1796213131953384,0.8571812058922434,10.265130621078525,0.3321585819532395,0.5970443869924231,0.34753442335677526,707.6473693467875,398.53772989191,730.1921228672912,jog
24.590984974958264,0.49629943313573593,-0.4359254340211925,8.470025382124588,-0.06163212235379238,-0.17540365743957734,0.9077925521119705,691.1225712311515,429.19058019109076,680.255797451276,jog
24.641068447412355,-0.5966487140113302,-0.6344449723329815,7.643624551331073,0.5578999080772773,0.6913461411764452,-0.477023594543037,653.2193284890124,389.2554586704766,664.5385251556389,jog
24.691151919866446,-1.6170243129797854,-0.8919791240983064,7.958735302798084,-0.6803056773408329,-0.3396514846217865,-0.26705351513867004,684.3272023537703,387.1129590713601,637.0197514922531,jog
24.741235392320533,-1.2322624757441087,-0.5787916804545681,9.019859032855285,-1.0108868893598952,0.1341350694232182,-0.18444196471579982,562.5541242320958,382.9854694784684,533.7449426832036,jog
24.791318864774624,-0.312534549092354,-0.20478249288758127,11.079572966465452,0.17441816645377387,-0.0943050484343113,0.5182172119052412,667.3609262064083,378.91098174769854,626.5834871801746,jog
24.841402337228715,1.0231972731475372,0.952306981733986,11.982199295193125,-0.3031667297561949,-1.4483346684206146,-0.4113569126323609,680.3146910037791,456.65416750993427,578.3431626746033,jog
24.891485809682806,1.5848572473500835,1.1460203014307675,12.033616974390455,1.5124520357186235,-0.48899312889008656,1.6826534435581497,591.9698146923067,390.36567328330875,604.0192306531256,jog
24.941569282136896,1.2286184930000719,0.11408390498044879,10.51989343245556,0.18079467579991523,-0.717038263556481,0.1009701083369713,643.7663609505057,421.78466391326356,610.8783309279107,jog
24.991652754590987,0.38486618447970206,-0.447031490607036,8.871396089935619,-0.5444903270988448,0.8582759963208926,0.23025351381892364,635.6193901790634,443.4461593109771,708.8333037568759,jog
25.041736227045075,-0.6366246190758843,-0.9982778043336071,8.314969980527245,0.5001713259060243,1.1825643942737027,0.571560875990857,767.2301824284841,355.9155404595021,583.4176989689389,jog
25.091819699499165,-1.471066075821496,-1.4688284501361681,7.637793105276316,-0.1064536421192798,0.8026826647456762,0.8476274951217453,685.7199951912395,269.37422578495523,572.6555743048564,jog
25.141903171953256,-1.6511267996177617,-0.703536539185668,9.13116930353234,-0.24103622046764012,-0.3221983999134283,-0.22423232916676739,697.7667400867001,398.667543897971,622.8306617706503,jog
25.191986644407347,0.17628384050231294,0.284756574635349,11.043340779551682,-0.21601781302298168,-1.5189285097559573,0.2550800521312552,755.5261737835423,364.6987292076032,679.5830833468772,jog
25.242070116861438,0.8057240552143593,1.1815198664040458,12.373467788867258,-0.12021084908674136,0.9354904817670292,0.31005926913345205,627.7648788146769,371.3631876279313,653.2811913704275,jog
25.292153589315525,1.7285179100036578,0.9648653284348767,12.550594617442968,-0.7470590226518032,0.5748550609702148,-1.4523781556055453,657.2882066080617,367.17481979834577,645.790811469092,jog
25.342237061769616,1.3331006875304372,0.6695878878980384,10.80603795006604,-1.0625694829947212,0.11144085645265103,0.05598872880107425,608.5691579095017,371.67026911554274,563.2332981358215,jog
25.392320534223707,0.48956009441124887,-0.2572183597197815,9.025875324796525,0.4090988304130765,-0.15279276249820997,-1.1549098584376813,774.4835778833068,409.46364442195807,672.701413951691,jog
25.442404006677798,-1.0556118047376615,-1.3030825902650502,8.034904069457133,-0.24358532043853234,-0.4067603758439735,0.18856933574418816,631.139893788145,426.1224072393482,550.268801968967,jog
25.49248747913189,-2.206973359805943,-1.5844619760663616,8.285255534336281,-1.212371071248392,-0.23996618652701446,0.4695211078824164,677.7378424693983,392.83211693260637,584.9177427703426,jog
25.542570951585976,-1.1492252317164247,-0.6512042500904969,9.460244021601685,-1.0183383299334685,0.5216491722512008,0.941688561886875,755.1874978171255,408.6383849719989,590.2980106606337,jog
25.592654424040067,-0.33780966400361917,-0.0035849899222635817,10.836621625393843,-0.2204870922859856,-0.2413653225097269,-0.38404663128348443,684.9893423014604,383.28388517816785,594.540589641839,jog
25.642737896494157,1.579899924209382,0.734716374943355,11.969498483981901,1.0152570807755708,-0.320830903454316,-0.04297490984164705,676.3242289820611,433.53865287571693,643.3450882206891,jog
25.69282136894825,2.265334553568936,1.4307236919849344,12.068677162559789,0.3238110226954804,-0.32720447107879386,-0.25619494234876233,609.6750381844124,401.5291786930004,649.676829681534,jog
25.74290484140234,1.6265563325947845,1.0611842987805429,10.591073981348325,0.6766268546981823,-0.2793484646755889,1.045373441412991,656.6381590654543,391.14829378840005,604.2979995961106,jog
25.792988313856426,0.24633986192654556,-0.5180936704256656,8.981932841460548,-1.0643280953983105,-0.6495818312889456,-0.34215464363504833,763.8429419207076,419.58287349104796,627.1488181650469,jog
25.843071786310517,-1.0149614697087064,-0.8053598880554249,7.513092413964549,0.08141818446999077,0.07319683298633649,0.016523793970318064,711.1584383739146,369.8567570390896,560.125945510831,jog
25.893155258764608,-1.4282331574348173,-1.4951812488528056,8.031968068456184,-0.6729743844033039,-0.4908286955882332,-0.8964862296209043,651.4940299846434,409.94302700117674,606.065671900471,jog
25.9432387312187,-1.2550360355676131,-0.4139666388293947,9.339654482832556,0.991357994422758,-0.3368524785420449,-1.618414183047164,660.6494499264619,332.70216101155114,677.718440016323,jog
25.99332220367279,0.3298304217188642,0.024324407872215292,11.43790247132391,1.4973993790910467,1.0425518250702075,0.2755078186537717,701.2487807550685,455.5747054276583,641.9926009813385,jog
26.043405676126877,1.0819915648655518,1.0349191127378154,12.067278063062052,-0.46782912998624,-0.6657553860386352,-0.9048039226425193,751.5064980408285,342.8628640544999,692.7171808026379,jog
26.093489148580968,2.0311124017595854,1.1302216237060276,11.466592800455388,0.16030946765251736,0.3547527821403806,-0.7128162462906938,660.0089502344692,352.3564173102375,675.7962246930475,jog
26.14357262103506,1.618321174605583,0.6399954218225001,10.948876809139849,0.17896549874410186,0.13672734190595823,-0.2763807245082762,739.7509602902462,354.26368916266097,640.6783768873639,jog
26.19365609348915,0.3444977328731823,-0.22550646470278185,8.934191475654538,-0.7391171786582458,1.0396293244477908,-0.06854597283163687,609.7704785772657,409.2047202565739,701.2394457956609,jog
26.24373956594324,-0.776314644905388,-1.1603450499310304,8.238732362264905,-0.8422829646438506,-0.42131692251976266,1.5383319300110623,664.1337640447267,363.1754997516644,675.059917655701,jog
26.293823038397328,-1.6933743417723275,-1.1073958871651846,8.464323567885035,0.1915198686275717,1.1074400269260993,-0.9099458784937913,655.271066041634,416.5725540103614,615.2264030779899,jog
26.34390651085142,-0.9945792611309022,-0.704470481484623,9.246736473681747,0.6349299675705324,-0.33985518235186146,1.18750443561468,688.6968866946445,392.5364512092753,662.7546197769536,jog
26.39398998330551,0.1581457999908829,0.3405911337438284,11.086938675645534,-0.8048365341020483,-0.27046321883761754,-1.457053528146349,658.723472172103,403.3701461814863,618.0271939770458,jog
26.4440734557596,1.1388061174606976,0.7468445200846192,12.164636496188729,-0.12303942564335897,-0.26443046324811953,0.26686342490439335,751.3994173679529,325.92700605677976,573.600904821616,jog
26.49415692821369,2.079380728883258,0.6459622699268142,12.053369987795492,0.7434373129420658,-0.6497936125025853,-0.26309435456501457,749.8264476397756,340.2068573733083,639.761454632612,jog
26.544240400667782,1.172610117863612,0.25920148044776387,10.905790701575995,0.469597512789263,-0.16007538860709675,-1.330575405495269,691.8526830331862,402.6409879331558,637.3917883069776,jog
26.59432387312187,0.23791826994756954,-0.30436852142453785,8.931740941158436,-0.047942541782299536,0.20610063578401056,0.9205678662350251,623.6355311423843,381.05182501860054,644.7329840151184,jog
26.64440734557596,-1.2949682526115953,-1.101441644687993,7.8740877748673554,-0.11645745302082841,-0.22340944086835376,0.18650587529948506,685.8353138487107,398.87460933403935,589.8052234190477,jog
26.69449081803005,-1.4667296924606075,-0.9437705062270398,7.921186633731515,-0.024908763976844415,0.31915550911208107,0.3160030483979564,694.7311934686595,385.19780844061785,577.9154097160506,jog
26.74457429048414,-1.5221565962830188,-0.8679664544026942,9.389932071826538,0.22180134083985953,-0.20616922801464072,0.1474437279216339,722.6726627113327,478.6630230234184,573.9161119747234,jog
26.794657762938233,0.2976780712010078,0.3160990185877603,10.544910110036685,1.5231691550406194,0.417688568615282,0.6299559889762629,816.5873834404343,409.4308581399064,653.1199492649127,jog
26.84474123539232,1.3794523616643601,0.5714002895010619,12.143901439204386,0.1523847037211121,0.12416776239469748,-0.9348000481401738,669.3185469378593,397.25070162148796,581.1218663681345,jog
26.89482470784641,2.026752036685394,1.1533256690089997,11.560039054987547,1.129628228441135,0.9700481047836886,0.7343066663132252,735.7325489468809,357.80334065080416,631.1610371454359,jog
26.9449081803005,1.2024590798127344,0.5838404741877912,10.486296155633166,-0.3566181997796844,0.5850434601805117,-0.6630565554953454,677.2569644216276,494.85843832342755,651.9414013456145,jog
26.994991652754592,0.266094813073329,-0.31501895510934225,9.216795410392844,-0.09597109872386582,-0.010969862746678341,-1.1602306175329673,704.0355013860591,451.67278922927903,575.2885581016958,jog
27.045075125208683,-1.2394893338696369,-1.0336913641810308,7.816718774032437,-0.023383388211423353,0.22391158537748276,-0.35614809697372163,769.066301914165,366.763751587217,625.8913652563382,jog
27.09515859766277,-1.6000334909841079,-1.0902096153525644,8.188640027275468,0.5118481950381927,0.78789978253738,-0.906888979467533,667.3300165146995,393.59648306982683,628.1557838428495,jog
27.14524207011686,-1.566494725559499,-0.8611646688122729,9.287627662637158,0.3184739054990668,-0.42491839756359007,-0.15505304680623655,684.1211245424126,434.77840610916803,641.2438374405737,jog
27.195325542570952,0.058914421847824375,0.8072683723085785,11.241309787986202,-0.37380274069140923,1.10659848158566,-1.3265031589348726,628.1697552377362,398.01908087682847,649.1779624121604,jog
27.245409015025043,1.139982363805982,1.2960111455358647,12.336094054896451,0.7118662979345762,-0.5963541440569141,0.5493108564944409,637.5236806636428,346.7771370817651,738.9927741405909,jog
27.295492487479134,2.1395549591918224,0.6831397420961574,11.852079853455475,0.7395948885005701,-0.8394865930210555,1.405042728758231,701.6852146407255,369.2970118993603,576.2769607473085,jog
27.34557595993322,1.0097294266232781,0.22140966156138037,10.195712090360324,0.4738505180110608,0.9987359692062657,1.660749318121322,722.8132855378332,363.43372276219424,647.1663676309689,jog
27.395659432387312,0.4956568984882203,-0.5757789952683778,9.005709008934309,-0.4495395612629723,-1.31967196402481,0.3164076648066537,687.2857117849304,352.9317704960114,664.6717881210458,jog
27.445742904841403,-0.6343237725436982,-1.6199381429591304,7.71057600386344,-0.6366893809274687,-0.7487362290086325,-0.28007426247226036,623.4030534623623,401.3506303592259,590.4631610539271,jog
27.495826377295494,-1.743756641371618,-1.2588942681295057,8.316425328497326,0.5803147450019412,0.361619950051506,0.3827371888948063,674.8461105728992,359.3046018729239,639.7386557396178,jog
27.545909849749584,-1.4614302786623476,-0.7319047331672348,9.426803042397509,-1.310274369913285,0.31484772309200354,-0.3756687570395834,603.4742518544158,399.31368268827794,586.4516997738685,jog
27.59599332220367,0.20366951163618707,0.665206323252173,10.836559777327537,0.40540834411966065,0.1047115554113118,-0.6834915638062831,648.9016728785397,382.1712508661082,560.2673422745804,jog
27.646076794657763,1.7261313854683227,0.8730636085086774,12.099682453306581,-0.1483943214752877,0.10900706815339427,-0.5521575504832493,652.8741236165387,380.1228915224069,597.9450160065359,jog
27.696160267111853,1.68451798050234,0.7603746464608125,11.723133472548907,0.5582085792007928,0.22699704676369117,0.43951553554540895,716.7804215585536,405.8310257110373,538.3223283907967,jog
27.746243739565944,1.3568373522387283,0.39450893547234817,10.277138969561886,0.379554739588921,1.3892904858521677,0.670246120962291,693.929407071144,419.06658844680896,630.4566794725097,jog
27.796327212020035,0.2552399163287643,-0.31582828683289654,8.795773136360559,0.4703156276112025,-0.938950568452006,-0.7660492585496357,636.7201997512418,365.2126425588309,620.9364694444686,jog
27.846410684474122,-1.1097357606626306,-0.7407574990254753,8.042126777181055,-0.3147442668073451,-0.7396812392686307,-0.5943300719204473,742.0552997778068,364.3172099105426,630.4133281422083,jog
27.896494156928213,-1.8645591602785843,-1.0062247988462718,7.942235296611869,1.117453883779654,0.20038953112629818,-1.0841026440259511,670.6122813883131,375.6324706580552,680.6763774909489,jog
27.946577629382304,-1.2527625126272268,-0.48328977021952185,9.78474354172377,-1.336116520851816,0.1392449503345611,1.1226669999643857,711.5977621049545,360.7530210552731,690.8745269906228,jog
27.996661101836395,0.08190231531612041,0.31519762646143784,10.910161224922167,0.15803516127982978,0.3071313593875228,0.11835637918243659,778.7687322979069,372.65590656942277,590.11085206251,jog
28.046744574290486,1.4698360794672665,1.162010374656127,12.159364591219532,-0.245481308139722,0.2961615624460568,-0.12350226635332795,696.7951162157343,311.0884895411558,705.7284227834298,jog
28.096828046744577,2.190398370360016,0.5995072326818114,11.864477770598352,-0.5041354994787232,-0.19175505236005863,0.9846814538741575,707.5919991692547,442.5968193786557,596.2409184719975,jog
28.146911519198664,0.8391374054013871,0.39291896743040106,10.38387775879992,-1.588045798407884,-0.9395564896725878,0.6534846382298597,742.8220591370072,417.54346623637,561.3331385686597,jog
28.196994991652755,0.19261616339289944,-0.30816624546668425,9.009206879055931,-0.652849234476357,-0.7389813493165265,1.1241129165673127,657.9913465660229,438.42290114927334,675.8864323614442,jog
28.247078464106846,-1.231586800525506,-1.2080404043386406,7.6156534493380335,-1.9721281474003127,0.42111769024689066,-0.5466681543540077,687.9898374843053,394.816784125724,638.7422521507966,jog
28.297161936560936,-1.8064105016310452,-1.1107385463643769,7.839450787761063,-0.5595617547568522,0.20424148913497603,0.052096017787665816,688.4573920913248,267.7724265075964,613.3182254268241,jog
28.347245409015027,-1.1833560603265987,-0.9670031747851864,9.04380040885754,0.19519129272993024,0.5245873777850857,-0.7992671109649504,697.2131857636398,431.99715519817187,577.0071130654601,jog
28.397328881469114,-0.6057061081917615,0.09474631350833451,11.04490828209368,0.8085205071719898,-0.9112563692278215,1.9788364095964432,645.3390587794222,403.25842176613617,651.9390695581798,jog
28.447412353923205,1.2492695070764472,1.071613640606055,12.179555510187463,-2.387564141971416,0.014244391540468998,1.7430573773831037,730.4609893640088,413.6570478765198,648.0795742308405,jog
28.497495826377296,1.8809440181376342,1.3049145733694187,11.575428027756478,0.6325352551836747,-0.6528454864032898,0.5263754785721223,649.1089817840838,407.2871539679162,605.043246117287,jog
28.547579298831387,1.5149149958341734,0.5917187314181922,10.366503840330834,0.42403825632494,0.4891282809084413,-0.24091651676946435,696.047807231849,369.21082077339906,691.3235022813965,jog
28.597662771285478,0.2575648339876221,-0.09663742606099812,8.732277809146659,-0.9946764860577834,-1.1548679645872006,-0.10386622833875533,702.1657656790353,378.2243977065827,547.0383386245733,jog
28.647746243739565,-0.9808459864154689,-1.202576120094588,7.596912149628612,1.3465177818266174,0.5998151885163061,-1.3401315388353934,594.0027217368292,428.9303099919718,642.2853316968705,jog
28.697829716193656,-2.0044050260851103,-0.8824875116327608,7.843806185280214,-0.40611523386355175,0.37909057727735773,0.26639372537359507,703.6731434030424,376.5116289585734,611.5314484722451,jog
28.747913188647747,-1.08053576114954,-0.7390426899486786,9.411120491959805,0.5695120078722542,-0.7407986736841855,0.18685830261018102,664.4644511457656,311.3567019638457,613.7784813280905,jog
28.797996661101838,0.06158758180391992,0.3686831868950509,11.466615466667438,0.16183947560834247,0.5559454989039903,-0.20608952506231892,613.2115382577954,396.3733054270268,624.999703908002,jog
28.84808013355593,1.2194197916344982,0.7304747718007443,11.537400602809761,1.2654370170706803,-0.6757744119336305,0.7014989664597068,722.1614925462718,434.8639676120064,636.2610819588529,jog
28.898163606010016,1.6755786282392695,1.4116339010481314,11.52910456334584,0.31715081170773457,-0.4347001957450491,1.1973625082992734,796.0951210841133,361.5228153083518,549.6929009584227,jog
28.948247078464107,1.506031438237171,0.36903042188223717,10.240211443627894,-1.152075755657715,-1.5609926863171841,-0.3340022016174442,729.9594663613373,412.70319747873606,597.8774746590375,jog
28.998330550918197,0.2792968263608235,-0.6748406657078996,8.718936265458321,0.004008414824893941,0.46119967442250454,0.2748078236400485,630.5468954830915,431.2629393321135,631.0386202412232,jog
29.04841402337229,-1.0111998692667072,-0.9843332485138108,7.796858594055883,-0.35763037769560707,0.2823054941506579,-0.2994035408997552,644.9883346454559,402.4003420836898,612.5812742669829,jog
29.09849749582638,-1.283234525155476,-1.5494998360619174,8.29860200390776,-0.04810812026052107,0.046415941937960975,-0.5976934437000139,755.26904929218,363.3930182610675,524.7625961103029,jog
29.148580968280466,-0.9941122549206335,-0.09647131188921526,9.803093078763373,-0.19535500919728407,-0.42541872283913623,-1.5325643767775519,775.2260937802056,365.39254434844867,566.1195470093144,jog
29.198664440734557,-0.09232772843922192,-0.26092467274647047,11.26969076363695,1.4219838063120036,0.47528534466977135,-0.6794591737806106,655.4568313054599,384.5096989239851,587.6199734979365,jog
29.248747913188648,0.9327415096880928,1.5548823923653532,12.269187773481105,0.8730813804964296,-0.12751615921825407,0.25461781759795993,783.9443428520229,354.3893070796437,614.1329985101945,jog
29.29883138564274,1.6558725978539564,1.1415751971661652,11.752768439940795,1.3691100817610318,0.9084490193380026,0.38569789494570905,612.5665882157411,369.9623888393557,674.1469605239217,jog
29.34891485809683,1.4884516205939555,0.9061813226295605,10.498122423658554,-0.1485997194862495,-0.6119306411068083,-0.5490905957506785,777.1424227756979,398.6081030720905,555.151069536661,jog
29.398998330550917,0.18692267389462097,-0.24224303955625248,8.630998826823943,0.8236244987446014,0.5815198895562871,1.2556143457027313,670.1653803213036,349.5806410522819,588.1372961527368,jog
29.449081803005008,-1.0554807263684076,-1.1014000230903094,8.138823235718844,0.7780339350914243,0.7433402570148152,-0.02710854030575931,703.2307218732445,394.9522799310758,581.6772084162538,jog
29.4991652754591,-1.7663091068913261,-1.2852672878765292,7.85726423997153,0.2678357408127677,-1.7358523021622374,-0.11508663076353977,621.3865961705396,383.2840721793427,570.1181427519383,jog
29.54924874791319,-1.0681343560318888,-0.6018159357182342,9.492691806797726,-0.382977753522891,-1.0346528358767595,-0.527859083801011,669.2034428414731,437.6781424516538,681.9932056176045,jog
29.59933222036728,0.05921376737298756,0.20362272716908103,11.316582972278674,0.14510756566494884,-0.6320145449174045,0.6853444523551565,711.2714740098169,355.07831740324497,655.4275122483215,jog
29.64941569282137,1.2732211420105524,1.0503069394378055,11.95451658221597,0.6503277248209464,0.39202901120983513,0.929078995746228,655.752212151573,327.3081681907168,608.6193852432195,jog
29.69949916527546,1.8374547652233537,0.7923750278986621,11.92752863997542,-0.006904293553851714,-0.7305330701951674,-0.5597748829993349,609.1972522989162,401.3690651003527,620.1763396625032,jog
29.74958263772955,1.5992738458636686,0.4864201784543822,10.26773003030968,1.150965024826175,1.624036269234586,0.3241792075743077,735.6772341411126,387.5640112114614,684.889939432226,jog
29.79966611018364,-0.1775536447349561,-0.6717652049808089,8.676091258026839,-1.4199217998785794,1.2928612576503016,-0.07659945263286798,729.498322221999,307.4713260527269,637.3772072021635,jog
29.84974958263773,-1.011312082167745,-1.085967020598099,7.285943994557268,-0.03925376506926534,-0.3430149932650485,-0.8169637835389757,673.5050889913258,450.93760860884754,636.4481474383238,jog
29.899833055091822,-1.8439596722973735,-1.5836817244587447,8.1076751374594,0.2580168569506847,0.7623092570860763,0.9725131383005481,726.450817249487,400.11135902099215,571.3533488031445,jog
29.94991652754591,-1.7231415888325134,-0.8020327550308342,9.942470372060763,0.21011136384556514,0.0009122405926508516,0.5548788738804896,658.9685949345248,335.76699820995884,615.7252640932229,jog
30.0,0.10454551832016368,0.2813724187522014,11.207093978249551,-0.3299760761401307,0.9706507028598222,0.73682902318042,650.2382004017019,349.7906423367512,555.1114439454045,jog
