timestamp,ax,ay,az,gx,gy,gz,mx,my,mz,label
0.0,-0.05022390139864372,0.3103280710466311,11.004398254384691,-0.44064343996909155,0.9635785418190393,0.5464659001246802,461.33836056183037,507.89213414180426,464.4798705399756,upstairs
0.05008347245409015,0.49274087498660973,0.4764457386048269,11.37837689003185,0.7198269860741442,-0.581035747863406,-2.3467765518156942,439.7745591925108,456.02094762180326,524.9280141243908,upstairs
0.1001669449081803,0.9737115613586479,0.7391385026108723,10.765753691411831,0.6471758817146263,-1.0056455862741691,-0.12797675210955128,492.1312433451112,554.0134344111394,491.3922025333758,upstairs
0.15025041736227046,0.9515145660934102,0.7881508740032546,10.940871865518739,1.4252919475939283,-1.0023850540462897,-0.24335861201644166,566.042755748709,534.3848301327687,508.3067609270666,upstairs
0.2003338898163606,1.0104026122142022,0.4334458118364852,10.386051389938302,0.5606583288624067,-0.011182269481670915,1.196285186829062,464.2806529808632,458.57892996470497,585.3513972860478,upstairs
0.25041736227045075,0.8574374821794044,-0.11545768182843402,9.438779620019702,0.3909911342165258,0.6633347098266634,0.6384836429167731,497.94722105074106,533.8495396427168,503.4913983785083,upstairs
0.3005008347245409,0.3231595202669933,0.05125530720543425,9.100036786865754,0.19268994701161116,-0.06369210991596659,1.0670876988796043,532.4400249383575,497.23663584097426,471.06546734539216,upstairs
0.35058430717863104,-0.017007893382057104,-0.9494051586525778,8.209444781967738,-0.5254539897367306,0.7039314522485278,-0.3429802816955664,625.3420209694884,545.3582222699113,544.3233330270772,upstairs
0.4006677796327212,-0.9841455467080358,-0.5253938175155577,8.05057095022297,-0.534162097158552,-0.4037421995418995,0.5534514151282337,506.22522867513317,492.57900723182615,487.20427669963857,upstairs
0.4507512520868114,-1.0897372980896063,-0.36943274628424333,8.447950467361327,0.16056162882844638,-0.15498880545087004,-0.4990948842466661,450.11713810746016,477.22480200417624,538.0313542675513,upstairs
0.5008347245409015,-1.2959092246575623,-0.454655101887862,9.169377348061564,0.20434712753300183,-0.1189597502169048,1.1047895492418336,461.68528038112703,454.64361219910313,488.48866434519323,upstairs
0.5509181969949917,-0.5098162434254743,-0.037655323597284934,10.173839738791058,0.2306499610899753,0.15825457768448176,-0.082476232549142,463.35005651970476,529.2826062317054,483.0022173850955,upstairs
0.6010016694490818,-0.2778597218850321,0.21982043436670307,11.04370593259599,0.01684816065215242,0.6064396402547493,-0.3635313030665708,484.4315422676988,521.8987821146936,515.3253228980547,upstairs
0.651085141903172,0.33337123824987086,0.6526695095548234,11.219026235741037,-0.3416261441704437,-0.7962320095722917,0.007721868428116217,468.14061573466256,500.2096474833632,534.4603543387623,upstairs
0.7011686143572621,0.6372027983328189,0.8753741577404224,11.53991855778743,1.3825811880025372,0.6282048608214448,0.02268100898133636,522.1784427597526,462.7578504121599,514.077721227319,upstairs
0.7512520868113522,0.859349719973372,0.3242881649724413,11.24251693640582,-0.18451285815640214,0.732022184054188,-0.010394680802407777,428.72215766217886,417.3028746689913,485.4086954881729,upstairs
0.8013355592654424,1.0505531488129958,0.6866626914385612,10.609250740142873,0.055069141272387254,0.2898435251355736,0.0886847790893954,504.456232199899,429.6720807525412,526.582784704292,upstairs
0.8514190317195326,0.870541585407328,0.5421119389141427,10.0450690154936,0.12230648600492482,-0.05915552158897893,0.9561173211770975,561.7197299339373,593.6854716937739,435.85790873204184,upstairs
0.9015025041736228,0.22738329003242602,-0.21571860208082727,8.842719758067375,0.23104780834090202,-1.1130989510489173,0.23577196433555658,480.8006933912221,463.45382987245864,551.8287047175228,upstairs
0.9515859766277128,-0.18775322739982553,-0.3154894456640198,8.203286093006822,-0.5236841980807341,0.3965042526451623,0.19418744482507166,505.2319484474129,507.83134400786537,485.0831333085734,upstairs
1.001669449081803,-0.6010545516679117,-0.9113670487452956,8.338567464950323,0.6280016360703792,0.9386243752851834,-0.2237873080727289,524.7901081976067,497.17053880394894,485.1472055945903,upstairs
1.0517529215358932,-1.2163424489174208,-0.6334974145847296,8.152481548304594,-0.8929284193964168,-0.21140872411346112,-0.2180705260902149,534.1812813710325,496.7864059195093,562.6536163230826,upstairs
1.1018363939899833,-0.5614276020768938,-0.3508780042523928,9.147032865509413,-0.20232801397826328,0.2947619247340726,0.40292581784242526,468.65346158128494,546.2248148279842,533.7246016373016,upstairs
1.1519198664440735,-0.7785681876039584,-0.19827837122983122,9.244422628339157,0.009031882752474409,0.16843238394325025,0.19920448853897654,512.8238904030895,493.57509969497323,581.4493144222771,upstairs
1.2020033388981637,-0.23286477430185815,0.024245640892329015,10.874963123476219,0.36445587909260413,-0.3509122988454822,0.04020393135793882,463.7413329124004,494.2970021641509,541.2602807650118,upstairs
1.2520868113522539,-0.29224953382811003,0.40511679104899323,10.889899994198458,0.852898976964059,0.075959765080259,-0.5134107471348367,492.1494179724897,482.49084568893187,598.759935292502,upstairs
1.302170283806344,0.6273019849106536,0.39763856058506236,11.2463115278769,0.8389051533369188,-1.0293639463554645,-0.6353719836279519,556.0385259476394,501.72160307930915,557.9886480172464,upstairs
1.352253756260434,0.7414056880413155,0.5708966916769178,11.688041879391479,-0.17448982547183192,0.15059225574028198,1.2503326287747802,470.6388060421469,490.4837801275189,455.6557890506827,upstairs
1.4023372287145242,0.9016728722645548,0.7792226339644377,10.93145645435146,0.38234510800783805,0.10656638359593204,1.5362615663925319,532.2909685580387,564.9716171547443,429.2181762345121,upstairs
1.4524207011686143,0.7412116035662241,0.38755112919477347,10.081881568299316,0.38577299429745293,0.19298017814809143,0.06801476070224742,470.6717594772957,560.816295472704,484.2923721003255,upstairs
1.5025041736227045,0.44710589097268455,-0.22371621627424987,9.16062016611287,-1.3398741802666883,-1.1176331394567875,0.32181655592552333,486.0207164531708,430.60234320609277,491.3932954668925,upstairs
1.5525876460767947,0.3571885687826718,-0.17144716952260097,8.853398056666935,-0.5500546634876344,1.6393737705203064,-0.13284940440929807,436.3072970513685,510.8733021538289,499.1400935425472,upstairs
1.6026711185308848,-0.6105620808701598,-0.45377366122960344,7.9389002210585415,1.1235474774732954,-0.07552401488268162,-0.03984237331991844,513.9130643943834,461.5189823447708,457.7085861072043,upstairs
1.652754590984975,-1.1369300005519225,-0.6126711948910972,8.347939161083044,1.2657062453195311,-1.0094342202880722,1.335047027452248,540.7816403244508,549.3784638448393,484.30672034620653,upstairs
1.7028380634390652,-0.7660822406985692,-0.872221873226684,8.544375522230911,0.4373828524454005,-0.00896308503652325,-0.05304327897280926,504.4086640040045,458.6595195532702,523.4289325259463,upstairs
1.7529215358931554,-0.7144367252046808,-0.5394407975536308,9.389801343471172,0.4374179990740702,-0.37399194965329496,-0.5077711182154863,456.70360512321486,535.7257040167401,545.0362945669909,upstairs
1.8030050083472455,-0.9831212807836582,-0.028553569514094435,10.270710075392095,-0.26570474623346124,-0.30493874784419334,0.07148015339563148,527.9208866038742,540.4475144321991,536.4253160682138,upstairs
1.8530884808013357,-0.2797945059034741,0.03712248317766878,10.417031306389532,0.13109271622696497,-0.37264882107098646,0.27159300157455213,529.1031424147731,544.3497848242649,461.2133592777957,upstairs
1.9031719532554257,0.2141494830848179,0.5376770398737141,11.193880140694349,-0.6472125172701853,-0.35689872585610566,0.990271430307609,520.5116179392671,522.1290084766454,474.59557985454256,upstairs
1.9532554257095158,0.5332090491631617,0.5855265864404575,11.522801694384382,-0.795974548740785,-2.167211997761218,-0.026722217173914566,564.3372644730988,490.0870038461564,537.7258639532807,upstairs
2.003338898163606,0.7858926210951472,0.5232204215923124,11.13537847851992,1.3280322735659118,-1.3919275422235444,-0.5428751660539508,529.0967286336075,469.7547371508772,527.8820688646064,upstairs
2.0534223706176964,1.274881670786679,0.6414527316464895,10.422292347171563,-0.5425989283913242,-0.380525318875932,0.5559539476357055,531.8086072763638,436.40779653159626,529.4887826857595,upstairs
2.1035058430717863,0.5605915694712791,0.20181161812070414,9.88458757176544,-0.5831522422723746,-0.517725410074596,-0.7994474222486552,437.9433269727946,526.7437677123563,501.7158932908886,upstairs
2.1535893155258763,0.4194741543232243,-0.04176916611488163,8.882927581111732,0.022841411880784437,0.4040280523091311,0.1619533348645952,530.3836909895988,534.0626040164391,520.3760142405824,upstairs
2.2036727879799667,-0.20968719673017316,-0.6921739014987001,8.847566986517801,0.9207516821597381,0.1592584867745817,-0.010770274415837564,480.1267121601065,501.3076474079705,529.1481650710595,upstairs
2.2537562604340566,-0.6132909694726403,-0.4336776905290146,8.35734386341325,0.7252658414412929,0.13332389019421415,0.7001612996521102,529.3553703128732,526.4813811791237,521.2339357901914,upstairs
2.303839732888147,-0.7461881129232405,-0.7319459557449093,8.455693788530285,-0.6637181575420503,0.04590529107252467,1.6495294466247428,499.1614080289844,493.7499942665373,484.961766027367,upstairs
2.353923205342237,-0.9687019600288884,-0.6184068496186483,8.625343221418015,-0.7588618298472669,0.4467093282906144,0.4988170995324736,523.2956301943545,534.2132757950919,538.5184278144177,upstairs
2.4040066777963274,-0.5740376657530472,-0.6803652435505125,9.963507970719586,1.5909161353171777,0.29574984497134027,-0.08029880748990464,489.08345471100677,397.3392132601258,470.99520835142164,upstairs
2.4540901502504173,-0.29809846092823167,-0.078716939086075,10.55265246643212,0.7733451524804132,-0.7756674402113115,0.2546859995680421,527.8285775410874,489.1723575001779,503.7821626987373,upstairs
2.5041736227045077,0.2799163037737203,0.34672276604148206,11.042196936449637,-0.13820910363013933,-0.10118067682741215,0.4939200524795544,581.2354153235974,474.3516193353905,485.8114275472167,upstairs
2.5542570951585977,0.9291518741319981,0.7792138948386791,11.155624813429894,0.16102580029411806,-0.6843331964867834,0.12076113649414649,488.53763683599107,573.4165557121817,521.8366193395607,upstairs
2.604340567612688,0.8094481523353879,0.8240373293393535,11.175248841532673,-0.5470171678668794,0.6821832594363013,-0.3794202336237448,489.97561517325784,501.3216548474423,528.4883270624605,upstairs
2.654424040066778,1.1149415754356693,0.3944441753066543,10.867676161493808,-0.6105277632789685,-0.19087860936752726,0.49044975739646024,487.98651530581924,502.8485376123096,506.0563715874057,upstairs
2.704507512520868,0.6971285200875766,0.19876658932181718,9.986433908178798,-1.2718459997636657,-0.32097592160748367,-0.388921241355385,500.29551585748305,545.4470557407999,476.8011160468465,upstairs
2.7545909849749584,0.11829819626043926,0.41197463708286175,9.241081076069129,0.586828929312057,0.5388929453133465,0.04793662871265441,483.4138800218985,474.7427450149945,524.2263098360945,upstairs
2.8046744574290483,-0.09488693340065708,0.021353245710620306,8.67637293234339,-0.0077976285491449205,-0.10542035448947941,0.7031357561948071,464.7580018068398,549.0669302128119,460.4584607796448,upstairs
2.8547579298831387,-0.48918964106549767,-0.9761389830185534,8.448244117711054,0.48526596480985557,-0.8665319245938851,-0.8514857565141071,515.6953066787554,500.63609756265987,471.62073458109734,upstairs
2.9048414023372287,-0.4955706747454237,-0.5608984899700826,7.825965983141099,-0.5409884467310493,-0.059493047257833796,-0.11570353324762783,477.1628975242221,520.9002312327126,498.1885103764973,upstairs
2.954924874791319,-0.8820098742015061,-0.7038385291060998,8.499038899791712,0.2502662380213235,0.7335947984169622,-0.5151135030784264,475.13647864575296,478.22563984640027,608.9320493149604,upstairs
3.005008347245409,-0.7980647230729463,-0.8163208209811095,9.150295348562965,0.4843618566139695,-2.4976325696389337,1.0051951072839604,529.2801405098824,524.1950639881895,427.8222725276318,upstairs
3.0550918196994994,-0.5270296891899346,-0.28532727309357797,10.279583156517496,-0.026423385319324255,-0.06308631462679555,1.3219613348680255,437.20034967065783,523.4350176865404,507.41852803539035,upstairs
3.1051752921535893,-0.3770970341377082,-0.02957748545512101,10.86095600520138,-0.34503091534862934,-0.032924338784343275,-0.19595716531537677,492.7233590267317,570.5697613593861,540.4338117806428,upstairs
3.1552587646076797,0.6527727825246279,0.9472939396412088,11.12336054924838,1.6793752675852147,-0.11540020183048914,-0.23710935483706802,514.6777527146681,479.48239628900626,535.9761261642244,upstairs
3.2053422370617697,0.6760910408279968,0.4936794603657992,11.067918013219623,-0.4625829860516205,-0.48692024709516973,0.1303219571615178,534.5513901744114,511.24528894261596,617.3433171850195,upstairs
3.2554257095158596,0.9378632594218527,0.8436352212382479,10.90757003360061,0.5220433978187513,0.8817558272846578,0.2471366920749513,437.7129585293954,517.3498510485499,494.56643289117136,upstairs
3.30550918196995,0.9527496583977989,0.5788680228438638,10.485048009561373,0.6109485053439957,1.083372826753363,-1.169151017633464,471.98530544643165,525.0647317737527,494.31703481864184,upstairs
3.35559265442404,1.1308509004190543,-0.09139767731894513,9.427117359052795,-0.43356404743007354,0.8728442878597934,0.8131353627174881,526.3203697295914,576.2531050968438,502.3555202187716,upstairs
3.4056761268781304,0.1299948634383442,-0.12267895104220028,8.92467341588655,0.629051087546282,0.19765801864690025,1.493150973916879,578.2104258151318,483.8151863824641,485.6555507314356,upstairs
3.4557595993322203,-0.3936187207056685,-0.35323576507327326,8.325275591508051,-1.2235156057735863,-1.0471255261889132,0.9453300395249468,432.5811680886291,457.12060915979623,480.33969678613,upstairs
3.5058430717863107,-0.5294643565405146,-0.5507388590534523,7.9323335782285875,-0.21447500509970308,0.2723177088136312,-0.3218095616786527,498.351094211653,535.6521253262749,555.1238324815286,upstairs
3.5559265442404007,-0.7962296579340861,-0.7159902498618396,8.183688330954416,-0.8941087073327016,0.41575476364378705,0.23512383940671266,527.8390925005866,439.08333190293047,528.3202821098819,upstairs
3.606010016694491,-1.0114074407800753,-0.4210476042351633,8.842263562828457,-0.16964384886722475,-0.11938188916340865,0.7344967950962275,517.1077423156737,484.0056591538703,570.8951643188122,upstairs
3.656093489148581,-0.43572903137151486,-0.3911354352464732,9.354053508799598,0.2870934160853066,2.113027215371991,0.7793768692045362,376.4009298594531,493.52510058341244,474.0958300076409,upstairs
3.7061769616026714,-0.7083125042093958,0.0025425437199914774,10.445135391219031,-0.21414795654003527,0.4475676815939648,-1.5686995905807082,476.54866815505784,494.8019542718498,445.65498491698213,upstairs
3.7562604340567614,-0.10750741442557296,0.4594309226720251,11.137041298673104,0.8192620695849129,-0.27139320793158006,1.0762178382782746,543.4737143515601,444.3253782124713,491.00112203829747,upstairs
3.8063439065108513,0.6025372453791872,0.3712546472004633,11.361240180681268,0.8581398802091312,0.34679582972306117,0.6940756536599543,466.05439500650016,470.41253221340514,469.3582011376292,upstairs
3.8564273789649417,0.9838690228110615,0.6404404889361257,11.358654272269108,-0.01133906682017061,0.4915404732389484,0.5507184839540448,488.5361413452124,483.0862374832688,540.810818546149,upstairs
3.9065108514190316,1.2148384277157687,0.7180764413103207,11.143710431780221,-1.3204597638950006,0.07384666408930654,-1.00267297588371,552.1334868131723,486.2672214248973,518.218864634103,upstairs
3.956594323873122,0.5493825163594849,0.9870442960619334,10.038881739089378,0.5847235350330893,0.5669967749839613,-0.0007358059628505418,526.5534489407851,475.3850543399964,558.0411762120539,upstairs
4.006677796327212,0.5351422114636899,-0.21957946322577243,9.120337726168243,0.851676343260992,0.05267773084537198,0.1251997986152635,526.9909230340833,439.1942206870393,504.33259017365805,upstairs
4.056761268781302,-0.10272021403100862,-0.36801599190516254,8.74890511042944,-0.648426894880634,-0.29062753912547323,-0.5843220966540467,438.0388300761083,596.4437116024161,458.6973714754888,upstairs
4.106844741235393,-0.1299576378451533,-0.6021839006189913,8.357367415736489,0.0022878008275320806,-0.569700673626048,0.8420569362210446,601.6676333788762,544.2069652416171,460.3826130285037,upstairs
4.156928213689483,-0.7534351389857042,-0.5700126950914712,8.417253179339436,0.19970503293918665,-1.5300947243164724,0.10987558060850902,536.5888613172012,473.9512252952641,464.78685758821325,upstairs
4.207011686143573,-0.8718891079150167,-0.5077818496511015,8.475935121434592,-0.8658649479056953,-0.6828425137753448,-1.197313749311309,501.1777776823855,473.80830872177705,564.492476396286,upstairs
4.257095158597663,-0.7626689480631113,0.0007627815427553863,9.21855883088209,0.23464528536215054,-0.7563995975728033,-0.5110433041580225,476.71497925745217,469.406452189151,487.8002389911401,upstairs
4.307178631051753,-0.7211545267725139,-0.48479599832866677,9.77843992669477,0.08737220741047726,-0.3188032637210938,0.6607688482583796,435.9914314332854,498.9746544547734,521.1511984609131,upstairs
4.357262103505843,0.06236151072940489,0.24367649400559288,10.479870663216838,0.8133911915302977,-0.3453068501958971,0.4792318053890636,481.95731663207437,497.7790214193865,472.11986037025775,upstairs
4.407345575959933,0.5282984213984064,0.5605341546519274,11.311887748088076,-0.009319132249235083,1.1826168117512361,0.05710187236380296,572.3848077388244,535.1320989478138,549.944549204062,upstairs
4.457429048414023,0.6878233438862065,0.8519670264967685,11.482814936117647,-1.3086672964676795,1.5365195395204256,0.5014310038559183,538.5783283435715,530.2407237184649,444.1314109055841,upstairs
4.507512520868113,0.7812681350555783,0.6498083106076489,11.06725740788501,0.3738364440603919,-1.4247568334544154,-0.1346135275523156,526.2667559782233,498.49419273401907,504.3991669416138,upstairs
4.557595993322204,0.9750970854660043,0.3683205034236725,10.229636250306587,1.1314119811776149,0.005360356321591023,-0.8765189105176873,509.63707704722833,516.1573032155841,520.5148165208492,upstairs
4.607679465776294,0.4769462553618075,0.2469589918392519,9.394415797174517,0.4121597743974545,0.4196805285869456,-0.31553340672545327,485.0985470085572,436.3294960978075,532.3356881106955,upstairs
4.657762938230384,0.24622573628577388,-0.2995617424648706,8.831473975373479,0.07915785524392667,0.007670902397975249,-0.00503747712782989,449.4784843028757,565.4993121411468,472.92449116153887,upstairs
4.707846410684474,-0.03438405621033247,-0.265241695026057,8.529835578128335,-0.5099530597446843,-0.5729387190418235,-0.4987309749650484,460.2478462772137,515.7930042351732,479.90042187858984,upstairs
4.757929883138565,-0.8913780945403705,-0.44680511876462586,8.376397320793687,-0.754146967311371,-0.06051213183488482,-0.2510672694073948,480.5255878116287,519.1855004161237,413.6049581031816,upstairs
4.808013355592655,-1.0116223922117775,-0.7321833084316047,8.241308814753442,-0.9031768257058513,-0.2131415944930018,-0.42250691833157905,516.1446608544906,475.3776783466725,492.5137501669762,upstairs
4.858096828046745,-0.7648610945689549,-0.2836874430571184,9.086706898933627,0.3563989445554706,0.8345029676113248,0.6806279420247027,442.18971315763963,494.0081379915889,503.5717355339252,upstairs
4.908180300500835,-0.6839069914195519,-0.4077999509649019,9.873573486609551,-0.7950391230954589,0.6338937242069872,0.035373739416353515,482.34187777085805,488.53451426943894,473.12918130625053,upstairs
4.958263772954925,-0.5898427965618017,-0.07709853966050459,10.409145481944764,-0.1951175884824261,-0.26500623213385166,0.17042091258622524,548.0115239689055,501.48652770779654,457.42978767564875,upstairs
5.008347245409015,0.38134853951615333,0.25243249418060265,10.993753761091213,-1.084505056596789,-0.05214768310213511,-1.1204096294892305,496.5217827635303,517.4384108125422,472.7010493358485,upstairs
5.058430717863105,0.7587524257658738,0.8453085425409876,11.682746719692874,-0.22731144108391055,0.8005610261508821,0.5007640953153395,528.4816346806717,454.2045000076338,479.01660649534347,upstairs
5.108514190317195,0.9365063063602744,0.9232950227223224,11.480207973026255,0.5817843539173865,-0.032067320742849494,0.8298181118909023,490.2709072706603,559.0317906255216,412.2563024696628,upstairs
5.158597662771285,1.0314377249978963,0.3288546740031438,10.828967001439727,0.28633004578461363,1.2435512398075534,-0.8266074356670537,518.4616689390591,449.8310108471644,450.166782989686,upstairs
5.208681135225376,0.4770586127456152,0.447424212108236,10.128833687868251,1.4130055632027478,-0.682300136549181,-0.35088626382784904,523.660323543545,581.3701440681644,516.3273235184814,upstairs
5.258764607679466,0.49673660881697607,-0.14050468026460264,9.130055287291158,-0.06411117088919825,0.9112609695873232,0.1548439174021423,506.8783692818009,520.1706685208521,502.35836557195614,upstairs
5.308848080133556,-0.3610851280314714,-0.0006861506505195791,8.558570767838484,0.05191083254439322,0.22702374524184857,0.03691292353386664,525.8486002760594,491.3886301868198,506.62379536935947,upstairs
5.358931552587646,-0.28909306528722334,-0.4637479629250763,8.327365439849968,1.2016984190051079,1.0517402340480746,0.35246504544737595,579.9628617429241,560.6831739141085,439.0316389839479,upstairs
5.409015025041736,-0.9991891021344526,-0.8045862139129965,8.28581352293038,-0.20969701393668227,0.2491610459096114,-0.1512189266242891,522.0366049684707,471.7394406919982,331.63663618084286,upstairs
5.459098497495827,-1.027631706347351,-0.39217187089966676,8.603075738445275,-0.2276446077563737,0.12235566259097497,0.02111888819955204,546.3375555249335,485.7460557702214,480.10969503035847,upstairs
5.509181969949917,-1.1290595709999542,-0.5562110519820447,9.193588657777248,0.24214600027797958,0.06535377651202491,-0.14323310207956047,457.64144719949314,476.59391716024254,500.0942530587517,upstairs
5.559265442404007,-0.8230572682255827,-0.044781812712641714,10.513967377878455,-0.8004725174456228,-0.45174719840685673,-1.2328535868611117,493.33547701073513,456.91731254041974,501.5374690284455,upstairs
5.609348914858097,-0.20572107584490645,0.5199707172584949,10.60595900672117,0.4370027343816762,-0.41090678511842016,-0.1528404907358289,484.3999127655492,477.25059795333783,484.7613022837504,upstairs
5.6594323873121875,0.3931257182402651,0.4787284344975057,11.048345043075681,-0.9155329639863106,0.23689608655627506,0.27743391110724047,436.2850888897808,509.29035316229704,468.55989585695175,upstairs
5.709515859766277,0.623820792441651,0.6857871505352553,11.477339451662884,0.2283002217689735,0.6304287003243093,0.038573043738476205,447.8459691179472,494.8792383664581,501.3716291768608,upstairs
5.759599332220367,0.8553471389108762,0.8840885380954113,10.75626256821273,-0.6418333297094941,0.5862176307365503,0.9518639505865969,574.6561317477792,486.52950136194045,521.0194922940534,upstairs
5.809682804674457,1.0987321014107965,0.5589236841463743,10.093630750621971,-0.5934551125368387,0.5600490157666276,-0.5302291746231416,460.41588764674594,483.8162260739546,504.5748103335888,upstairs
5.859766277128548,0.8040237791016511,0.10858707324303064,9.84752340776059,-1.3609336673648087,1.2738886969917136,0.9641057220785886,468.12836979218963,515.2196665498642,521.7056151346894,upstairs
5.909849749582638,0.059739576171217126,0.057532274599930655,8.625782534929066,-0.6872300491507319,-0.3291200807073968,-0.22820553455394546,484.4828267396861,581.4722341520729,484.55723850355105,upstairs
5.959933222036728,-0.1747367768662857,-0.5052332083254312,8.262090497087035,0.3937281389302913,-0.6864746289263313,-0.39274089193126693,520.7138118990416,472.66920773906264,456.33026587325077,upstairs
6.010016694490818,-0.8886315069806998,-0.6554261671953165,7.90526331546389,-0.10653709154062313,-0.9589518728355348,-0.6788120790234886,503.29505619911976,574.7451329368448,508.3926538557855,upstairs
6.060100166944908,-1.0198865064809173,-0.5223557772435798,8.54864468406449,0.5850908254433305,0.3770695739138343,-0.9238301529755355,567.4613019600289,413.63028960376823,488.7707324194734,upstairs
6.110183639398999,-1.2888954508826675,-0.518866155318576,8.683000919207869,0.37182833519319924,0.4704265603803748,-0.48419248307190177,524.6168238303068,495.0824756564301,554.6876526974289,upstairs
6.160267111853089,-0.917593094267489,-0.500200853594051,9.984897712637576,-0.4404929925007786,-0.5947678141314827,0.42277740256956065,556.1458254761225,452.86477691422255,448.36567689664383,upstairs
6.210350584307179,-0.08189029559871108,-0.02382950717846133,10.488657306289769,-0.7634642281502422,0.7452466183555037,-0.7060124250726533,508.4023928957285,478.24910408997033,460.8028319717211,upstairs
6.260434056761269,0.1417104964360767,0.36687197804685195,10.734451161216827,0.2003413691996398,-0.2527181595864918,0.8515392990462937,492.0322692818279,527.2582725315033,517.2904311227094,upstairs
6.3105175292153595,0.41894497084863336,0.3476868570358447,11.099755676017836,-0.13727990229138531,1.3394522940052964,-1.035096546710586,548.2670684777933,435.1017109290034,511.95789257383217,upstairs
6.360601001669449,0.9144983838585529,0.647085204688544,11.49272526476496,0.5595336393717777,0.12486014136848983,-0.9150887200128912,528.1955868660287,495.8691058311099,468.35454826030417,upstairs
6.410684474123539,0.9543846976484806,0.7488073432532283,10.59521557000052,0.07912927030042616,0.7732295427249641,-0.6498194720410778,513.7374040432796,496.6799612421906,500.25831030154524,upstairs
6.460767946577629,0.9587594585064066,0.4642594105814096,9.854345004314228,1.1489782003005573,0.09837251032342374,-0.8961513973476883,454.1621016037925,512.5019961912363,568.6345041909578,upstairs
6.510851419031719,0.2467240762055985,-0.041665624279970934,8.855368353156528,0.034873210070247504,-0.26738172492066237,0.35078633123293035,435.6847763465877,479.9250799127159,479.0679030003216,upstairs
6.56093489148581,0.15553079056761193,-0.003030872124258732,8.661771335933961,1.565798130408215,1.344245990945145,-0.3142330972039799,479.133355815637,469.8789013867647,506.6641656826599,upstairs
6.6110183639399,-0.7639046150991053,-0.674341132911173,8.216663070418422,-0.3890759142992672,-0.20230065382611961,-0.5180987557972618,537.0285624323159,484.835722314976,451.3296886667402,upstairs
6.66110183639399,-0.8263341389453674,-0.6615067482130927,8.212302639652572,0.7075659663989288,1.489577621486038,0.5995027458553971,468.84662763291976,418.0928142409216,511.76292197277877,upstairs
6.71118530884808,-1.3337484880550132,-0.5306457386569432,8.665351777215905,0.5767644413602792,-0.5174885422640306,-0.3074877318560827,466.74179064145244,463.6189336283773,443.33373903529207,upstairs
6.761268781302171,-0.8203278458654655,-0.7212236805775474,9.215447411884343,1.3619561348330556,0.8400344990018422,-0.07747085240449193,551.6736254381786,493.4071073383284,445.11471462782146,upstairs
6.811352253756261,-0.354755257276711,-0.20789957746497195,10.4319145045298,1.6999654865282396,0.5602100034263175,0.5435289559563211,552.4717421864806,484.31284455428045,477.52675967860773,upstairs
6.861435726210351,0.009969914119267814,0.5118804830591456,10.956161670406704,0.9820596295035653,1.110722705822113,0.09084113510890737,529.9566627842512,466.2595333451926,502.29902059541155,upstairs
6.911519198664441,0.5124085644053789,0.6448252907053051,11.404135264915531,-0.946517568474934,0.8207516121040798,-0.005733345993277368,554.3571405756752,456.74305171770953,491.42265293885845,upstairs
6.961602671118531,1.1047504132928307,0.5665331702781526,11.381315848950402,0.20621453932050585,0.6148130616435675,-0.47279066179071944,463.3443975873166,464.89867088107184,514.0541436213149,upstairs
7.011686143572621,0.7494460207854833,0.542448412006338,11.048513971064875,-1.376656461316275,-1.3933246899256082,0.8791277318104722,531.4440183853584,561.5311219126486,493.10893531901957,upstairs
7.061769616026711,1.0773574478669035,0.4035278172771303,10.416392822138139,-0.16776519586530533,1.0052380054175465,0.38879782615145725,607.1371801760179,572.2258934023879,472.70812546741894,upstairs
7.111853088480801,0.7301951826971228,0.1746517121608579,9.392964023908418,0.10996097417588897,0.2991435407815386,-0.31747327807830433,530.7836987099217,480.0957363575307,529.4694493493773,upstairs
7.161936560934891,0.3296118571264109,-0.3034957641880024,8.53093353014498,0.7908874527329959,-1.3769330030245734,-0.2610117382174339,552.0953250605561,507.7026947580685,546.1042874640693,upstairs
7.212020033388982,-0.09802807728166896,-0.6023400945294184,8.104806045253065,-0.2702277185849775,1.0006560909105149,-0.9786841564954428,487.3599442121145,454.06514010404715,521.5682840365145,upstairs
7.262103505843072,-1.0915771913049834,-0.5700655572819999,8.39236462716329,-1.2923198692092353,-0.15747444102991479,-0.28108630147384833,476.9543734341438,490.48308980732025,479.95412251852025,upstairs
7.312186978297162,-1.2357275074678398,-0.7874745748709091,8.635597938540366,-0.6062189919120471,0.1622013014870926,0.2684180955554725,442.10998820948015,506.68078020964555,492.0716983062185,upstairs
7.362270450751252,-0.9136617178973694,-0.5591399282325062,9.374840299949078,-0.31753633729956793,0.4977928466488501,-0.09525702093648752,511.3099012771233,526.1835424690732,497.66907440710054,upstairs
7.412353923205343,-1.0071502679140545,-0.48083298593627016,9.947937904322607,0.5269134937071346,0.43571190988742553,-1.0367746858503366,476.52960671756927,444.1849766701764,508.1890846381827,upstairs
7.462437395659433,-0.2168238347586141,0.09777345113230501,10.747410027257864,-0.7635951224223364,-1.063123862711114,0.24606288834056708,427.8769076986703,515.6668704221051,556.8811289413677,upstairs
7.512520868113523,0.5378806357744641,0.3360773552758184,11.057876527598351,0.4212775972979349,-0.3057196349022443,-0.37343051099420405,481.20299938871455,550.7046257866268,537.6966226416508,upstairs
7.562604340567613,0.8679389652377066,0.6111461561478206,11.576769083384765,-0.3582013031478198,-0.5237314519286056,-0.09877585281156331,454.17354404425413,473.70936936737394,543.8569511432233,upstairs
7.612687813021703,0.7223381576942752,0.7967940785552778,11.2659940538865,0.4278522390046914,-0.19873017556481282,0.3269904345929236,449.2143921345174,441.5493960354597,479.46387569993453,upstairs
7.6627712854757934,0.6538147489126913,0.6977493602231457,10.707948302003619,0.3366735581777427,0.29681076720258365,0.32454592768303414,495.0800112881163,528.5753464088552,532.9363454469269,upstairs
7.712854757929883,0.9017915670803934,0.1263227927939948,10.250450315853492,-0.007993695569194768,0.014067145873463324,-0.7794711606409037,433.14681519487425,551.9500501110055,452.7637271977032,upstairs
7.762938230383973,0.36707369321825745,-0.2581936025111322,9.173607223842497,-0.2523748102076299,-0.8161896049449485,0.42639855643889013,485.68393717208454,455.6837994841555,509.71553848236397,upstairs
7.813021702838063,0.032976314360499956,-0.16666084488877814,8.362101888145101,-0.24030999843206677,-0.1447597708922936,1.833406161505449,523.1762385554241,501.1153657356907,510.315544924649,upstairs
7.863105175292154,-0.8186089820732332,-0.3003544529719535,8.345139093194911,1.7375743123845464,-0.2940142185772269,-0.059666754180045814,450.5394252020252,531.6120344587415,467.50253432398176,upstairs
7.913188647746244,-1.131816380631611,-0.33377883287921334,8.37185296802163,0.8057286486384883,-1.2848385203425503,-0.008054871958040603,455.8785674456568,504.9196262558868,545.4470495120628,upstairs
7.963272120200334,-0.9079107548470122,-0.7792492500952171,8.922093606259518,0.09279224891141771,-0.28686115844468435,-0.10773459472420661,496.2397404319572,468.8404738913759,503.06335416205314,upstairs
8.013355592654424,-0.8383238900930792,-0.19188730939510895,9.508310361183945,-1.1978824477154801,0.6899819756540436,-0.3650696084870001,489.76423515216413,508.3452122659493,463.41936750610853,upstairs
8.063439065108515,-0.5498115859566501,0.47815640788981767,9.848424196251042,0.7919260864117427,-0.5569258531593954,0.44008213648641187,450.42764249137423,538.9533400091772,575.8203847360897,upstairs
8.113522537562604,-0.12213285461201255,0.25418803658736816,11.13576193347608,-0.4156589299087261,-0.7621047021355682,-0.29982386388193927,508.1557845079967,520.0560004631852,417.07486766769193,upstairs
8.163606010016695,0.48067927890223056,0.6966589376449175,11.332415961493037,-1.7283601200957013,1.1835473467099211,0.5299093502014297,504.64924446263365,574.8471086063917,469.7542825031847,upstairs
8.213689482470786,0.7477900613357944,0.8427631598501606,11.765834832627515,-0.6312986606308797,0.7404138358061527,-0.37926689334703734,492.87314694841604,489.39018217752067,475.4931674021978,upstairs
8.263772954924875,1.132517843683615,0.24952150136627987,11.08183127832157,-0.4036857009779447,0.5283276248076842,-1.0052737700700514,515.8766562322347,539.4741447999135,561.550226383549,upstairs
8.313856427378965,0.9368490450824815,0.6203669768997611,10.581690342533088,-0.1877315291281889,-0.4747707782443582,-0.3518916048933105,480.55334866767487,543.0904280375729,487.4488547066963,upstairs
8.363939899833055,0.7777554158436509,0.08265852120374378,9.735494457117865,0.38345892274607263,0.6411265031573529,1.4988760916441557,533.4101075978793,541.4470255885358,517.4786417749931,upstairs
8.414023372287145,0.6113722362371465,0.20051031161746988,8.745353807900704,0.7932603586966527,0.7490635937794509,-0.3547920842422599,503.4636426782916,524.4490595877662,450.2752733444391,upstairs
8.464106844741236,-0.19994106711023507,-0.9464881895381152,8.269612433521763,-0.6025962477505408,0.12319480343995189,1.1165889626634244,508.0246876941068,530.8066224088282,474.51354467832533,upstairs
8.514190317195325,-0.7818501781885152,-0.8162034197563088,8.012418981962334,0.6618900987420001,-0.8121397542025891,1.7326057197801195,486.4391174032825,488.45061957288914,525.8289667799735,upstairs
8.564273789649416,-1.3165685184985771,-0.9195292863173612,8.829410344417571,0.12121702342264547,0.6150401894667843,1.336768729216568,564.33384819177,579.6798395574267,527.7322748000553,upstairs
8.614357262103505,-0.7999625025079947,-0.5569227306637137,9.160672047547292,0.05446353873710481,1.0295534278145377,0.3166625493169639,463.5010125860185,450.73385425290445,508.3327432040486,upstairs
8.664440734557596,-0.867031148989889,-0.7126101761249846,9.545755003880135,0.8106999741926212,-0.3883563765520616,-1.0737079923718809,539.5780057669108,484.29746815683654,463.3450690265662,upstairs
8.714524207011687,-0.7170038366985994,-0.38324147406834963,10.604079039954527,-0.8141018256846794,-2.009890940235222,0.5222639135786868,421.2126608044339,500.57501158131225,457.62336028869953,upstairs
8.764607679465776,0.028930198053490855,0.4527072316176416,11.337598433739982,-1.120284747261162,1.6612667042895972,-1.0529786883237833,510.2941590125962,458.2128397087555,455.3639446519675,upstairs
8.814691151919867,0.6953640957042929,0.7508943486544928,11.527449401007553,-0.10254049775758674,-0.01419094270362641,-0.39028442453820084,470.4805898387599,524.9320187415789,501.5664826159937,upstairs
8.864774624373958,0.7666731455153931,0.5014151414615341,11.608186561195105,0.6637097581400896,0.2136647145544305,1.00714437832673,479.2859616908265,546.1106110284679,528.5346085686601,upstairs
8.914858096828047,0.7060822606024522,0.3290971916014745,10.453153011294763,-0.25202790143424,-0.008169928543297704,0.2602750178992712,422.3207794527285,497.9415845986296,543.8654315594852,upstairs
8.964941569282137,1.0217199553492842,0.30837349164601874,9.789466072899547,0.14360516804601434,-0.6407469537438165,0.8094290414708417,465.39117079719693,571.4880692617816,521.9985210502376,upstairs
9.015025041736227,0.42499194435690185,0.12353842615123536,9.203706711017842,0.2538640357361221,-0.8991004826186286,0.0691215498872285,526.9018530713289,409.1691922326935,475.3757187717739,upstairs
9.065108514190317,0.06623514745291849,-0.42058154427973693,8.361632082659778,0.01951251084720824,0.9215111680470497,0.0009948628757820083,400.6547306028029,522.3300542704555,508.46787238592145,upstairs
9.115191986644408,-0.5358915086654067,-0.3941441055445002,8.323403542125801,0.2043020029522818,-1.4439762024855052,0.7462735809427133,461.85344135543653,497.77961598775335,468.984431595885,upstairs
9.165275459098497,-0.8097432532381986,-0.640035354709648,8.391812980028444,-0.5634681963601745,-0.12196997480576384,1.0247827461157257,479.13358445125886,494.42502441489415,478.0974485859802,upstairs
9.215358931552588,-1.0042639165960319,-0.43377979717102033,8.807773051279085,0.28998854328718343,0.17908462827249785,1.7622276273819593,366.39320306894007,500.51281214388354,544.7078910971613,upstairs
9.265442404006677,-1.0363386061672506,-0.35191545224334986,9.474882212404461,0.7791568746417837,1.041131892377569,-0.9764001616972062,519.5060618311356,427.60467500648923,485.38443123012667,upstairs
9.315525876460768,-0.4912600795612211,-0.45640715510904745,10.38108898467792,-0.2746589934441209,-0.5216758889315877,0.40837378093743876,474.77357349841475,536.7774847796138,531.8470932652469,upstairs
9.365609348914859,-0.25780773670371465,0.589967788565599,11.081695843069832,-0.6742804288074672,-0.956781750978552,0.8621192774913384,511.7773893606406,501.8548404102657,432.7016554869397,upstairs
9.415692821368948,0.29079075567400736,0.755854498222295,11.432368049585909,-0.26182133291410165,-0.5488850746777103,-0.38642794541063263,465.8195847151609,511.212812553591,546.9689415404288,upstairs
9.465776293823039,0.5947165638666226,0.6656681152763109,11.224530013097857,0.08681664449298776,-0.34378510895631426,-1.4007853000161214,500.3807297812529,509.419947932508,506.1557291319048,upstairs
9.51585976627713,1.0515218841279195,0.7213191907377678,11.163283117796881,-1.5041720184072331,-0.1754915861798879,-0.7919629012832793,494.62607740682273,521.2499438745328,504.2533331144598,upstairs
9.565943238731219,1.1494682404063852,0.5287172308701205,10.366843459285171,-0.5676714085376888,-0.01599245594765595,0.41907383191759,544.2069764554625,514.2799553344506,535.6588096114547,upstairs
9.61602671118531,0.9678588572183936,0.513832315152491,9.336551532992269,-0.043517601820509955,-0.09410923972284031,-1.1715170578387246,573.0476225112936,520.2811238600578,567.6352624573598,upstairs
9.666110183639399,0.42801281877277003,-0.06595133085660082,8.795445793246358,0.11122314177806132,0.2708680723170726,0.009860173043059675,473.3914563575391,489.28868443125134,451.6489984050972,upstairs
9.71619365609349,-0.37110435941016534,-0.44611266735663097,8.180242883285617,-0.7891504966215428,-0.34889613222704463,-0.5145858729117592,516.1391225423998,572.5986658018993,494.21863702213017,upstairs
9.76627712854758,-0.783714944349077,-1.0118699797261184,8.54140948917334,0.7386104756457729,-0.29332148712159256,-0.6513481804645302,451.6155294071235,495.4648463737928,498.91627494705835,upstairs
9.81636060100167,-1.2049767878051014,-1.0604223333546208,8.574971618153354,-0.1039593699804453,0.9237724922582575,-0.6932541925015574,574.6174040122903,442.19600921128506,524.2372734287632,upstairs
9.86644407345576,-1.0127549570011696,-0.4250817990300843,9.237586078485169,-0.23086820041007647,-0.5682792398401894,-0.7431382781958058,516.9085981923267,515.6891721755918,448.42514459674317,upstairs
9.91652754590985,-0.5280612928506515,-0.6342977057969577,9.678896706918822,-0.5738421247063266,-0.8627558466395489,-0.7796108253618932,511.7353185398834,503.16561860755735,515.0674653979078,upstairs
9.96661101836394,-0.7490370839360148,0.04388397060253378,10.618890883567422,0.5532612719459126,0.9492562985665228,-0.37107994844070996,456.60846205785316,529.3343409966843,505.6594974982538,upstairs
10.01669449081803,0.20744776059490289,0.5733134356668255,11.242915028031227,-0.13170509193316587,-0.28692232744213775,0.15222457962478647,482.0480221244407,462.95699750917424,473.3404369570976,upstairs
10.06677796327212,0.6233687659941509,0.48985790690702663,11.282873131792321,1.062938291959976,-0.0027205877327060235,1.0157585149060153,428.40937644879324,477.4809947368077,471.3285306100284,upstairs
10.11686143572621,0.5572638487442924,0.8582588357188299,11.308219327465125,-0.24988986323627346,0.31654218249591687,-0.3998941285957412,494.27407169978767,494.91790478251716,555.3551304218271,upstairs
10.1669449081803,1.1471685225962882,0.3273800970526317,10.233511319811303,-0.07051746917778995,-0.9374174401103956,0.300931981016098,500.56586758311573,480.38399857120754,529.7961434283905,upstairs
10.21702838063439,0.8905777783901442,0.05707522657593417,10.078004699645705,0.7358867901769961,0.5863444010668766,0.9333179057397291,517.4250449217952,475.6599039311296,461.654766412768,upstairs
10.267111853088482,0.28668762450915214,-0.3551186262298307,8.896064878721603,-0.1814527351652095,1.9269131632471235,0.2896871915813161,431.7111375827316,561.9635224954939,514.3902541221988,upstairs
10.31719532554257,0.14071096470191635,-0.2683274426107147,8.342720214727436,-0.18083194648233666,0.7292457577756277,0.06862481127880908,462.2184390042493,524.7496066112764,506.9275245246243,upstairs
10.367278797996661,-0.642504667422743,-0.8103358800415212,8.395511640594925,-0.5802010015363722,-0.17002904211690417,-1.0220579033205075,590.6977578290598,496.8415988424145,439.49065580532067,upstairs
10.417362270450752,-0.9652974102832361,-0.4270871205680696,8.667094690878152,0.9249607374478422,0.014875744990241477,1.1265661809376621,489.7803835236001,492.8440384375197,535.06426110752,upstairs
10.467445742904841,-1.3318248434195148,-0.7240856713872721,8.956217139919389,-0.21265001381518603,0.28299386545808386,-0.1418442556130052,471.2913362612683,549.9746725233273,502.0384730169985,upstairs
10.517529215358932,-0.6288804014502729,-0.16948767773663645,10.259217370802334,-0.8535873189997994,-1.2899681201722508,-0.426952607015925,542.9023233148557,535.9783335367943,597.4386025069376,upstairs
10.567612687813021,-0.4982906422572402,0.110288636283018,10.270579744159882,-0.4472911055106091,-0.4622500498716814,0.7507035684510014,495.618429564832,458.2763593163245,533.4769211413471,upstairs
10.617696160267112,-0.1120903369431786,0.41274444140446676,10.705727390865171,-0.27691989771496867,0.12074152839689131,-1.9171028528301226,464.99462038192524,522.4310354162158,495.3166186419509,upstairs
10.667779632721203,0.41345244106252255,0.7186617463424108,11.07938917253792,-0.2183451929469133,0.6646598094737124,-0.06210567208312453,564.3334325301462,556.5369182471225,576.7120074274842,upstairs
10.717863105175292,0.5664198076986762,0.847223451587213,11.110361949544917,-1.0780833073027694,-0.4486782965514528,0.9535551011077433,457.0677414622491,459.9047207661993,510.14483866071726,upstairs
10.767946577629383,1.0074237862355324,0.5012964495940204,10.66771257948189,0.6419129651197106,-1.70109548971917,0.4176788969598335,506.73896177882153,534.4949172758631,487.88171479245085,upstairs
10.818030050083472,1.4044377309437857,0.5389825400189896,10.350473824546077,0.29674548823375213,0.10646389643258389,1.6731123972847746,563.8654525725449,569.917025231201,510.3105912209852,upstairs
10.868113522537563,0.5717096150296559,0.20208821878131755,9.62031716311226,0.5693788025300383,0.6658555559361631,-0.6693289595309436,537.9209861181934,493.08414735626246,565.1683297380029,upstairs
10.918196994991654,-0.03461052951920876,-0.18949466458432718,9.227979272952046,0.20841103559475735,0.5053492064764267,-0.2322853100973155,463.5382073285223,531.0360830152014,512.6841434007781,upstairs
10.968280467445743,-0.17110588640075422,-0.18730188995105373,8.600623848440524,-0.48777545654837223,0.9073986472888717,-0.10008787430737087,521.5177355425344,505.82102727324786,468.0082714450468,upstairs
11.018363939899833,-0.6574485301467227,-0.75238351580089,8.226244986839243,0.29485892014870746,-0.2089398578480226,0.20250956915381302,477.0493428019548,559.4345406402144,422.4872056077851,upstairs
11.068447412353924,-0.657767021133095,-0.7345342501512642,8.475564149421569,0.5888111859404889,0.36269798468707004,0.17760443515105576,417.93088692275694,473.65390420588614,442.3193582839302,upstairs
11.118530884808013,-1.1977188524127105,-0.04168793068628546,8.975947919412947,2.053687373756162,-0.15882583599301528,1.6313727238593019,525.9326378573847,530.9941119927018,564.5535327943393,upstairs
11.168614357262104,-0.6794322029228688,-0.17274631938651203,9.747355578963145,-0.14233451174742176,0.44791811419174504,-0.3244921713757199,577.5031666482744,523.4078317508854,528.8874393308672,upstairs
11.218697829716193,-0.512499996599276,-0.14318475623619795,10.582494964759654,-0.6878601068271301,0.22808479235566936,-0.23745627118810889,473.90536286006665,513.8020232565221,596.8532277275245,upstairs
11.268781302170284,0.13273158482500524,0.20910921992942338,11.287957955382652,0.0994615966409014,-1.2877289061855237,0.359635294232289,513.5084266150487,530.2884581298927,486.7531397663487,upstairs
11.318864774624375,0.5545890062164216,0.8619240901607053,11.538024394537201,-0.45970804173526303,-0.19786255631942,-0.37567709431856483,562.8926412028721,477.354590416499,468.2274090299209,upstairs
11.368948247078464,0.9850233647089653,0.7639886980764976,11.094927577225423,-0.2481506856585094,0.26863366530631166,-0.5386258040176329,505.70114044831115,483.56024387627974,450.9673319431246,upstairs
11.419031719532555,0.7654892531366985,0.7839828067822436,10.761633675409577,-1.5907874987239736,1.11580617441151,-0.3878162307680682,521.1167935741703,504.4868710834282,427.7646401577559,upstairs
11.469115191986644,0.7011528112008807,0.6890839737683809,9.705134146851755,0.45317488117392973,-1.1930336750914596,-0.2701670491205509,529.8426111706573,462.03911083401476,446.2165224245562,upstairs
11.519198664440735,0.43836328359056526,-0.5291160889635615,9.167521334130686,0.30359142365419006,0.6005815622715516,0.4000099489281612,530.5337926368816,457.95031134558445,491.1941399625211,upstairs
11.569282136894826,-0.06008410974790826,-0.233742587013191,8.601583496085828,-0.39243177696051396,0.26272949627387027,-0.5352429617199754,520.1441618434503,577.584170916081,526.9945629317119,upstairs
11.619365609348915,-0.6443924890277354,-0.6554008341989002,8.283505126129551,-0.7225458618479598,0.16966177193071377,1.1653974314650228,498.3403883506032,483.1883956809038,520.2426066317598,upstairs
11.669449081803005,-0.8877723458696363,-0.5833714669576637,8.336773871648873,0.1901417118668637,-0.7424263805328976,0.5694981045459939,503.93948045382876,463.66458207057985,450.25813955378175,upstairs
11.719532554257096,-0.9240684793486916,-0.45038196320993756,8.636199570860134,-0.23895365808442554,1.1551982920977821,0.9358881151264143,559.6178290848984,552.6567358454224,478.843687036349,upstairs
11.769616026711185,-0.72906853057044,-0.3625412667742062,9.606217039722942,0.9410256618742141,0.5614913880880368,0.4427768117632897,479.69145083103064,486.958552152158,502.5102973578702,upstairs
11.819699499165276,-0.17520100888884127,-0.02484935013018144,10.41578188415163,-0.9386498160931012,-0.2832885949212121,-1.1080165954784025,426.1688880005962,499.271259055463,452.9242960907413,upstairs
11.869782971619365,0.24807225001333,0.018350326674311968,11.232263224175648,0.329381306139572,0.5360506356890543,0.7791753427688779,495.4770549397038,459.957402571977,468.51101804297394,upstairs
11.919866444073456,-0.02300304738560527,0.9312291460577473,11.458092681559807,-0.2640573654102695,-0.46406319970421833,-0.3036421962413532,498.54065265786215,573.5054179431484,555.338963177491,upstairs
11.969949916527547,0.446041575518811,0.7909177299551491,11.26270002835999,0.7644493584800548,0.6555342117229901,0.46583046008026047,589.3442908400216,498.2831078568812,517.7655140633086,upstairs
12.020033388981636,1.0828709541608672,0.3879247871444503,11.353110050192223,0.8604658999754912,-0.6000929410076815,-0.4037070462842223,451.2362691634239,457.7093870457531,451.4133249767389,upstairs
12.070116861435727,0.9255403121506894,0.6652941921158135,10.37397881678853,0.12079570583170195,0.0633954185605035,0.659564078308282,535.5432632502608,443.3304177726001,534.0880595242288,upstairs
12.120200333889816,0.5991638271010069,-0.11014195688995476,9.411489314279148,0.8281580238491599,-0.19689653679768376,0.3031264057570443,534.9343254995231,538.2879121154025,529.4481997329282,upstairs
12.170283806343907,-0.02669941536218645,-0.126590373978625,9.101282649385753,0.3067441065827572,-0.5257600495192924,-1.022216474174801,522.5920536342541,510.23380199980375,515.7096489070137,upstairs
12.220367278797998,-0.3257011824759089,-0.36575359117100936,8.242638017990167,-0.20215063118931106,0.18157603072079675,-0.0528785252541821,521.9824692179386,474.0782395817636,566.4401326695055,upstairs
12.270450751252087,-0.6308252107613153,-0.9305591549295349,8.406757843163017,-0.21868237429328974,-1.7094711972358911,0.19766175777609413,468.7015391348888,530.0404895620676,544.78302609481,upstairs
12.320534223706177,-0.7460701455013103,-0.25946107980895083,8.419990210628756,-0.7168849221354925,0.03836268470513635,0.06420354082498446,485.13529232980886,543.4230283330626,495.6204654834125,upstairs
12.370617696160267,-0.9619597571290818,-0.3387843751243006,9.149614602686,0.8827376184992783,0.5515704822786971,1.8536216307760522,536.0447201986277,433.24819858797184,520.0177608813675,upstairs
12.420701168614357,-0.8217794693649423,-0.3633978889444261,10.082950844405627,0.5303704489269474,0.07772123496729832,-0.4947697149887083,435.03167889734885,421.82804312529936,452.958924075896,upstairs
12.470784641068448,-0.12864416000241352,0.5414178731264442,10.697366066219633,-0.11885551247743166,-0.2378736027631871,-0.6483775703558806,523.8886785263484,441.3011960655159,407.0659867380223,upstairs
12.520868113522537,0.2966418270660171,0.4657043963380875,10.950103604967424,0.9029882740442534,-0.6837081528022678,0.4256760224083087,499.86509246727445,547.2342871904358,485.442499971693,upstairs
12.570951585976628,0.842313644959788,0.70775491464879,11.175566597060943,-0.7059746247572031,0.2849096826382118,0.11616059651940014,528.8325692065081,491.4906216669417,560.1848504782449,upstairs
12.621035058430719,0.47499721673946443,0.5113913279406795,11.193486431247669,-1.6345874765590063,0.6344997513756117,0.4200073988658351,506.3247471736412,446.33164512104656,498.15580832137607,upstairs
12.671118530884808,0.563106455022496,0.5999642815319981,10.325510838061424,0.23661370977264956,0.03304648429204133,-1.1698994998509877,634.595380173682,437.44587912977687,417.29629412500555,upstairs
12.721202003338899,0.44603350593650987,0.44038471659853096,10.383680505699603,-0.019320508380538844,-0.9605089650364216,0.04951075425642137,524.496819095239,523.3037645673471,517.7487021344111,upstairs
12.771285475792988,0.277790691001755,-0.06591461702961673,8.780970036851706,-1.0113807727150135,-0.4838298245499194,-1.3620597307492488,561.0112011015017,500.81933899166756,547.9083064420694,upstairs
12.821368948247079,-0.09569740311024974,-0.6341418886162793,8.191868166836851,0.27716575667782123,0.48028892624104547,0.40234899037129906,527.1827244062933,463.13309741301146,505.865316390958,upstairs
12.87145242070117,-0.8609397423310122,-0.5064171598150291,8.28972443273566,-0.48602858735530297,0.1503443485437034,0.40961364810516404,539.7619917970953,553.0060842942032,484.6537308801307,upstairs
12.921535893155259,-0.8697487415711247,-0.826038536609901,7.791215801691449,0.2093037943822059,0.6303878589578088,0.19319844900279848,522.2808977112064,486.3427645577456,537.7490104895603,upstairs
12.97161936560935,-1.1397282076591977,-0.3004313977102049,9.350553425309174,-0.3617020294180647,0.09328227265107185,-0.18898398885303686,477.2080828385643,448.9893648003271,420.2887648304471,upstairs
13.021702838063439,-1.2385134294136462,-0.2299818465616696,9.568101008029041,-1.026300707834863,0.20218913770484911,-1.2323486028357233,468.26515247630266,519.9076570845281,475.9403442601292,upstairs
13.07178631051753,-0.09814286730220112,0.16691917001396503,10.054769532404784,-0.0494901497856657,-0.6027451494921718,-0.14502226406599406,512.5042498373463,443.65505267166867,470.1717778217247,upstairs
13.12186978297162,-0.09408570066302437,0.3742061730233029,10.893960194894499,-0.4538359756224354,-0.5032426227824219,-0.4100827841255046,507.59985823103654,481.39471980789193,494.0119959515828,upstairs
13.17195325542571,0.4375538730745577,0.7614406301408223,11.390113078626358,0.05262796128000451,-0.7781456856848317,-0.8826407258302177,514.6381286070147,464.8466432331405,536.7011344576144,upstairs
13.2220367278798,0.8009224470518445,0.5589395274850839,11.204530250443247,0.455416053122537,-0.6490389094288569,0.12465277412031649,439.1129479187741,540.3014734978738,548.6153431650129,upstairs
13.272120200333891,0.7564634170222369,0.3829966127639896,11.007506570587761,-0.5043792693585953,-0.6494522334947763,-0.7539746044453811,519.8011843375103,466.95350522930295,532.2376826739949,upstairs
13.32220367278798,0.9093087241019854,0.5608666338534589,10.279265721738094,0.5471410502632122,0.12333607437099754,-0.7108916867321882,512.57535198916,502.2222490547816,502.1260582996449,upstairs
13.37228714524207,0.34214480943954634,-0.09087870442988022,9.467760410917638,0.13030747041319785,-0.28463035767459866,0.6508051949518322,465.4887239486287,541.5001570362925,492.1113852389525,upstairs
13.42237061769616,0.6790356414746611,-0.5492699103631367,8.600896158129693,-0.2683504000832459,-0.9392305351426348,0.7992423002820869,459.9915463265632,511.69387710388145,487.1069773109517,upstairs
13.47245409015025,-0.7257164409809398,-0.5411199126426369,8.295161288615441,-0.5409122459335532,-0.22615319953563112,-1.1735033748455146,521.5150941399176,525.9596741719281,484.49651818342704,upstairs
13.522537562604342,-0.8289691239395632,-0.8649089883230663,8.262689325014566,-0.32390934559834356,0.5367230647872887,-1.0608403887716855,552.7778399459496,506.7210970008472,465.2548278525938,upstairs
13.57262103505843,-1.189398367209904,-0.21876355792002933,8.550110876547514,-0.2566548492968869,-0.06445129113176741,-1.2857004529682754,430.56459294034374,485.056808115744,492.0673921321488,upstairs
13.622704507512521,-1.0170016825457053,-0.4633820080565963,9.103698793148805,-0.2348221798282999,0.11972901778530015,0.3384064798160512,544.1004375825047,517.2172043144816,537.1161882777905,upstairs
13.67278797996661,-0.7765981049031973,-0.14306896376932157,10.062006123378614,-0.843240285113415,-1.5757393928330516,-0.014725012378828492,501.571944028715,475.01622283300105,536.0783763038921,upstairs
13.722871452420701,-0.5193902226155456,0.04162446974682865,10.736511538029609,0.6019342966902979,0.6190417502031014,-0.30277387807990763,479.24219455807554,492.2210573399475,533.9137718693687,upstairs
13.772954924874792,0.13304098583696367,0.7670881417868491,11.150729819773806,0.6088553507018332,0.22950017855941862,0.6045598777477282,528.5197003131125,525.0096995590646,535.4145851634065,upstairs
13.823038397328881,0.8070702295379885,0.6632200272949245,11.84211064071871,-0.04542469793543951,0.2711274404461072,-0.1943909466849011,467.9801755815516,494.02906396164053,537.1058469505471,upstairs
13.873121869782972,0.9979625629750338,0.5988519144525102,11.086612105511362,-0.5211642145371388,0.707568242996338,0.17531789852090338,530.2474839926999,483.4036727195259,448.16422275301335,upstairs
13.923205342237061,1.091887013292046,0.3826263321880333,10.655531263627516,-0.026235605156888296,-0.6692144892164235,0.09264511382005525,485.4150377388554,451.4073220825406,488.48211193275495,upstairs
13.973288814691152,0.9800967313087269,0.0935457190504656,9.891784981399583,-0.2192437453049598,-0.10421386272103574,0.7994171531329095,497.99340087359917,564.2712493238619,544.0081628039306,upstairs
14.023372287145243,0.5013003867965165,-0.2562065896287415,8.955463831862481,0.9216163352630612,0.06537574425415654,0.5629184084895622,491.83576302150226,511.6552062008284,489.7903521288852,upstairs
14.073455759599332,-0.04548297491623249,-0.4150504791666883,8.201093813089686,0.11475263494810882,-0.39662348114704643,-0.34363378326545246,510.0548580656627,460.1832771419372,543.2541831134698,upstairs
14.123539232053423,-0.3767712893530351,-1.0477065371285572,8.099383105765627,1.0289498976874367,0.431343489766875,-0.7892932184989482,481.8824869804985,557.8412443915757,467.4590939320357,upstairs
14.173622704507514,-1.2357073462454684,-0.720013112326582,8.560098892057693,-0.37221600432261687,-0.5468155698219347,0.04558591782516926,509.88948176199415,474.6429221908615,501.054071810265,upstairs
14.223706176961603,-0.960294822089843,-0.4732003542172048,8.51093393727507,-0.15136673038834267,0.44529765429447155,0.9338115144344817,496.7036953748517,493.0731907050706,587.1276229401238,upstairs
14.273789649415694,-0.7359081691551649,-0.16076281590625235,9.783713175423808,0.5000468761722898,0.38329674370915306,0.17749770856291203,468.5081642356852,585.7341380291788,450.5481743786347,upstairs
14.323873121869783,-0.362721271656961,0.05108577381325306,10.24457066229731,-0.7704383681284679,-0.4155618167659205,0.39685749374379,491.43637709897445,527.1907171002971,531.0844243825417,upstairs
14.373956594323873,0.05734639002575061,-0.04991020040754346,11.127433532214377,-0.6975588846109562,0.7114761425857945,-0.4299783966442226,489.1523596010069,550.8556049960214,508.8621241526218,upstairs
14.424040066777964,0.27517572839276494,0.3566398208294175,11.412378597823585,-0.631215930979484,1.2306994265337914,-0.2826992673013054,462.83223335524264,532.1940571737573,481.72010534596967,upstairs
14.474123539232053,1.012508285019675,0.8958255293814932,11.418871088943497,0.9175547271337465,0.3483185350460607,-1.2693888262118598,518.5120869455069,413.87704055227846,548.2857210046699,upstairs
14.524207011686144,0.8777336499915136,0.9068102290091757,11.17858576139539,0.10494734891632887,0.03464586951351708,0.9873634740349355,509.70422003828054,492.94133285725013,442.1495417491119,upstairs
14.574290484140233,0.9951969965139288,0.46309695422130953,10.282297320975353,0.2039837941397134,-0.1531169017531193,0.035704843512071704,498.60616322069046,488.78241681025276,521.9757166194296,upstairs
14.624373956594324,0.737098791400219,0.38827401457507643,9.389670958632385,0.21617652024805648,-0.6649839685782932,1.5852965863596198,396.5471923814551,412.6792502248273,463.0100249199463,upstairs
14.674457429048415,-0.06013075132634707,-0.3630989315281659,8.830911831095833,-1.2259337750244665,-0.1470248422534865,-0.36448841078480054,533.2193450209758,537.1974281684709,528.9917050366194,upstairs
14.724540901502504,-0.4133046241253566,-0.5105199064955273,8.295930631769481,0.20025303657367402,-0.03664625136219746,0.4383799503968327,489.00469590000097,543.1022382782508,539.9036799891583,upstairs
14.774624373956595,-0.5933898170528312,-0.9361197571020579,8.283181182787827,-0.17039674494475834,-1.486554344747583,0.29165553487424273,541.5812978665541,479.5196748728081,435.18770996380925,upstairs
14.824707846410686,-0.5324369123811393,-0.521751489085297,8.798240293079468,-0.4847620903037474,0.7550307068822281,0.5845207762555914,456.9466540201847,526.6906132509015,502.10763935451797,upstairs
14.874791318864775,-1.0401682736772861,-0.5743862810249085,9.32871929205416,-0.314790887709115,1.4707472119489764,0.2065689025836896,543.7809860808263,517.4179620482561,567.6433995281471,upstairs
14.924874791318866,-0.8177686246824009,-0.151506130320304,10.058381637716575,1.491913007502134,-0.751906461442661,0.09898630951536472,537.082756929638,482.772983576162,529.5800173812133,upstairs
14.974958263772955,-0.15369395332520447,0.20436812086818612,10.733682809882325,-0.4302963244676157,0.06530030021806228,0.026541477315483224,485.1544099035714,516.8170185171346,507.41636811580423,upstairs
15.025041736227045,0.45654686704866015,0.535112528862268,10.946794402550402,-0.4779313165349722,-0.21456227433613348,0.38856349145146396,565.2391836262734,466.3879347715038,483.6321236403927,upstairs
15.075125208681136,0.6691814337944662,0.2387459750800694,11.240149895101514,-0.0943669361138696,-0.2042491604402116,-1.1758768979933345,540.6693703648526,462.72979462963224,516.646623486102,upstairs
15.125208681135225,0.8554124079611145,0.3869298123240226,10.867372051727825,-0.4114267125016423,1.8589881017888068,-0.05008071541887171,491.52913485428724,480.38012552210466,563.7127134146135,upstairs
15.175292153589316,1.168869268263181,0.5439167229732204,11.112835231683686,-0.23021661704283183,0.8125238090633263,0.08345340444340303,497.811681339658,510.83603970600757,488.0020666565362,upstairs
15.225375626043405,1.2531451559669293,0.17267417510034994,9.705364589398378,0.8974778942399941,0.5657821337884004,0.7649454742962882,503.43903757289786,494.3726341276638,567.9338677069627,upstairs
15.275459098497496,0.18680632109758177,-0.21028244752082265,9.242151546773696,-0.35191355147844977,-0.14510265840019596,0.016490252946331205,524.8435698325018,504.0492439713561,509.37903905183265,upstairs
15.325542570951587,-0.4084201146970906,-0.40027285352405084,8.4488729561782,-0.24715105749510474,-0.2038537806414154,0.16740285097691485,481.8670826294306,545.2132803205275,501.85663035571383,upstairs
15.375626043405676,-0.7973191126829327,-0.7657857637362995,8.394390970391424,0.7742588309981379,-0.5028470883866071,0.28923854469363874,506.3171029626444,473.841786657366,505.1237141971759,upstairs
15.425709515859767,-1.076409688558909,-0.6784426067319196,8.062898532236677,-0.11890279942967928,-1.0269119313418835,0.5749433021279597,489.17848574337773,455.24677154095616,505.7028467360525,upstairs
15.475792988313858,-1.0074672532786677,-0.8540485798720703,8.88450783764714,-0.3786950971447108,-1.0137788532582064,-0.1377824027285476,415.4959450884273,450.317364341604,489.0480475988546,upstairs
15.525876460767947,-0.8028861818590635,-0.44751070340337057,9.842004837434393,0.6254177274203102,0.6968046722477527,-0.6798085714739329,523.259045482695,453.2908493460538,534.083849011922,upstairs
15.575959933222038,-0.47348061045030304,-0.27127875230630494,10.222949210131963,-0.05825210959902025,-0.19668177521221658,1.2783016898227149,509.73344532046843,528.4970452117573,453.64023585061744,upstairs
15.626043405676127,-0.033703718710166225,0.3072132716304344,11.318793969355523,-0.1832914496659657,-0.7509361017685592,0.6409444316830821,466.489641732443,535.7719025160775,537.0596434010322,upstairs
15.676126878130217,0.7819033762468289,0.4608428932365506,11.264444960121448,0.49421775567304677,0.07058309446932118,-0.6625442501969001,555.8281903712178,462.3545844199649,513.7331585852794,upstairs
15.726210350584308,0.6834930436989287,1.1213483027895823,11.194220816381288,0.03796942100763085,-0.5175374687633304,-0.16190773277680623,533.420240725306,568.1917585362617,492.36187825041196,upstairs
15.776293823038397,0.7056400405956276,0.4565213970608638,11.0252442427727,1.29909750444188,-0.09709019069162246,-0.6883944567190039,455.95915532451045,462.8465666082921,534.0716167260773,upstairs
15.826377295492488,1.1481687829875706,0.7183748147785392,10.227300237842584,1.9395503197935415,0.10957333307297108,0.043054570055511845,503.1432266565374,428.7607322994856,462.5121070071691,upstairs
15.876460767946577,0.5904049791763016,0.17086168940449176,9.346150135134002,-0.05675049996009796,-0.2093507630594599,0.12694475176589573,454.61085946862875,547.9870777368591,480.7716100592274,upstairs
15.926544240400668,0.1255207109414157,-0.3798347644911918,8.959484739022107,-0.292879556943591,0.6516395865975789,-0.6783179140944647,510.01240385998824,455.516619770704,465.5479432226433,upstairs
15.976627712854759,-0.3901591962953667,-0.2802704091229218,8.19107840473544,-0.4394053837418995,0.39589134617902727,0.26142511012140734,473.6987648732985,518.6315983583976,576.6519021866579,upstairs
16.026711185308848,-0.5963379317476017,-0.8468528278387166,8.363835677220976,0.7920823706114535,0.3842435295881886,-0.4821481584868437,488.71558857766536,497.82723651360084,563.4618970559759,upstairs
16.07679465776294,-1.0821020943441886,-0.9384071192072538,8.16188693110417,0.10104176573576013,0.1162804787985633,-1.033455090378302,551.334548163955,480.84044110951675,441.6679926842693,upstairs
16.12687813021703,-0.6585764816461981,-0.5662394432416475,9.378764925926529,0.3301893462424053,0.5666839438699699,0.171776502177122,487.58324750552794,525.1704049565942,480.83539764799,upstairs
16.17696160267112,-0.7204382409103136,0.08282527016226648,10.078206075744061,0.6880141869297347,-0.4031168216657182,-0.9154665162241388,536.9368350430283,563.851103050473,473.8878095521096,upstairs
16.227045075125208,-0.0493964470260827,0.11969058518259121,10.936105026956463,-1.3583518930768388,-0.8070534756345884,0.35241751852802466,526.4859605118593,645.850589899918,495.4307932709724,upstairs
16.2771285475793,0.1591858058638413,0.6657144595169995,11.708861049155727,1.0968483090050953,-0.07498901925197837,0.7779471825907425,470.54707560379575,489.9585692465938,484.4538741170952,upstairs
16.32721202003339,0.48765351547881414,0.8283664726363833,11.379451793369839,0.12162315207805877,0.6122174943823716,-0.2625919240826129,446.763098717116,481.8095545555732,504.7277338875572,upstairs
16.37729549248748,0.7295591348030697,0.70160277514279,11.441152317967843,0.563331830761158,0.464662509374683,0.27559060285428766,470.9858658591489,569.195335047938,495.7595020925933,upstairs
16.42737896494157,1.0440759518570077,0.5177825477227197,10.88138159545164,0.029311874138745517,0.2553371554298596,0.7366141464425362,422.18545520839314,452.2841216762771,506.5248819812416,upstairs
16.47746243739566,0.7256505334214025,0.28595566077857726,9.415683548491316,0.16535279203221168,0.7454820512995062,0.5616995653018465,471.5091054781535,479.86529919881417,508.98995105226027,upstairs
16.52754590984975,0.4218734822626394,-0.1878339927149861,8.676600662085164,-0.19567055505192674,-0.1326472324607037,-0.3031819996361354,533.4007829483733,573.9288316709122,517.3371651994975,upstairs
16.57762938230384,-0.43579877786739607,-0.2914530001731179,8.286376102227255,-0.12170957788931713,0.19116714193359644,0.5940147478214436,463.8402555741743,617.0128588166518,575.0259389175353,upstairs
16.62771285475793,-0.7232660899226211,-0.6108223461457241,8.331618518632764,-0.0656854436470574,0.3686665232956931,-0.14038739205725898,517.4024502137243,548.4793066865382,514.5382570563597,upstairs
16.67779632721202,-1.121493383978784,-0.5151571775912593,8.44302453031279,0.38079415328228183,1.1118999635952447,0.3289636669572083,570.5627037186324,460.1411391240687,468.341186391839,upstairs
16.72787979966611,-0.8492566409518919,-0.7205006784550991,8.898712020811638,-1.1934529394210855,0.6642774505041616,0.8781569645731814,418.7364075212546,399.13318581680363,571.5165183937697,upstairs
16.7779632721202,-0.8614440787449468,-0.09986768489208953,9.389292046524046,0.48330574494009104,-0.6850011384430845,1.0046857137752903,450.78620492970396,464.52469822662397,460.1135570136156,upstairs
16.82804674457429,-0.47637260429715145,-0.08914971558800472,10.354837276436065,-0.35622117528064906,0.20091247220526393,-1.1380725221498311,482.91148482035004,486.9193165975244,493.4862599312814,upstairs
16.87813021702838,-0.2532852152580522,0.3747808117669916,11.06858907784872,-0.7597266941106829,-0.05168881358226507,0.77163617168362,478.7560325264733,498.7751279160555,405.79597527457435,upstairs
16.928213689482472,0.18015796142637458,0.3780793698563206,11.536545109438169,0.31295301476004334,-1.1922291349321075,0.9962270557236211,601.6939433187647,529.314964973531,610.5269545822645,upstairs
16.97829716193656,0.7588437555330362,0.9848632852134189,11.48374854912779,0.05731305493802993,-0.5359544530501933,-0.9990796936002243,452.08125759045,546.4570470435483,513.3183586622844,upstairs
17.02838063439065,1.124304338432916,0.4821182310782058,10.799678998507941,0.6084730111793103,1.2611815621192803,-0.3700699997879218,433.5678035627487,464.59706614978643,479.2758169876636,upstairs
17.07846410684474,1.1177802851721383,0.5475426259529743,10.409816537134171,-0.08989413533121751,0.06571718613597709,-0.6515296527023766,492.575333152877,509.44182775002713,552.3937659400841,upstairs
17.128547579298832,0.7816227024355811,0.3128684653845448,9.35324536281573,0.588466876977046,-1.8631117416421688,1.2316637854973138,461.028556564062,480.7313457530539,456.84042616456685,upstairs
17.178631051752923,0.2958767460669183,-0.5809934379961526,8.237828566668899,0.05663806174139484,-0.6658881874917426,0.5139605377707729,509.33205286789797,556.2955724830817,573.0653326344309,upstairs
17.22871452420701,-0.0853545372437014,-0.8047687411258753,8.017750774266194,0.6020033898899202,-0.32647070678716295,0.2474587334097385,502.9736639161073,531.6733217215449,485.0519498131218,upstairs
17.2787979966611,-0.8580286374526477,-0.7238345719624351,8.009415644806282,0.6180487565879236,0.42620036025575486,-1.12686105273794,452.6259280340168,548.4565862673617,466.3100421769526,upstairs
17.328881469115192,-1.3570714781546096,-0.6572705608933629,8.789895423693777,0.9124598089549362,-0.47764352531012066,0.1495532981345047,483.9257492724602,489.9139105577424,483.06345729558547,upstairs
17.378964941569283,-0.9187273604155807,-0.34181993526127935,9.50656486918694,-0.3417078184123886,0.8109195709350155,0.46735141015872267,567.1993749319103,502.48233952878167,535.6519141747751,upstairs
17.429048414023374,-0.5369785771937385,-0.12018558292315801,10.267925063216017,-0.31832375697038734,-0.04270541508724073,0.7147100235245182,501.9531819554954,468.59294308983755,465.8548975605947,upstairs
17.479131886477465,-0.01250366720284396,-0.22516180292494542,10.621378870322696,-0.673629185319372,0.8505287051795416,0.25318105953034153,503.4643191357505,501.5486900363707,412.5984382147014,upstairs
17.529215358931552,0.2506323589992739,0.6014289438637135,11.159995410348184,-0.10679079901016535,1.2215175724095528,-0.5612468548074484,493.5527074594771,520.0691228657752,536.1171489143976,upstairs
17.579298831385643,0.5423735409554044,0.730633912813313,11.159052081031852,-0.5000525035502732,-0.745822509031114,-0.5237420493921127,452.6309712050178,507.5472261607949,427.888044764056,upstairs
17.629382303839733,1.1583027899254037,0.6437737692170225,11.19023423440377,-0.30482097937955677,-0.3083825560992338,-0.33064926171803716,424.580627127472,524.9037484580157,468.29758160680757,upstairs
17.679465776293824,1.1151124567598296,0.4771569462156822,10.231833982262748,-0.27167199954867416,-0.7393544142072803,-0.3169357709838063,594.8218570737746,565.2013690843969,509.2371793193766,upstairs
17.729549248747915,0.4662304684702819,0.24837081934960753,9.6838137676545,0.828610720479694,-1.0098641261495545,0.3697668780377847,451.608101491003,485.1823158431381,569.7148166313007,upstairs
17.779632721202002,0.13515412616536904,-0.3000903365090309,8.915712773726858,-0.7845490489436209,-0.9075037018527546,0.7889822810638024,480.7549572336903,554.1975055092148,529.1598685543548,upstairs
17.829716193656093,0.005659663405084253,-0.42224530156670925,8.205764623255048,1.0325314082065757,0.02929021077436668,0.3334526227976495,509.94579543032785,508.59727881999,484.77582464872535,upstairs
17.879799666110184,-0.5934801108865055,-0.8112989582293606,8.167368179129243,-0.4937176296679073,0.29904425040936033,0.43535575597928766,539.1765859083536,496.89662884500484,523.8743077203969,upstairs
17.929883138564275,-0.9257845892549904,-0.9468549536840201,8.795912239431576,-0.8818853322044541,-0.18399724839441317,-0.562914046309049,503.79985889316316,479.45600186768,478.3667705287536,upstairs
17.979966611018366,-0.9549767160712157,-0.6938651056272875,8.737708458274458,0.05585536574173738,0.12973806095655666,-0.4683626121128427,492.4645596588863,472.5767827915105,590.8816581104128,upstairs
18.030050083472453,-0.876736656033508,-0.39068944577369086,9.185580338348327,0.8451714587935172,0.5246120423254548,-0.2991708869509571,507.4440503143733,487.08467247427143,543.6463567204286,upstairs
18.080133555926544,-0.5338123927838268,-0.4268518564752785,10.840442587480158,-0.8448762404586349,-0.13316042346765286,-0.28448708493999236,475.99204570501445,479.3699231998143,521.8406981413516,upstairs
18.130217028380635,0.21641382885380456,0.21979735584929058,10.72544482290722,-0.46827473715729684,1.3384875562068623,-0.17130713397424224,478.5721787156804,539.0772390192856,583.4253181015126,upstairs
18.180300500834726,0.798024919154795,0.46663077726745106,11.585796900168829,-0.008937569023509078,0.12199336376236543,0.13485617805593667,532.5610638234982,449.4661510730267,501.5930406706784,upstairs
18.230383973288816,1.024763144042972,0.3159393130687971,11.254308918624032,-0.5215438906885086,0.052831852277661163,-0.8007310124028753,506.46524742076747,559.7871791643757,532.0066167873101,upstairs
18.280467445742904,0.9432057085786677,0.5725685984562348,10.780453808811117,0.9717302871031351,0.9626067133134522,1.1979430489132754,496.92153495693367,533.9596872938268,564.6768372318336,upstairs
18.330550918196995,0.8220072210489335,0.3662576086133681,10.143438180599244,-0.8119417525947529,0.8404890608587244,-0.16151802077866495,455.05350305387026,446.36443185285924,489.89097082757974,upstairs
18.380634390651085,0.49414826349920565,0.1472133651346192,9.46796215932202,1.193052950791266,-0.18762554405938311,0.8497838589701147,496.9569591440265,485.27027223474647,532.7099411516477,upstairs
18.430717863105176,-0.03621050548018592,-0.3732722270168838,8.340622441639827,-0.4762483872676976,-1.2524856804489597,-1.3215094509036256,410.67396488677025,461.53871319869023,532.7234344812747,upstairs
18.480801335559267,-0.006647012051840651,-0.7952144610984322,8.290865318632985,0.09921023486805693,-0.09786521074305173,0.38888032364552744,542.6128423855241,517.3047175669365,516.7811664651292,upstairs
18.530884808013354,-0.9667805054263345,-0.8869655479365408,8.22415538762511,0.08173642348441645,-0.11468568139139322,0.0038305308581026726,467.37464639030117,537.4196043365316,552.9557256584422,upstairs
18.580968280467445,-0.8275073679921162,-0.6320480398649309,8.785429959425777,-0.9135599469620355,0.42170967980346086,0.12045943089897287,455.1665353533058,548.721079954308,534.9643251734589,upstairs
18.631051752921536,-0.8711901695483119,-0.11993400640266255,9.285127600039498,-1.440956033256936,-0.2256788044359155,-0.38693972379519626,528.9703591114427,509.63956842362063,444.8951269568401,upstairs
18.681135225375627,-0.6057437881801229,0.04126800105976133,10.243408250788217,-0.569262394860971,0.7929108268780383,-0.8347266923928478,468.76910971236646,486.63138370297025,393.0125875440054,upstairs
18.731218697829718,-0.014901994120701811,0.37463514188233354,10.80858727482073,-0.4122014103765937,-0.48362502266904506,-1.7609374996042235,480.7606688952069,558.1621350224738,463.8222985517169,upstairs
18.781302170283805,0.10022733498551852,0.39854307636992087,11.029021683149434,0.5529170969154874,0.8629102159287155,0.29328624330608566,504.3929487084941,489.8811737451747,513.8655682138113,upstairs
18.831385642737896,0.39386110817243203,0.7207218760497842,11.420945489866424,-1.2572150848731094,0.4072669510854484,-0.29699350600131874,491.91954780847715,523.2650290209164,544.5885020122064,upstairs
18.881469115191987,0.6167652720538175,0.8429163838611338,11.138232994607389,1.5854880784747594,-0.19388398235423185,-0.5068903655689881,470.6472411225924,477.2168528925106,450.2945151573462,upstairs
18.931552587646078,1.1664851307446498,0.843213274344377,10.459227171289674,0.03936357386009659,-0.44819347540683424,-0.3630067261325092,533.859587967127,473.7823281719164,459.6235281859994,upstairs
18.98163606010017,0.7644903333880779,0.12861525329534756,9.841576102918664,-0.6132394747980794,-0.41853404863337124,0.6212096969700108,467.5261851806891,532.6913302861278,443.70973221101127,upstairs
19.03171953255426,0.49240150167963453,-0.41972550334526026,8.681984277039994,-0.5802967376399101,0.44348550375814466,0.37422421389955934,442.8531506014665,478.3805730285663,463.46840021327847,upstairs
19.081803005008346,-0.41078525942945854,-0.3628923287178864,8.484222462670722,-0.25215867993424484,0.24498527534483666,-0.011800832162251591,556.2045934340513,516.142467362958,461.56890664400254,upstairs
19.131886477462437,-0.20411240072003267,-0.31721509663997666,8.074651297755526,0.14530902498343268,-0.5731840300637239,1.0984651703421306,444.43265934289445,501.36020787263874,482.1744730174652,upstairs
19.181969949916528,-1.2893210296455788,-0.47653567692719495,8.729087575822984,-0.6318083386258595,-0.310371954940661,-0.6730955519510794,508.32730552510236,463.0039344888503,594.6735218205558,upstairs
19.23205342237062,-0.9769282450096437,-0.39403510896286165,9.135587332292005,0.2714101003474104,-0.33485159723891117,1.3806764504827955,481.3995566143156,463.3823956029256,468.2488693673735,upstairs
19.28213689482471,-0.8394174723223431,-0.08616452580185593,9.76545305193464,-0.3693530839175371,0.7635560606254489,0.2783661051802963,524.9375514673158,474.5297741501659,524.8972979344003,upstairs
19.332220367278797,-0.6193540273015461,-0.24269320246395693,10.386180683582705,-0.10055588600398754,-0.5667113280364644,0.40631309885525424,504.6773671534824,524.0589353116638,467.65650740018765,upstairs
19.382303839732888,-0.25772916901113063,0.482576589206579,11.416354737082948,-0.5759886092650416,1.4989131994507368,-0.21853910548207459,522.8467802460125,469.63950189713324,537.7918710867363,upstairs
19.43238731218698,0.44738466265812854,0.4748135131131479,11.341835586393792,0.4397494935995799,0.41666253528254193,0.416813513731247,529.9924058845102,515.2996797437638,466.7677771211153,upstairs
19.48247078464107,0.850495140759289,0.6705863483674683,11.38850156449328,-1.270965728701209,0.6402914929348379,1.1505240391329057,516.5135496603078,515.572352404389,473.9379997052035,upstairs
19.53255425709516,0.9830658339556254,0.4009747500895833,10.848210658964808,0.05842529890300522,0.46392115705188275,-0.4069673257063598,513.9071962797719,520.5941825476498,507.036695972941,upstairs
19.582637729549248,0.9307917134334142,0.23970784640961101,10.333882947302977,-0.12629241554586884,-0.4352406047612256,-0.41998217383855685,498.1375581089871,458.59297228015515,483.19513889362696,upstairs
19.63272120200334,0.6068934955975016,0.062327457574496564,9.307073520615443,1.1201403505397942,-0.12318506704185181,-0.22992575511093155,500.95358758244936,465.63685153964036,465.9945062859816,upstairs
19.68280467445743,0.0926077764027224,-0.06424633827352277,8.504933800068113,-0.2530372207197817,0.9291795664524519,-0.7875922762948481,535.2006730267163,550.5574283394781,531.9724734139377,upstairs
19.73288814691152,-0.278035444255466,-0.6946524587201248,8.165207012693962,-0.4162405438462822,-0.579091031451642,-1.1050525132777154,492.96643004513413,448.26898984047244,465.0778792212021,upstairs
19.78297161936561,-0.5294495252417035,-0.3557521390252564,8.17241902982621,0.6348416429790904,0.13102166010828148,0.5398568654114896,480.9396011751361,575.3119602666144,515.3510699586969,upstairs
19.8330550918197,-0.8729145201557672,-0.9401248421425601,8.79126745178443,0.17423278553689764,-0.3400286500851855,0.12572594623190972,530.7228531157735,584.9936887603766,483.5854187471474,upstairs
19.88313856427379,-0.9462384298961887,-0.08168414863935003,9.496286993834326,0.2281248513304224,-0.2905314618673729,1.0700018440741548,490.1928080633998,511.8164549827009,504.4461503561576,upstairs
19.93322203672788,-0.7119457899546922,-0.046628556285544576,10.116729694585308,-0.2663100082497586,0.29287315535202846,-1.3284095789512693,505.82746394461657,573.71639521758,515.2692008974799,upstairs
19.98330550918197,-0.024790932054273213,0.2606078612847761,10.988238707557056,0.04837195748773107,-0.17268792548538617,-0.7596755904825558,526.3333911585928,549.0997212999789,481.7596414742278,upstairs
20.03338898163606,0.487039745473598,0.6365033613802862,11.373696947656763,0.7163275966103583,-0.1535032759530644,-0.41444367049555164,567.8881599967103,491.6939258064917,593.3653841470883,upstairs
20.08347245409015,0.45277083158096504,0.8139210516470996,11.462249488401373,0.2970857741116072,0.6485713911497814,0.6762105142819647,553.5541782899003,527.318178802779,509.87832497050135,upstairs
20.13355592654424,1.1389481548563765,0.5604160496414503,11.108774559553986,-1.0465469674093246,-0.11516459565568979,0.43336570405883973,503.39677518139115,472.1402765149793,587.8346619555109,upstairs
20.18363939899833,0.9362424247953868,0.17774534545821213,10.24668584669483,-0.7329469869617331,0.5571624161820744,-0.046250574677266454,514.8321209842942,391.54152382510927,469.56926983701845,upstairs
20.23372287145242,0.4207864237374594,0.18540107907158127,9.84306109332687,1.1868199347118678,0.0861228428151517,-0.9553927547990715,512.4339162521121,505.7359236400779,566.4236807137589,upstairs
20.283806343906512,0.013642356965133717,-0.2006807894827055,8.789129370307045,0.43238262306985376,-0.06930290812834926,-0.22659118198363376,454.490838807577,442.75654294572837,420.75879221212307,upstairs
20.3338898163606,-0.12464015914326787,-0.3941236554993216,8.745831971060287,-0.11223703160522282,0.693140376173239,0.8071973182842339,529.0472941910294,530.6849755993853,514.5088968072963,upstairs
20.38397328881469,-0.5297238926803007,-0.605050016793794,8.53041757636878,0.4133532663497624,0.20010989632362464,1.0169930065861046,485.1937042280216,530.2240154830552,509.4727515187758,upstairs
20.43405676126878,-0.8347107283098565,-0.9237214652552745,8.318954880386418,0.028844156697459808,0.6238709574806335,-0.30687777507230457,496.3513865630537,499.3654492443021,567.7792807573053,upstairs
20.484140233722872,-1.2573080468278437,-0.6632961677287246,9.133638651114685,0.12504924943689064,0.18249532241082594,0.6233460990199995,514.1231742979829,455.676521492938,542.6370763500495,upstairs
20.534223706176963,-0.856596491337497,-0.07667855169782739,9.977732240963814,1.4752290455969232,1.6954035535892846,0.7307127456799059,554.9354997542735,531.9103771898959,478.31702452627496,upstairs
20.584307178631054,-0.545899973937813,-0.034452693723228525,10.837918706776712,-0.2624479449654609,-0.5075256503340136,-0.8844658846294561,458.17828430803917,493.2009496544201,509.9494830286122,upstairs
20.63439065108514,0.3677468720709719,0.8770946799005213,11.32155599591073,-0.05051699159026855,-1.0094441358265998,0.7832048155558317,456.93460958192026,566.7079651525777,563.2856203937816,upstairs
20.684474123539232,0.23192870590269093,0.8022167303492485,11.052951693771304,1.3340807307407112,0.12659500447419922,0.03652549224929905,529.3719650778935,500.02214801101667,435.65792544349733,upstairs
20.734557595993323,0.7176113800848546,0.6598939017898215,11.468641455607814,0.7937059096657864,-0.07916912980106378,0.15160013413423692,470.9374546356054,514.475617250069,534.0163553197713,upstairs
20.784641068447414,0.9200399337267394,1.0675767557364846,10.61414374386463,0.4431014853094712,0.09106563206131012,-0.14166913515082705,511.1228442866261,505.0065040950824,469.0563075149253,upstairs
20.834724540901504,0.5333561248336802,0.05904987149860447,9.952221631192147,0.08992852785929818,1.2980983227905227,-0.8498751049225152,510.6218959195079,445.77417404530706,428.2462060907859,upstairs
20.884808013355592,0.42652389080917524,0.1250150044701763,9.357030099553882,0.7031071099707208,0.18197929388706233,-0.8258495216811764,440.4115603508733,498.9990127842984,539.6591958739724,upstairs
20.934891485809683,-0.05764418546844187,-0.30607750551940294,8.850654982603443,0.031097589148000215,-0.00719001467505521,0.6428397165388416,520.489148079978,467.3911175901623,431.07245134779214,upstairs
20.984974958263773,-0.16876151827373542,-0.7163153142158314,8.179915513905074,0.03910695158930776,0.7810729599812506,-0.8517768751008878,516.150786470964,509.00906515707055,536.2881466386389,upstairs
21.035058430717864,-0.7435237632360316,-0.665401992792509,8.400863186023972,0.4556334342884736,0.7948209830563916,1.2745004120538623,546.3043179812214,416.2104502331475,506.9354554117206,upstairs
21.085141903171955,-0.6330723534554044,-0.8140603417491572,8.673204553593905,-0.0777836922926193,-0.5259561820244768,-0.602124914579283,555.8230028807727,475.55191207355625,544.5745850298719,upstairs
21.135225375626042,-0.42407925057650186,-0.5742264968138526,9.495557018521113,0.3545296934936003,-0.6789601324548546,1.060216787188498,534.584351148294,527.4291339643663,500.28434678192684,upstairs
21.185308848080133,-0.6791059894718106,-0.22629571700261863,10.214783339248791,-0.19961961061282948,0.2825113793340408,-0.8316796311034318,525.4200554609697,473.593215853154,585.81973259305,upstairs
21.235392320534224,-0.22470267498001828,0.49288954560551435,11.215010298813784,1.3322545818153453,0.7572471929967227,-0.7854181089813241,552.0986522024227,522.9508781326435,462.3528741721322,upstairs
21.285475792988315,0.1867025923206358,0.726822864596486,11.575038146967929,-0.08127130210558807,-0.6642087644338635,-0.2305179187689792,500.43747279396985,398.1209916086021,464.95584701304233,upstairs
21.335559265442406,1.0852224530435084,0.6409568883769321,11.582856857309881,0.5625117146630716,-0.7160670667931325,0.3570290956508084,455.2919911831866,508.96730440270636,480.60163914630175,upstairs
21.385642737896493,0.9708576369335814,0.2921986286175032,10.959621520340784,-0.202850517523361,0.3122461585824869,-1.563766377708739,531.6938512835883,438.2544876835295,484.5431136513745,upstairs
21.435726210350584,0.9729340998360777,0.3960263485175364,10.042329755899726,1.233997419344584,1.0958069635702954,0.005601287205229857,530.4850718395918,549.5960128495187,548.8613093805681,upstairs
21.485809682804675,0.6580031540137258,0.08250470194077628,9.821477047204377,-0.059058922136219515,0.20846440081367418,-0.39562323695709717,399.9082146830682,434.4180282062597,498.35016850126567,upstairs
21.535893155258766,0.07814303883279718,-0.18563336251306242,8.892333756166835,0.14935748648762712,0.10400781716030866,-0.14394699347628453,506.413233256397,514.1669771259938,497.8697514416494,upstairs
21.585976627712856,-0.3312102934516208,-0.6821822660384556,8.19657516802592,0.31810922320081647,0.14958940550760622,-1.2845902664960267,571.2247581379831,469.12659974387964,507.4695196294623,upstairs
21.636060100166944,-0.3344882215562227,-0.8935534368743427,8.335067429262402,0.6681911769601369,-0.8407102116453014,-0.7007381627811293,507.6804578941845,472.0131627418659,534.0873429991796,upstairs
21.686143572621035,-0.9365725714485498,-0.5641863481049676,8.612333218263831,0.16276924576646304,-0.7645332811632322,-0.06829941194619836,510.95374904047793,413.6098386028462,447.7984401891586,upstairs
21.736227045075125,-0.5550981809761876,-0.07194806970049217,9.09386266126931,-1.171902139314384,-0.39457409557545814,-0.5250400217792828,453.1658980568492,451.49603985089345,481.1170946118855,upstairs
21.786310517529216,-0.9317091030225833,-0.260689412786014,9.933506279044876,0.3760585637358486,-0.17665763090213968,-0.3953548294876758,525.2624100054136,491.176775865082,524.1290981855408,upstairs
21.836393989983307,-0.4872294403103893,-0.008843850612854517,10.776251746553951,0.8737887125318833,-1.0338387165630545,0.6570567646708261,433.11538242663454,515.6754156472277,550.1819367265431,upstairs
21.886477462437398,0.2942531137930821,0.7027976650717476,11.1764486656961,-0.8354958299668582,1.0040141785808132,0.10666339829544672,477.7985138045253,450.9033255982419,557.6442722993896,upstairs
21.936560934891485,0.6846116484257826,0.9164791200765181,11.266132976046308,-1.1924644231076131,0.12541515544062848,0.16157358168612515,496.1154078466537,486.8102861547386,433.0286993690119,upstairs
21.986644407345576,0.6298832335749931,0.5242292235890184,11.151179452220664,0.23956902325725732,-0.5414753009181111,0.8145106083942807,521.0294063833263,492.71189076317745,542.2060973648712,upstairs
22.036727879799667,0.9658998601034724,0.6954016948694823,10.680027875975258,-0.7386386791871916,0.2256482849091991,-0.3665971802995577,480.12068098231174,502.51078759786856,460.622082296291,upstairs
22.086811352253758,0.8859943683896342,-0.08143858586838115,9.824834212273514,-0.8235837932798972,-1.624147886010221,0.31361147648995136,475.2722280146511,475.2172578127771,507.6047461658449,upstairs
22.13689482470785,0.5922744266869845,0.49580902900805596,9.178318949927919,0.08983302442391417,-0.18716399010478374,0.5139389474728906,457.5952271761251,463.3535780201213,525.68082846803,upstairs
22.186978297161936,-0.07764408741623269,-0.30017890927082913,8.538679857983468,0.16605334768110006,0.25760256546188676,0.10102567956145664,491.6573509333275,534.4891743110377,430.88460589816316,upstairs
22.237061769616027,-0.24687709102994754,-0.7061837574417249,8.461415494467063,-0.9472145545954351,-1.3710300450278605,0.6193525658833886,537.4882951846739,546.5789774658936,433.35299531339655,upstairs
22.287145242070117,-0.9551632395854616,-0.5873706374620864,8.178004872512272,0.17809806708743545,1.130934764691669,-0.28610141106698855,479.50953338483987,506.8540386769319,550.6183941643075,upstairs
22.33722871452421,-0.9045497766921337,-0.5448434124217028,8.76310387509724,-0.046869277620142986,-0.02788901969699397,1.162612423250734,488.9680789800875,484.2383664939562,546.7160644567024,upstairs
22.3873121869783,-1.0049843987724203,-0.6072581794387679,9.579232592992492,0.08976599965983452,0.16832116760762977,-0.04770767628651701,500.6531943095266,473.9375776353346,434.37100126162983,upstairs
22.437395659432386,-0.8792719696499988,-0.24613185848846103,10.4267404206304,0.9533409190770156,0.8958763837851836,0.13516362205092072,478.67076875314115,495.77045177527026,527.1757233664175,upstairs
22.487479131886477,-0.17800486484779734,0.006263930835983977,11.037305050042264,-1.0823682098335605,0.8694805853481556,-0.5542694084844371,463.5604367887745,532.1256519666823,534.6034648485952,upstairs
22.537562604340568,0.6908689586913815,0.5066555743041741,11.329052493987627,0.22758351560439896,-1.0535370137293163,-0.7537742128976238,422.98742651850364,488.3250706209039,498.4972642185522,upstairs
22.58764607679466,0.881319239114829,0.3925293783947604,11.4765887073424,-0.4156129213409331,-0.3840635664977017,-0.5100829580772971,555.9801158879363,538.6036441651911,455.901164352225,upstairs
22.63772954924875,0.5562919117030978,1.0299549638440393,10.632426751092902,0.27629992081086363,1.1981967586250255,0.5311109409722122,421.6026573492905,522.484105329528,414.6624032000149,upstairs
22.687813021702837,1.2708075338447267,0.32853035374564343,10.331904918109828,-0.8771222234503264,-1.4346301847838712,0.12000391409747002,478.6201563944721,559.1793751969648,461.28584690339613,upstairs
22.737896494156928,0.5912880297400244,-0.2994608535762141,9.681999014772021,-0.03375986641840703,-0.14719280173267127,-0.46376888624928597,543.7117965975949,431.86630992455866,498.7309059142218,upstairs
22.78797996661102,0.4972124132450793,-0.21432711847023328,8.91490710015735,0.1102212087161658,1.334903661081436,-0.01690485804935905,519.8523244010431,568.0800072885069,537.8796697577507,upstairs
22.83806343906511,-0.130280153135726,-0.9961795745592967,8.421012207455014,1.1449175062166683,0.5074589662919334,-0.36585829921203916,448.44784912183496,484.2364102237766,548.0297319649615,upstairs
22.8881469115192,-0.7700818471285619,-0.45406114865231323,8.425200359999135,-0.2235761574041299,-0.14714808021668735,-0.513542633084652,487.00496112466453,535.2550874730223,464.8905460701154,upstairs
22.938230383973288,-0.8067298471443259,-0.6766017787338492,8.352994637627196,0.39786299523088037,-0.08170940018778948,-0.054316377568339604,474.48332850038526,474.89911867534454,442.50267456654274,upstairs
22.98831385642738,-1.050997882301553,-0.9252353802599664,8.747029177239073,1.1610315710670946,1.435892580420835,-0.1586197091240104,457.9700970062862,445.8381872063237,462.07583128496344,upstairs
23.03839732888147,-0.7275034792600871,-0.2708129134248334,9.717544538506985,-0.36243318142805164,0.3434784079763961,0.695949852014116,436.55705109515327,532.6434548120926,475.15931709355004,upstairs
23.08848080133556,-0.2183322565999793,0.19614648831533527,10.445827711376994,-1.227628969055295,-0.1985743912560044,0.38039607655972213,471.6537272426939,485.41539525043703,500.7285561377646,upstairs
23.13856427378965,0.27003224321346736,0.8135206713270304,11.503221599785268,0.18053177911141544,0.06717324214914253,0.5164559546638389,430.7282675941809,514.8153735389118,470.73232645639183,upstairs
23.18864774624374,0.4529360526405157,1.000109715256019,11.547364418559916,0.2252741558531776,-0.7543988939581725,-0.44168787731130793,547.8125093879123,494.0503555345922,502.51146707351415,upstairs
23.23873121869783,1.1005197393893957,0.9109584883303421,11.215823991429875,-0.7568684093970053,0.1874828412007172,-0.5669499754157848,508.82307428181076,498.3857095207398,545.3433327958417,upstairs
23.28881469115192,0.9306304253697021,0.559385780503044,10.108055675533622,0.7169767530812791,0.5075905007920914,-0.2607188760024423,511.849372261949,480.8203388404896,535.7737538582157,upstairs
23.33889816360601,0.6377581974133143,0.5160301567376935,9.798856894296517,1.1080568065702587,-1.793365342261119,-1.2431875703745825,577.0658147285267,422.20957887484826,532.9545023750185,upstairs
23.3889816360601,0.7655087092884155,0.3114554774814088,8.66583172865418,0.13637144279295613,-0.6467812074086139,-0.20782810324395387,525.6383823012349,454.8566758642499,492.919757726034,upstairs
23.439065108514193,0.06751324793287149,-0.4069204293554441,8.492308625003416,0.12947837093192396,-0.8762310583912292,0.067151237126154,511.4213579356218,567.0332426938468,555.6415979887202,upstairs
23.48914858096828,-0.4217142969177839,-0.5764460770203248,8.186298412625767,-1.336851511493348,0.3730300629156963,-0.530317102709585,453.18668587458154,494.31863040860526,428.84026388113216,upstairs
23.53923205342237,-0.6483460799613356,-0.3805154799861761,8.303136353770489,0.35316083921715286,0.15242860417246468,-0.3229085215783393,524.6601987154568,435.0720606714856,444.20701235239386,upstairs
23.58931552587646,-1.240517629464647,-0.3300656878066444,8.413559726482479,-0.4538351550266251,0.4113794744682094,-0.7261976000670393,544.8407950254931,468.5338411402751,487.51441503676546,upstairs
23.639398998330552,-0.9838519542437762,-0.0962264699926153,9.513099645592852,0.8659787897944167,0.7782995226416177,-0.7203399473949124,540.406278270471,502.0643596717603,442.5022606265744,upstairs
23.689482470784643,-0.6586690105289357,-0.3282976416423235,10.138133311981782,-0.4053610946326418,0.075437526675912,-0.25165679721016193,490.1453701088797,528.3477940128511,491.3482308504137,upstairs
23.73956594323873,0.14400918319853018,0.3345010203843573,10.966213609223558,-0.4837588601126213,-0.6320339921726164,0.013254557976175698,540.9274170619151,478.614832885721,432.7028457810226,upstairs
23.78964941569282,0.48199044200874624,1.1029984227944643,11.196578620780732,-0.10028656218616933,0.035376117793764046,0.421584835960254,467.32897988034915,483.00679817066776,505.1574657393664,upstairs
23.839732888146912,0.8008094781580761,0.6589567501510665,11.139368460369926,0.28554828139853655,-0.008415941591241262,0.5385418955226263,550.4909741645699,502.29781106434956,464.4815069937366,upstairs
23.889816360601003,0.6750125934089292,0.4925567974535573,11.092685487376452,-1.0367500255927438,-1.9123969892667485,0.33419254658836667,485.93346851329426,502.3716991101905,523.5423733528407,upstairs
23.939899833055094,0.8419310424607984,0.5385242133151922,10.20143134439303,1.036364164245903,-0.3410744444411724,-0.5078640270422341,580.4070031320655,528.3773334941449,533.6809047777234,upstairs
23.98998330550918,0.853282312069581,0.24673982767172953,9.503531910092052,-1.1076364698880372,0.5415027021958457,-0.5687161556352114,564.7038367026263,468.51240968357024,521.3236565406485,upstairs
24.040066777963272,-0.07975343696917209,-0.04012522666476431,8.773196437296889,-0.7651971189135754,0.19723916570080277,0.6026968260089103,547.7709757941655,575.9793363919605,498.6283868457152,upstairs
24.090150250417363,-0.06980752290173192,-0.4086701731804523,8.321955472082315,-0.8569362735688555,-0.9296786168111176,0.027460951379017877,515.0574359227103,523.3587071744944,480.70833541941505,upstairs
24.140233722871454,-0.7546172919394348,-0.8950783893140941,8.376503474282517,-0.22821492616904948,1.0159889392684205,0.25659863079524753,412.017507622813,547.4277062819618,510.2894614832103,upstairs
24.190317195325544,-0.9856715369250817,-0.8463493687478651,8.253842879262864,0.8277540923759975,0.14341056374233266,-0.1601999204333538,531.1614184488118,503.8328687046808,451.73937624962883,upstairs
24.24040066777963,-1.0341802362749415,-0.7507166195480943,9.372847070052797,-0.06916813786312515,-0.27963873563992564,-0.15005749135830013,535.4833367408575,533.7990110662546,519.1985261767622,upstairs
24.290484140233723,-1.1101238388948789,-0.2295024041073468,9.95684735038179,-0.6186291569014211,0.41760113747002287,0.8058792759161025,549.1378983355039,469.74614102134495,489.6556584898596,upstairs
24.340567612687813,-0.46587532212997207,-0.04586095285090053,10.461465031012274,-0.1365414339639583,0.04596801761396143,-0.425303314911326,494.60213361267654,470.5152556019074,530.1236369008253,upstairs
24.390651085141904,0.007296855565848609,0.4498710590243684,11.442066342002102,-0.3327081962518139,0.19820517524590645,1.2551661824302995,472.7922429692549,535.0757057690498,487.1137355432146,upstairs
24.440734557595995,0.5757765928480548,1.1307656805699842,11.630210838924945,0.16076262762217688,-0.5095225601004759,-0.759835263912918,500.3536067599187,519.7179912234163,524.6406473668649,upstairs
24.490818030050082,0.8305453545938339,0.5649164865208813,11.081508872745722,-0.27292559261971444,0.5694919895198437,-0.8067503813536122,482.3952425508368,471.74130660784067,499.3837666772389,upstairs
24.540901502504173,0.9431014557371032,0.30316199709195896,10.756346082381624,-0.027178439170216534,1.0442365332698467,0.5673014911851609,486.9905130491408,462.22814558016347,524.5884687548994,upstairs
24.590984974958264,1.2594493173658854,0.46407397426875463,9.789543041154095,-0.8395121671676417,-0.39579400017612393,0.30234923637168426,567.1252649561819,501.27566405499584,528.2779446310963,upstairs
24.641068447412355,0.35243670663067866,0.29241579420827646,9.119960690449918,-0.7987342937003926,-1.4282566954358253,-0.1883547530922051,513.8714901330355,460.2607733532762,554.6955194480445,upstairs
24.691151919866446,-0.32209300750560715,-0.4232521274176053,8.52915623923109,-0.9115088775839527,0.9677815936542817,-1.0063642497000684,514.3509202296158,494.01199243037854,491.3168201587249,upstairs
24.741235392320533,0.05099614386671071,-0.6942104531186368,8.075534187108262,-0.362415261021087,0.4027484987578348,0.20902638411881333,531.9507776332564,550.8300193682638,460.14248032361564,upstairs
24.791318864774624,-0.8266730956480963,-0.8153926966845069,8.08279950746219,-0.21202702478443344,0.7720050615332937,0.2562466293551907,502.4478958917705,509.2535065518327,552.1600626609804,upstairs
24.841402337228715,-0.8723767430361048,-0.6175241498970492,8.644977981875808,0.2821708799863643,0.6472062739426606,0.5089150312830357,404.14746700593224,481.4927013323323,428.2764495764543,upstairs
24.891485809682806,-0.6947935027854705,-0.4162007601557913,9.498156195184567,-0.7206488393797326,0.7502988169663932,0.21039173995155236,525.5809246171484,590.7588113105292,486.0505016720591,upstairs
24.941569282136896,-0.7210514795203349,0.1959397528894814,10.0264408441976,0.14666191130265405,-0.7282024540661961,0.537535215290136,602.8820111350152,486.2644183045028,453.0205611898385,upstairs
24.991652754590987,-0.13853817473388086,0.5860350125916971,10.655042494578728,-0.3220528799085855,0.31566874684546614,-0.27233829256816544,508.21423805226806,549.223768311687,488.6300020155214,upstairs
25.041736227045075,0.4241570406316812,0.42009000707772953,11.613926026330773,-1.1426390437611167,-1.465635643635352,-0.4689926897079829,448.2668211434426,571.6714257160307,522.3913257096526,upstairs
25.091819699499165,0.9517759482511613,1.183063992680851,11.613197817662847,0.3211317880483024,-0.2861933134389596,-0.06347855325283047,506.4688118226651,456.47097449799725,466.2954026277784,upstairs
25.141903171953256,0.914736525389626,0.30727075605397264,10.913014013584073,-0.27955297188429434,-0.5272286945239353,-0.4428565877128535,519.5015598068923,541.0426406213617,519.7986417759508,upstairs
25.191986644407347,0.9821953541970588,0.3893884768597911,10.27528671966379,-0.6502103226553942,0.3809619299205691,2.1261311225489377,486.43013967656145,571.7183176022255,472.03431912093646,upstairs
25.242070116861438,0.6740998880434672,0.06930245222329948,9.642634130391782,0.6362425242659224,-0.2196764583440435,-0.525789148545063,626.596711793799,575.7597355937507,496.86487294334734,upstairs
25.292153589315525,0.03507123949153326,-0.15535940395947284,8.667974539748995,1.9950101477205469,0.3622833813129259,-0.5833506617537714,504.3241023115789,461.3977441772307,481.9840540721944,upstairs
25.342237061769616,-0.2936317763977101,-0.4148991544614914,8.67835566106284,0.17675829947994626,-0.4170752696201264,0.4403103767291876,513.3353772765029,452.9733693142358,469.10433470302075,upstairs
25.392320534223707,-0.5321405218169418,-0.8580203697160549,7.996783658411954,0.027087882356680984,1.061315306991753,0.45906835163064375,459.82667760831015,457.2962739843641,487.7662206076823,upstairs
25.442404006677798,-0.8470171180439463,-0.6958702249679494,8.88856371978405,1.1169437440535221,-0.34411933368019304,-0.09632891399349038,467.90989783888057,478.3437699597421,465.1778587260614,upstairs
25.49248747913189,-1.1371508673749087,-0.3369274638761469,9.328889087257949,-0.11563551922088507,0.8057587694385961,-0.6960690651983368,413.7598978983903,506.7365484131001,523.2824662690459,upstairs
25.542570951585976,-0.751685990312424,-0.4165559962366179,10.259177826949168,0.5798487058775623,-0.9274206871201242,0.28586773264880444,513.9831738052286,543.3785245262698,500.86543024123904,upstairs
25.592654424040067,-0.5030519083650893,0.08103832388670403,11.007840065162958,-1.1778574055308977,1.0031219179334538,-0.666640031361508,487.8994820556972,488.21810788422397,423.3494673484652,upstairs
25.642737896494157,0.43564224565294224,0.4541850055915231,11.194970300544508,0.46918847237093037,0.5728672749583971,0.03756166983930592,483.615375265991,558.5575147432612,514.7817163013708,upstairs
25.69282136894825,0.5713747059571544,0.2986302599776922,11.189651116962729,-0.46354544221734173,0.18547308465630222,-1.5392063783597552,445.10540899624743,537.366721799646,454.14570225534567,upstairs
25.74290484140234,0.6862265734518129,0.5928708923501755,11.101620384262654,-0.9820798415615177,-1.3951219664932313,-0.04137832061861982,453.1552707529806,491.2400573201629,549.8837334702678,upstairs
25.792988313856426,0.734414972591796,0.5970850254315969,10.835196856009242,-1.1137409692902904,-0.5410805244241522,0.22625598768426597,459.77728450546846,502.14901646090675,497.8719493402445,upstairs
25.843071786310517,1.0782502923407777,-0.15045157870932058,9.74033207259745,-0.28030524317784244,-0.545540928071062,0.941833981272476,453.2533255627467,446.52878429171403,483.5346232923354,upstairs
25.893155258764608,0.4822455399944419,-0.17528991140867434,9.304892720387121,1.1103528693555869,-0.9146247771879735,-0.8522933870295651,559.9156052541034,483.204618154051,459.91277676597025,upstairs
25.9432387312187,-0.14784898395194726,-0.31544351463127296,8.742233769416528,0.2259611734320623,0.8901625018047409,-0.25231352717623096,488.5275219013754,548.7924206859892,520.1725831223747,upstairs
25.99332220367279,-0.4247524006826937,-0.6052244822702035,8.151719916175944,-0.8225784452198872,0.05875912035358816,-0.058044604374565996,559.3028131867687,474.7739510145567,555.4641195906481,upstairs
26.043405676126877,-1.0786985167164038,-0.5453472134101582,8.173194553575469,0.40021798334158176,-0.2810004667593846,0.0888439536839359,489.0139439470254,432.5007161798654,499.7907344222956,upstairs
26.093489148580968,-0.7962753442731552,-0.5548133544728227,8.915567654437215,0.03343290990818339,0.9488260798509803,0.10219567933807931,550.6748359685632,523.5737083620492,504.4233540509682,upstairs
26.14357262103506,-0.7256549069086505,-0.5789011956352861,9.175710365193451,-1.3196774612728916,-0.5699434559528076,0.22719359142248488,476.8157622198334,507.90831485138807,479.4797104052281,upstairs
26.19365609348915,-0.12927025596637476,0.034835952356435315,10.103808247821886,-0.5347849074004479,0.3091643336696214,-1.2536753271555596,496.3480576553696,517.9593862192294,479.4577205464268,upstairs
26.24373956594324,0.18786087582297112,0.19085517072988664,10.994844305567105,0.7133412045226356,-0.6941921262819734,-0.0075289750657544915,492.30603265950526,542.320054587128,557.064773261099,upstairs
26.293823038397328,0.5150273375319925,0.477704511353978,11.68993787331708,1.5826827380225783,0.6552661232439049,1.560713688256491,470.46754793018687,377.4117226200816,487.8545080570076,upstairs
26.34390651085142,0.956712922334085,0.9853501624800618,11.504008133893702,0.7953905238925367,-0.5486362867207513,-1.2341179140909957,482.77854181959486,542.692459815068,491.92939003052936,upstairs
26.39398998330551,1.0830210145250896,0.51185627548206,10.923796826934387,0.5718204005738259,0.36084495223361995,-0.6249131849492462,562.7389083148452,493.3282407897435,498.8100833742713,upstairs
26.4440734557596,1.2019719929407422,-0.059414842028619685,10.197298324424196,1.2586273303431876,-0.8811439649437643,0.7982047421108954,439.3855366607957,470.88953918163196,567.0554234777813,upstairs
26.49415692821369,0.6189180322596745,0.07154912910462957,9.46716180724556,1.6102309022709733,-0.16360526152677435,0.7343278474479847,549.7568358805746,492.40076678399123,486.4638348344138,upstairs
26.544240400667782,0.20743884222537667,-0.08252512945239535,8.988337122249575,-0.31267819952786774,1.1509074874247942,0.3209120717840951,477.18560025687054,433.87531400257933,498.28951383185904,upstairs
26.59432387312187,-0.016680360251592696,-0.43179142805067067,8.703967439830688,0.4763349220672319,0.12652822488021678,0.40938337051614493,514.7991414094952,513.190485232324,590.8552628503157,upstairs
26.64440734557596,-0.9385031003992856,-0.6836403250287542,8.463688665207917,-0.0034154663913906463,-0.5499367348494363,0.008686972365356274,508.6944894642884,482.51950972170323,475.7656442368974,upstairs
26.69449081803005,-0.732388168929379,-0.6666154435855423,8.584839248029901,-0.8158267161794002,-0.39035826422008363,-0.991586996879179,518.9814619550475,581.8868850083392,586.192028921598,upstairs
26.74457429048414,-0.961724919536501,-0.4057962499270863,9.184429454501972,1.83176479627429,0.5534097995535443,1.1690637569121296,403.6057109365055,567.6638583822914,546.3494922787686,upstairs
26.794657762938233,-0.7630613648412747,-0.3224044321294146,9.491610933185104,0.9698486020730304,-1.1962043392305355,-0.2633421801169146,503.7070708650279,469.1982496284829,551.2659605170197,upstairs
26.84474123539232,0.042907085795682975,0.16991026976292495,10.64640916467685,-0.043177073882063856,0.02512037189519806,-0.49133236060572444,491.1171258292315,437.9685689484773,500.6310560034387,upstairs
26.89482470784641,0.4430713050533723,0.6293613105885822,11.448710577715367,-0.4439038637503838,-1.1735810740263788,0.38037297187606484,470.497717940638,499.8328483454785,482.4678543560963,upstairs
26.9449081803005,0.5644372561791435,0.9767177975958727,11.699927327840063,-0.10395945203208826,0.5925450661393677,0.303880079921676,492.4740107559474,529.8547116686167,486.287379705996,upstairs
26.994991652754592,0.9976639041979224,0.5775989391708514,10.746647113956293,-0.6195355394492373,0.19252394809857404,-0.3386154525850816,539.8972007485969,462.5384738133593,432.78301171144255,upstairs
27.045075125208683,0.8617091008014497,0.6719572161629286,10.298329269877092,0.25830484418308747,0.23023569641525596,-0.3612501517820345,515.8439112132846,494.5566111011535,432.7673082332298,upstairs
27.09515859766277,0.8915926881262202,0.06810168116256154,10.042916538713206,-0.37187135904691654,-0.8365093836947344,-0.33460245955272727,506.9812736811836,480.1988016699874,541.0366315851121,upstairs
27.14524207011686,0.30104616281888175,-0.08042762652769889,9.139897345784078,0.057262483331220276,-0.31855759510981035,1.0983667253214566,469.0284429960527,489.7216368749568,514.5904939555152,upstairs
27.195325542570952,-0.08423177641330629,-0.760750994825174,8.430068271307592,1.4376578130795452,0.2761089496288953,0.026796232993935423,488.87712735866756,452.3105098853146,461.1457844005504,upstairs
27.245409015025043,-0.18594514341282048,-0.6874004292431017,8.238392506609815,-0.4122155226974358,-0.543318124149957,0.6272046692139039,497.7899860646831,494.11244059701414,483.48090867701694,upstairs
27.295492487479134,-0.5850695758755853,-0.694028385524895,8.003762717897454,0.47727612949888165,-1.2578306199316245,1.0403345631320249,458.6976154073397,441.99594621318033,511.5254635653738,upstairs
27.34557595993322,-1.2010610983830907,-0.573453740806029,8.932466205084406,-0.14758742194500848,1.327983074334261,-0.6827032010883651,494.16600146321247,559.6639493854449,464.5609524830592,upstairs
27.395659432387312,-0.844843804422416,-0.435802616227526,9.55324177433534,-0.39208326650501074,0.7002613393551185,0.0960588446209326,510.8518759654585,479.25519267423834,510.692737523976,upstairs
27.445742904841403,-0.04160172474592072,0.2905390245225305,10.340869073398924,-0.7539552545678356,0.9387280908812159,-0.7973070200644778,483.4970307118679,493.9921868985157,511.2301256033817,upstairs
27.495826377295494,-0.1678493846753289,0.32391546326400067,10.920212455951708,0.9362581406845432,0.5353208198515274,-0.016558975874612095,516.287692618208,536.1292782032967,439.8061545866369,upstairs
27.545909849749584,0.020743736163496507,0.4226600574221234,11.399008296489704,0.5423952480801327,-0.2853769231047332,-1.105330280937762,455.86620722021087,526.1112893123159,552.4504067296409,upstairs
27.59599332220367,1.0224448040943126,0.7142946186819232,11.235332886497348,-1.1051239379287596,-0.9063541333093577,-0.23379337656578908,410.5249992272858,478.3525906970096,433.622585185679,upstairs
27.646076794657763,0.8259801854936689,0.6731028111269157,11.03270029733704,-0.7283190011141419,-0.8281094977125399,-1.3016476178873617,482.90021980179336,487.37813453068986,452.8629449313226,upstairs
27.696160267111853,0.6520648082456115,0.49970760436414563,10.252528811926322,0.8075186978280959,0.9715685902504276,-0.6247058552567983,481.56844638381443,479.79674009419625,548.8909345801352,upstairs
27.746243739565944,0.570639880247123,0.36950446675808446,9.479713767373635,0.15228619213966163,-0.13286695937484197,-1.1119812862205625,511.94265921355003,438.8107170161718,469.49891885487125,upstairs
27.796327212020035,0.07032943376367078,-0.4091134786516746,8.876531734964754,-0.0012695289183290307,-0.9451453185034067,-0.08872450189806642,508.8737209358436,507.6156866470637,513.6190627658311,upstairs
27.846410684474122,-0.45405791856908867,-0.4305479407540825,8.067765148048437,-1.467681561320244,-0.33058418144838264,-1.0338729286631692,509.5601415367742,492.29014800589204,550.9623117321477,upstairs
27.896494156928213,-0.9257411758421382,-0.5128937224900869,8.295943526696547,0.4513488441589986,-1.96812510852602,0.6027612909541722,541.572828896896,558.7135166903639,454.32772413919616,upstairs
27.946577629382304,-0.9437373449316708,-0.7592758221530904,8.624144394933758,-1.4787993433288495,0.38754742728904873,-0.5393586668593298,460.2241036276265,527.2214651811076,509.8814238875541,upstairs
27.996661101836395,-0.9078061263655968,-0.10952758850452043,8.977115898798155,0.9372725965520509,-1.0901302994900006,-0.2565749669882306,503.10573996742943,451.7920356488613,463.6632164602873,upstairs
28.046744574290486,-0.9408883987078598,-0.326436770486073,9.83795265371921,-1.126407239747663,-0.40594548311227957,0.43309713651485854,515.1745961846159,528.67623020387,543.384754658819,upstairs
28.096828046744577,-0.5182567592175963,0.048564788740072654,10.689375480645335,-0.298205893957368,0.538209916957527,-1.2755188034903364,454.7068842401381,476.1005249020357,493.25241028845056,upstairs
28.146911519198664,0.23923033011484213,0.6042164552750062,11.224944819312466,-0.6743908623453703,-0.3947813706158923,-0.04243792505450615,483.66897313062435,468.0030676112976,509.22440846063,upstairs
28.196994991652755,0.5120636197209213,0.7600297197939163,11.473414676864513,0.3042527133131775,0.002319400633059931,-0.6962504744958504,502.19078022956313,493.3601270744946,460.11871324695727,upstairs
28.247078464106846,1.0461987289119412,1.103385378202658,10.793569993197618,-1.0956200483118133,-0.5778770106727134,0.37353259610033335,522.3584062875609,488.09203665049387,469.98009699274724,upstairs
28.297161936560936,0.92063131201405,0.335358850573237,10.561916430662803,-0.02793531917250192,0.9288989018310687,1.7483020597509364,520.5004426264027,469.5222896318795,566.0234903247662,upstairs
28.347245409015027,1.0290934476985778,-0.19152480315704878,10.252751505504168,0.10801673086754017,-0.41156362788569406,0.6096178146551176,483.65721113068213,521.3808894177266,400.93261156552296,upstairs
28.397328881469114,0.2379421702933961,-0.1039963869706618,8.957016157857558,0.48387641191352226,-0.31593469532696566,-0.6405731734411302,494.29159266805755,513.3535778156386,498.7643110357571,upstairs
28.447412353923205,-0.041481616931244636,-0.6397223862001096,8.83195608895791,-0.3829117023594315,0.34392044044121417,0.5064126306137267,486.1241831678065,529.6110731138324,523.8977808283906,upstairs
28.497495826377296,-0.205325611784357,-0.44717207156155153,8.076865709353816,-0.19299316408796763,-1.073901934036456,-0.286353419937242,458.59478347981394,538.01513182898,562.1950531809152,upstairs
28.547579298831387,-0.8567701213979281,-0.8255680681434523,8.135385061137043,0.6980141457965355,0.9178893759785839,-1.4900501348300805,539.6285762211519,498.1761538569952,545.7026410263705,upstairs
28.597662771285478,-0.9737269610328635,-0.3558227020986984,8.58744448136971,0.5488579269881357,0.4411765577323235,0.2697623145533804,496.8288008788364,500.91417440448777,516.5493635964478,upstairs
28.647746243739565,-1.1013715700479076,-0.411302224320789,9.726778207690613,0.20341644435176823,-0.5565948254737931,0.7046034690839095,499.0470669149477,483.91835509230543,517.1828072084282,upstairs
28.697829716193656,-0.812175599564616,-0.19349359652785875,10.471432510786343,-0.6681766339976836,-0.485591977130063,-0.17302592387850876,495.2773910191901,386.3731363171709,485.23173506739096,upstairs
28.747913188647747,-0.1185252026139439,0.4013221660900059,10.80502400935523,0.14717057423859742,1.569864117595415,-0.17575706384969042,459.4210675291076,479.56156957757014,531.8555411265739,upstairs
28.797996661101838,0.38150545344896314,0.5088672207496623,11.19305235819266,1.862224257045874,-0.38071114023841873,0.19015451816312667,511.6772655077243,463.0653403649076,490.3651907085609,upstairs
28.84808013355593,0.5258906804165514,0.8932464226098238,11.650588369495686,-0.00488330842639884,1.8846847521554402,-0.020657281763591957,533.1789500715955,477.4945913403036,457.86880826451596,upstairs
28.898163606010016,1.0255139633761756,0.5204582562992309,10.710934985780872,0.04812632795348309,0.837210147493662,-0.8062660359712508,462.0153371801672,503.2170523267231,507.31688352240127,upstairs
28.948247078464107,0.8470019984236689,0.4186642280525451,10.106267051827583,0.43052419575738227,-0.9919241985058185,0.556308349512084,455.29966395888016,511.331731160985,461.068401142484,upstairs
28.998330550918197,0.6052551941221508,0.14505702740886173,9.415523841145346,-0.9672046983043097,-0.17922906093872157,-0.7106874428428809,567.5002242366677,536.4638178593523,444.74918440396266,upstairs
29.04841402337229,0.059868072202768643,-0.11852307979103718,8.583120045483907,-0.16947633194293216,0.956469653346076,0.054326641328861565,426.97291183794,473.4986751507209,554.9214062595196,upstairs
29.09849749582638,-0.46888601488721554,-0.7448509694056968,7.936925680201566,-0.0031447370479601817,-1.7328541266749597,0.38670847036291145,416.8241791306426,474.85704118220855,430.84731484489237,upstairs
29.148580968280466,-0.9279578734675308,-0.7823885993732529,8.0575229357955,-0.12048435604863038,0.6701717894415264,1.332197219453303,465.0715996459972,504.7167421524547,490.09549079005546,upstairs
29.198664440734557,-0.9345497520238699,-0.5889346420400947,8.29299506337456,0.45113040498198137,0.08525544686925093,-0.3503569625496493,562.3647182736615,541.2972766770993,502.9398111790052,upstairs
29.248747913188648,-0.7658012437157588,-0.32609382182473945,9.161425429031949,-0.8753327827370995,-0.4438066604304764,1.5666741572786416,507.83392333908887,503.809846523561,467.1964121376828,upstairs
29.29883138564274,-0.549694011445513,-0.262949881273811,10.184385115957344,0.5751774287894365,-0.47095416081339914,-0.19176527820585187,476.086534593171,533.9318638703386,544.7608963762488,upstairs
29.34891485809683,-0.2517956135698978,0.007829676749505132,10.863239102723268,-0.5240562404920953,-0.16253659869226195,0.11931384002541057,525.3250687447063,433.0664015169628,427.46208129974707,upstairs
29.398998330550917,0.4309348946769264,0.1858655898872934,11.189703604809079,0.28978045280536574,-0.29591366398358965,-1.4609876602245695,522.3565952444997,520.639044737936,530.7711968234624,upstairs
29.449081803005008,0.4753012322734281,0.7716105253768886,11.426474964897292,0.2624818047368617,-0.7398453734077731,1.223169305225192,539.6559953711479,453.2712206034085,560.439626763187,upstairs
29.4991652754591,0.734214842446258,0.7415756983792099,11.518250709455904,0.44403093868171983,0.19658218718744333,0.41854476676033137,405.27197168689776,469.80063027646025,526.9179045812497,upstairs
29.54924874791319,0.8802783797206137,0.34242768058662554,10.639658807986297,0.37038278362904986,0.27439615813681045,0.03854323078188483,453.2532946795596,462.1653994570949,502.29567578927174,upstairs
29.59933222036728,0.8049249819899368,-0.12830319456240147,10.160127188953371,0.11441210559277706,0.1286897128804664,-0.1330894351353821,478.3867801064268,467.3083010594504,487.79117079992784,upstairs
29.64941569282137,0.27194574498150326,0.06193468277391796,8.961966024221214,-0.383830260264236,1.183926685325681,-1.1712537778902394,446.31339682534605,462.09624873401077,529.4680462057545,upstairs
29.69949916527546,-0.12975900994107392,-0.48873079543559356,8.616747450922567,-0.04134588818817324,-0.6064128746727492,-1.0450472993749091,481.7629908740627,465.71326764169527,486.1666825373341,upstairs
29.74958263772955,-0.3768220399795851,-0.7170310117482053,7.965824442579687,0.7460775996437814,-0.3599257475998966,-0.639029692293724,487.6219467207502,530.5582231006076,562.5750212572607,upstairs
29.79966611018364,-0.9856470230456544,-0.18788735559784953,8.740246015308886,-0.1743837971268424,0.1904720669669821,-0.1529939411823148,483.09531214540135,444.77471566264006,521.9887911838119,upstairs
29.84974958263773,-1.1301493997593297,-0.6186975286365046,9.017695077876224,1.4324004068397225,0.9971620759948708,0.5915256334091059,550.183062054284,512.1650487775506,487.0944306031995,upstairs
29.899833055091822,-1.1810073631063216,-0.02935690786387324,9.754235350953167,0.33750230259545183,-0.31949865426869695,0.952914100474342,405.56415224742545,487.4725133758868,517.8953956422762,upstairs
29.94991652754591,-0.6390205271626652,-0.2625601383574717,10.278003236899208,-1.629506287298545,0.635205631722081,-0.13150681439953132,527.4183231142284,531.9775926162484,495.51382282922407,upstairs
30.0,-0.0598427771357649,0.38251222698101434,10.988626159078706,-0.4514164768975381,-0.20022257689826392,0.45435411997127506,537.2170805376236,523.262050877996,559.3361197366778,upstairs
