ax,ay,az,gx,gy,gz,mx,my,mz
0.7042031371883243,0.3906947273913514,0.4197350350810812,21.64284625117506,23.953231746897202,25.262293264406313,-125.08807891197259,51.60000008352967,-132.7814778389377
0.6873574371883243,0.4011927273913514,0.40191273508108116,18.51306625117506,13.762391746897203,31.048553264406316,-125.08807891197259,51.60000008352967,-132.7814778389377
0.6927285371883243,0.4607630273913514,0.37041863508108114,18.97872625117506,23.3272717468972,21.308093264406317,-117.72807891197257,56.20000008352967,-132.7814778389377
0.6861367371883244,0.5266810273913514,0.33623893508108116,11.024526251175065,18.579181746897202,17.147793264406314,-117.72807891197257,56.20000008352967,-132.7814778389377
0.6695352371883243,0.5232630273913514,0.31109243508108114,5.070324251175064,12.533381746897204,12.697413264406315,-115.88807891197258,58.96000008352967,-131.86147783893767
0.6509805371883243,0.5354700273913513,0.30694203508108114,5.016888251175063,6.403611746897203,7.040921264406315,-115.88807891197258,58.96000008352967,-131.86147783893767
0.6380410371883243,0.5300989273913514,0.30962763508108115,3.856583251175063,-0.09257125310279779,0.8195477644063145,-115.88807891197258,58.96000008352967,-131.86147783893767
0.6355996371883244,0.5134974273913513,0.3286705350810812,-5.547996748824936,-8.153640253102798,-2.5544977355936855,-115.88807891197258,59.88000008352967,-132.7814778389377
0.6265664371883243,0.5213099273913513,0.3604088350810812,-15.998373748824935,-15.817758253102797,-6.043047735593686,-115.88807891197258,59.88000008352967,-132.7814778389377
0.6233926371883243,0.5227747273913514,0.38140493508108114,-17.235023748824936,-18.8101282531028,-10.050676735593685,-115.88807891197258,59.88000008352967,-132.7814778389377
0.6365762371883243,0.5254603273913514,0.40923693508108117,-16.784633748824938,-17.520048253102797,-15.149916735593685,-117.72807891197257,58.96000008352967,-131.86147783893767
0.6663613371883244,0.4988489273913514,0.37774283508108114,-13.708303748824937,-12.894098253102797,-19.218616735593685,-117.72807891197257,58.96000008352967,-131.86147783893767
0.6963906371883243,0.48078252739135136,0.34356313508108116,-14.708303748824937,-14.802498253102797,-21.104116735593685,-117.72807891197257,58.96000008352967,-131.86147783893767
0.7337442371883243,0.49469862739135134,0.34453973508108116,-24.19685374882494,-18.069668253102797,-21.462896735593684,-120.4880789119726,56.20000008352967,-132.7814778389377
0.7527871371883244,0.5315638273913514,0.3645592350810812,-28.86860374882494,-22.779598253102797,-22.989616735593685,-120.4880789119726,56.20000008352967,-132.7814778389377
0.7745156371883243,0.5432825273913513,0.39410023508108116,-28.88387374882494,-24.0391382531028,-29.615566735593685,-125.08807891197259,55.28000008352967,-132.7814778389377
0.7813516371883243,0.4961634273913514,0.3755455350810812,-17.28082374882494,-19.542948253102796,-35.17281673559369,-125.08807891197259,55.28000008352967,-132.7814778389377
0.7945352371883243,0.45832162739135135,0.37359243508108114,-12.502193748824936,-23.069668253102797,-39.455256735593686,-125.08807891197259,55.28000008352967,-132.7814778389377
0.7957559371883243,0.4058314273913514,0.41021353508108116,-14.700663748824937,-26.6116582531028,-42.24915673559369,-131.52807891197259,52.52000008352967,-133.70147783893768
0.7989297371883243,0.3623743273913514,0.45391473508108116,-18.61670374882494,-30.4131782531028,-42.34839673559369,-131.52807891197259,52.52000008352967,-133.70147783893768
0.8008828371883243,0.34064582739135135,0.5010338350810811,-12.387693748824937,-26.978068253102798,-41.19571673559369,-131.52807891197259,52.52000008352967,-133.70147783893768
0.8101602371883243,0.3006068273913514,0.5281334350810811,-10.265554748824936,-21.9246282531028,-38.92854673559369,-137.96807891197258,47.00000008352967,-132.7814778389377
0.8279824371883243,0.2591029273913514,0.5330162350810812,-9.212118748824937,-14.168908253102797,-34.79876673559369,-137.96807891197258,47.00000008352967,-132.7814778389377
0.8179727371883243,0.22150522739135142,0.49566273508108116,-3.563263748824937,-6.947533253102797,-28.127016735593685,-142.56807891197258,42.400000083529676,-131.86147783893767
0.8289590371883243,0.23346812739135142,0.4944420350810812,1.2458962511750635,-1.7185252531027977,-20.142286735593686,-142.56807891197258,42.400000083529676,-131.86147783893767
0.8284707371883243,0.24128062739135142,0.4797936350810812,3.1161252511750637,1.7394897468972021,-18.302586735593685,-142.56807891197258,42.400000083529676,-131.86147783893767
0.8121133371883243,0.2217493273913514,0.4692955350810811,6.910019251175063,4.487581746897202,-12.127016735593685,-144.40807891197258,40.56000008352967,-131.86147783893767
0.7911172371883243,0.24323372739135135,0.4670983350810812,9.879486251175063,1.4570477468972025,-5.775872735593686,-144.40807891197258,40.56000008352967,-131.86147783893767
0.7950235371883243,0.24909312739135142,0.4890709350810811,16.42910625117506,5.594450746897202,-1.2949557355936854,-144.40807891197258,40.56000008352967,-131.86147783893767
0.7984414371883243,0.2527552273913514,0.5066490350810812,14.200096251175063,12.663151746897201,1.4836702644063147,-143.4880789119726,40.56000008352967,-131.86147783893767
0.8028360371883243,0.3084193273913514,0.4912682350810812,12.879486251175063,16.6631517468972,5.750845264406315,-143.4880789119726,40.56000008352967,-131.86147783893767
0.7962442371883243,0.3555384273913514,0.48785023508108116,21.95581625117506,22.953231746897202,8.865349264406316,-140.72807891197257,40.56000008352967,-132.7814778389377
0.7879434371883243,0.34626112739135134,0.40850453508108114,34.36803625117506,27.6249917468972,14.231763264406315,-140.72807891197257,40.56000008352967,-132.7814778389377
0.7505899371883243,0.3589564273913514,0.38042833508108115,27.276426251175064,14.228041746897203,22.850083264406315,-140.72807891197257,40.56000008352967,-132.7814778389377
0.7359414371883243,0.47126112739135134,0.4431725350810811,2.146660251175063,1.9837647468972022,23.651613264406315,-135.2080789119726,43.32000008352968,-133.70147783893768
0.7151895371883243,0.4502650273913514,0.47320183508108116,-1.7006684488249366,13.166971746897202,17.430233264406315,-135.2080789119726,43.32000008352968,-133.70147783893768
0.7308145371883243,0.37336072739135134,0.38628773508108116,12.688646251175063,17.6784217468972,19.758483264406316,-135.2080789119726,43.32000008352968,-133.70147783893768
0.7034707371883243,0.3758021273913514,0.35650263508108115,9.971086251175064,8.777661746897202,24.025653264406316,-133.3680789119726,45.160000083529674,-133.70147783893768
0.6443887371883243,0.4878626273913514,0.4356041350810812,-0.16631734882493665,1.312008746897202,20.056183264406314,-133.3680789119726,45.160000083529674,-133.70147783893768
0.6255899371883243,0.4680872273913514,0.5137291350810812,15.322236251175065,19.067731746897202,9.575273264406315,-130.6080789119726,46.08000008352967,-132.7814778389377
0.6556192371883243,0.41095832739135135,0.4670983350810812,41.89475625117507,32.1746017468972,3.9264182644063146,-130.6080789119726,46.08000008352967,-132.7814778389377
0.6619668371883243,0.3042689273913514,0.3989830350810812,44.597046251175065,29.815821746897203,8.674509264406314,-130.6080789119726,46.08000008352967,-132.7814778389377
0.6453653371883243,0.3325892273913514,0.40581903508108114,25.38329625117506,23.090631746897202,13.582903264406315,-126.00807891197258,47.92000008352967,-133.70147783893768
0.6507363371883244,0.3506556273913514,0.4426842350810811,13.642846251175063,27.0066617468972,16.888253264406316,-126.00807891197258,47.92000008352967,-133.70147783893768
0.6524453371883243,0.3418665273913514,0.4480553350810812,9.696276251175064,34.2585717468972,18.521843264406314,-126.00807891197258,47.92000008352967,-133.70147783893768
0.6761270371883243,0.3623743273913514,0.38360223508108116,12.337496251175065,33.686051746897206,25.712683264406316,-122.32807891197258,50.68000008352967,-133.70147783893768
0.6736856371883243,0.38703252739135136,0.3875084350810812,15.284066251175064,31.0982717468972,28.651613264406315,-122.32807891197258,50.68000008352967,-133.70147783893768
0.6763711371883243,0.4336634273913514,0.36993033508108114,13.490176251175065,33.60972174689721,29.460773264406313,-117.72807891197257,55.28000008352967,-134.62147783893766
0.6724649371883243,0.4815150273913514,0.38042833508108115,6.8794842511750645,34.9379617468972,26.018023264406317,-117.72807891197257,55.28000008352967,-134.62147783893766
0.6727090371883243,0.5108118273913513,0.36602403508108117,6.047423251175063,28.525751746897203,22.514203264406316,-117.72807891197257,55.28000008352967,-134.62147783893766
0.6595254371883243,0.49372202739135135,0.36993033508108114,12.482536251175064,28.708951746897203,19.643973264406316,-115.88807891197258,58.96000008352967,-134.62147783893766
0.6507363371883244,0.5430384273913513,0.35699083508108115,-1.2044852788249367,5.525749746897203,9.392066264406315,-114.04807891197258,61.72000008352967,-134.62147783893766
0.6585488371883244,0.5222864273913514,0.35284043508108115,-0.8304394488249367,3.0753677468972023,5.178326264406314,-114.04807891197258,61.72000008352967,-134.62147783893766
0.6473184371883243,0.5349818273913514,0.33868033508108114,3.055056251175063,-3.138372753102798,2.498937264406315,-114.04807891197258,61.72000008352967,-134.62147783893766
0.6502481371883243,0.5337611273913514,0.35064323508108114,-4.700668748824937,-5.1765402531027975,-5.294955735593685,-113.12807891197258,62.64000008352967,-134.62147783893766
0.6707559371883243,0.5271693273913514,0.3333092350810812,-13.509823748824935,-7.955166253102798,-12.142286735593684,-113.12807891197258,62.64000008352967,-134.62147783893766
0.6897988371883244,0.5095911273913514,0.34722523508108116,-17.28845374882494,-11.680357253102798,-15.325486735593685,-115.88807891197258,62.64000008352967,-135.54147783893768
0.7012735371883243,0.5071497273913514,0.3296471350810812,-15.486923748824935,-18.1231082531028,-20.119386735593686,-115.88807891197258,62.64000008352967,-135.54147783893768
0.6971231371883243,0.4961634273913514,0.33990103508108116,-13.028913748824936,-20.0391382531028,-24.325486735593685,-115.88807891197258,62.64000008352967,-135.54147783893768
0.7093301371883243,0.47345832739135135,0.35186393508108116,-16.273183748824938,-21.0391382531028,-29.485796735593684,-117.72807891197257,59.88000008352967,-135.54147783893768
0.7359414371883243,0.4534388273913514,0.3364830350810812,-18.135783748824938,-26.268148253102797,-32.43999673559369,-117.72807891197257,59.88000008352967,-135.54147783893768
0.7305703371883243,0.45856572739135143,0.37017443508108117,-17.33425374882494,-32.5429482531028,-34.44762673559369,-117.72807891197257,59.88000008352967,-135.54147783893768
0.7374063371883243,0.45075322739135143,0.38311393508108116,-15.555633748824937,-32.1231082531028,-38.56212673559369,-123.24807891197258,57.12000008352967,-135.54147783893768
0.7535195371883243,0.4136439273913514,0.39458853508108116,-8.517461748824937,-30.7185282531028,-38.69190673559369,-123.24807891197258,57.12000008352967,-135.54147783893768
0.7647500371883243,0.4024134273913514,0.41802603508108116,-12.112883748824936,-29.4742482531028,-37.52396673559369,-128.76807891197257,52.52000008352967,-135.54147783893768
0.7674356371883243,0.39948372739135135,0.4287682350810812,-14.028913748824936,-23.2986782531028,-34.60029673559369,-128.76807891197257,52.52000008352967,-135.54147783893768
0.7659707371883243,0.4016810273913514,0.4241295350810812,-17.609063748824937,-27.000968253102798,-33.74533673559369,-128.76807891197257,52.52000008352967,-135.54147783893768
0.7708535371883243,0.3762904273913514,0.40166863508108114,-7.647233748824936,-20.4284482531028,-36.325486735593685,-133.3680789119726,47.92000008352967,-134.62147783893766
0.7623086371883243,0.3450404273913514,0.40606313508108116,-5.509828748824937,-18.4818882531028,-33.85983673559369,-133.3680789119726,47.92000008352967,-134.62147783893766
0.7691445371883243,0.32599742739135135,0.42119983508108116,-15.693033748824936,-29.558218253102797,-29.401826735593684,-133.3680789119726,47.92000008352967,-134.62147783893766
0.7618203371883243,0.3230677273913514,0.4861412350810812,-20.387693748824937,-31.8406682531028,-23.791136735593685,-138.88807891197257,42.400000083529676,-133.70147783893768
0.7330117371883244,0.2844935273913514,0.5103111350810812,-19.402953748824938,-28.2528782531028,-25.493426735593683,-138.88807891197257,42.400000083529676,-133.70147783893768
0.7593789371883243,0.26740362739135143,0.5281334350810811,-11.204483748824936,-20.2070782531028,-12.707166735593685,-142.56807891197258,38.72000008352967,-131.86147783893767
0.7659707371883243,0.25568492739135135,0.5515709350810811,-13.593793748824936,-15.741428253102796,-8.348390735593686,-142.56807891197258,38.72000008352967,-131.86147783893767
0.7579141371883243,0.2857142273913514,0.5496178350810812,-14.334253748824937,-11.069670253102798,-1.4170937355936855,-142.56807891197258,38.72000008352967,-131.86147783893767
0.7498574371883243,0.3040247273913514,0.5466881350810812,-6.166317748824937,-1.1994412531027976,4.521837264406314,-144.40807891197258,37.80000008352967,-130.9414778389377
0.7405801371883243,0.3233118273913514,0.5173912350810812,-1.1815845088249366,4.067733746897202,9.941685264406315,-144.40807891197258,37.80000008352967,-130.9414778389377
0.7369180371883243,0.31427862739135143,0.4866295350810812,-0.16631734882493665,4.273840746897202,16.193593264406314,-144.40807891197258,37.80000008352967,-130.9414778389377
0.7230020371883243,0.3267298273913514,0.48858263508108113,2.6275762511750633,3.7929247468972025,20.353903264406316,-144.40807891197258,38.72000008352967,-130.9414778389377
0.7181192371883243,0.35675912739135135,0.5247154350810812,0.9710872511750632,7.983761746897203,23.544743264406314,-144.40807891197258,38.72000008352967,-130.9414778389377
0.7156778371883243,0.40046032739135135,0.5132408350810811,1.1695602511750636,12.151701746897203,22.346263264406314,-144.40807891197258,38.72000008352967,-130.9414778389377
0.7264199371883243,0.3787318273913514,0.48833853508108116,10.757346251175063,20.395981746897203,22.300463264406314,-142.56807891197258,40.56000008352967,-131.86147783893767
0.7369180371883243,0.35260872739135135,0.4749108350810812,15.826046251175063,22.8158217468972,24.445503264406316,-142.56807891197258,40.56000008352967,-131.86147783893767
0.7513223371883243,0.35700322739135143,0.43999863508108117,17.055056251175063,23.2585717468972,26.743213264406315,-138.88807891197257,44.240000083529665,-132.7814778389377
0.7488809371883243,0.36921032739135135,0.4509850350810811,12.093226251175064,20.136431746897202,29.498933264406315,-138.88807891197257,44.240000083529665,-132.7814778389377
0.7603555371883243,0.37970832739135135,0.43267443508108117,14.261166251175064,20.044831746897202,31.850083264406315,-138.88807891197257,44.240000083529665,-132.7814778389377
0.7535195371883243,0.3628626273913514,0.4277916350810812,18.818416251175062,26.846361746897202,33.78138326440631,-134.28807891197258,47.92000008352967,-133.70147783893768
0.7439981371883243,0.4097376273913514,0.4251061350810812,17.795516251175062,25.3196417468972,31.437863264406314,-134.28807891197258,47.92000008352967,-133.70147783893768
0.7447305371883243,0.43390752739135136,0.4436608350810812,24.795516251175062,28.266211746897202,29.414963264406314,-134.28807891197258,47.92000008352967,-133.70147783893768
0.7498574371883243,0.40680792739135135,0.4282799350810812,33.795516251175066,31.594451746897203,26.811913264406314,-128.76807891197257,50.68000008352967,-134.62147783893766
0.7618203371883243,0.3736048273913514,0.3967858350810812,33.848946251175065,29.457051746897204,28.277563264406314,-128.76807891197257,50.68000008352967,-134.62147783893766
0.7627969371883243,0.41193492739135135,0.3713951350810812,22.71154625117506,20.2127717468972,30.857713264406314,-122.32807891197258,54.36000008352967,-134.62147783893766
0.7369180371883243,0.4685755273913514,0.38604363508108114,11.329866251175064,15.014301746897202,27.643973264406316,-122.32807891197258,54.36000008352967,-134.62147783893766
0.7449746371883244,0.4636927273913514,0.41802603508108116,13.360396251175064,13.037201746897201,25.880613264406314,-122.32807891197258,54.36000008352967,-134.62147783893766
0.7393594371883243,0.4793177273913514,0.40948113508108114,19.375666251175062,16.6784217468972,23.995123264406317,-117.72807891197257,55.28000008352967,-134.62147783893766
0.7132363371883244,0.4600306273913514,0.41436393508108116,12.581776251175064,13.037201746897201,19.399703264406316,-117.72807891197257,55.28000008352967,-134.62147783893766
0.6902871371883244,0.4461146273913514,0.41729363508108114,16.039786251175062,12.640251746897201,16.636343264406314,-117.72807891197257,55.28000008352967,-134.62147783893766
0.6727090371883243,0.46296032739135135,0.4439049350810812,14.978726251175063,16.2585717468972,16.079093264406314,-114.04807891197258,57.12000008352967,-132.7814778389377
0.6612344371883243,0.4605189273913514,0.39312363508108117,9.108496251175064,19.5410117468972,14.048553264406316,-114.04807891197258,57.12000008352967,-132.7814778389377
0.6434121371883244,0.4810267273913514,0.35406113508108117,9.314596251175065,18.6326217468972,11.140153264406315,-113.12807891197258,58.96000008352967,-132.7814778389377
0.6275430371883243,0.5132532273913515,0.3218346350810812,13.215366251175064,15.823461746897204,2.8806162644063145,-113.12807891197258,58.96000008352967,-132.7814778389377
0.6236367371883244,0.5066614273913514,0.27642443508108117,10.986356251175064,7.319641746897203,-1.7835057355936854,-113.12807891197258,58.96000008352967,-132.7814778389377
0.6202188371883243,0.4876185273913514,0.2864342350810812,8.482537251175064,-1.1536402531027976,-4.462894735593686,-112.20807891197259,58.96000008352967,-132.7814778389377
0.6224160371883243,0.4810267273913514,0.27276233508108116,-1.2350196288249367,-12.581121253102797,-15.905646735593685,-113.12807891197258,58.96000008352967,-131.86147783893767
0.6185098371883243,0.4878626273913514,0.27202993508108114,-0.1815845488249367,-15.329208253102797,-18.523966735593685,-113.12807891197258,58.96000008352967,-131.86147783893767
0.6207070371883243,0.48859502739135136,0.27886583508108115,-6.845706748824936,-22.863568253102798,-21.699536735593686,-113.12807891197258,58.96000008352967,-131.86147783893767
0.6314492371883244,0.5156947273913515,0.30181513508108115,-12.219753748824937,-27.3215782531028,-24.913276735593683,-114.04807891197258,57.12000008352967,-131.86147783893767
0.6526895371883243,0.5178919273913514,0.31988153508108114,-18.50982374882494,-31.1002082531028,-30.386556735593686,-114.04807891197258,57.12000008352967,-131.86147783893767
0.6717324371883243,0.5003138273913514,0.34087763508108115,-18.586163748824937,-30.2147082531028,-33.51632673559369,-114.04807891197258,57.12000008352967,-131.86147783893767
0.6937051371883243,0.46662242739135135,0.34234243508108114,-14.792273748824936,-30.199438253102798,-33.82167673559369,-116.80807891197259,53.44000008352967,-131.86147783893767
0.7232461371883243,0.4925013273913514,0.36480333508108115,-21.21975374882494,-30.1689082531028,-34.14991673559369,-116.80807891197259,53.44000008352967,-131.86147783893767
0.7347207371883243,0.5213099273913513,0.34820183508108116,-24.738833748824938,-29.558218253102797,-38.19571673559369,-121.40807891197258,50.68000008352967,-131.86147783893767
0.7439981371883243,0.4893275273913514,0.29961783508108114,-15.601433748824936,-27.5200482531028,-44.88273673559369,-121.40807891197258,50.68000008352967,-131.86147783893767
0.7652383371883243,0.45002082739135135,0.32305533508108114,-11.120515748824936,-31.779598253102797,-46.37892673559369,-121.40807891197258,50.68000008352967,-131.86147783893767
0.7913613371883244,0.41657362739135134,0.36285023508108116,-16.38005374882494,-34.0467682531028,-43.64609673559369,-127.84807891197258,46.08000008352967,-131.86147783893767
0.7720742371883244,0.4424525273913514,0.37115103508108116,-23.700663748824937,-34.0238682531028,-41.64609673559369,-127.84807891197258,46.08000008352967,-131.86147783893767
0.7435098371883243,0.5066614273913514,0.43340683508108113,-32.402953748824935,-35.588758253102796,-52.65373673559369,-127.84807891197258,46.08000008352967,-131.86147783893767
0.7649942371883243,0.3965540273913514,0.4063072350810812,-22.364793748824937,-23.1078382531028,-53.47052673559369,-134.28807891197258,40.56000008352967,-130.02147783893767
0.7571817371883243,0.3621302273913514,0.4160729350810812,-5.280821748824936,-23.4818882531028,-48.00487673559369,-134.28807891197258,40.56000008352967,-130.02147783893767
0.7376504371883243,0.31672002739135136,0.4587975350810811,-9.311355748824937,-23.8482982531028,-41.24151673559369,-141.6480789119726,35.04000008352968,-127.26147783893768
0.7310586371883243,0.29792122739135135,0.49151233508108116,-11.876243748824937,-25.0085982531028,-32.81403673559369,-141.6480789119726,35.04000008352968,-127.26147783893768
0.7100625371883243,0.3289271273913514,0.5122643350810812,-9.578530748824937,-22.2147082531028,-26.691906735593683,-141.6480789119726,35.04000008352968,-127.26147783893768
0.6968789371883243,0.3159876273913514,0.4990807350810812,-1.6854013488249366,-18.054398253102796,-19.325486735593685,-146.24807891197258,30.440000083529668,-124.50147783893769
0.6868692371883243,0.2659388273913514,0.5037193350810811,0.1924612511750634,-8.810128253102798,-11.951446735593684,-146.24807891197258,30.440000083529668,-124.50147783893769
0.6949258371883243,0.2700892273913514,0.4673424350810812,-3.8762407488249364,-4.710892253102798,-2.7529717355936856,-146.24807891197258,27.680000083529677,-123.58147783893767
0.6915078371883243,0.2774134273913514,0.4692955350810811,-1.2579203888249366,2.7852917468972023,4.491303264406314,-146.24807891197258,27.680000083529677,-123.58147783893767
0.6819863371883244,0.31452282739135135,0.43365103508108116,4.955820251175064,8.128801746897203,8.163059264406314,-146.24807891197258,27.680000083529677,-123.58147783893767
0.7037149371883243,0.2735072273913514,0.44610223508108116,12.925286251175065,12.663151746897201,14.025653264406316,-146.24807891197258,28.600000083529665,-123.58147783893767
0.7244668371883243,0.23102672739135138,0.42730333508108115,13.436736251175065,14.663151746897201,26.178323264406316,-146.24807891197258,28.600000083529665,-123.58147783893767
0.6868692371883243,0.3001185273913514,0.39190293508108115,1.7955142511750632,11.945601746897204,35.964583264406315,-146.24807891197258,28.600000083529665,-123.58147783893767
0.6522012371883243,0.46271612739135143,0.44121933508108113,-7.013645748824937,5.747122746897203,35.62870326440631,-142.56807891197258,31.36000008352967,-124.50147783893769
0.6399942371883243,0.5091029273913514,0.4187584350810812,0.8107822511750633,13.571551746897201,29.147793264406314,-142.56807891197258,31.36000008352967,-124.50147783893769
0.6592813371883243,0.4488001273913514,0.37530143508108116,17.15429625117506,17.5715517468972,31.384433264406315,-142.56807891197258,31.36000008352967,-124.50147783893769
0.6526895371883243,0.5051966273913513,0.3203697350810812,15.910016251175064,13.815821746897202,30.628703264406315,-138.88807891197257,35.04000008352968,-126.34147783893769
0.6285195371883243,0.6572962273913514,0.38164903508108117,7.665744251175063,6.686051746897203,16.872983264406315,-138.88807891197257,35.04000008352968,-126.34147783893769
0.6038613371883244,0.7105184273913514,0.4236412350810812,11.192456251175063,5.495214746897203,-2.0812157355936853,-134.28807891197258,36.880000083529666,-125.42147783893768
0.5950723371883243,0.5860072273913515,0.44561393508108116,34.948186251175066,20.1669717468972,-5.737704735593685,-134.28807891197258,36.880000083529666,-125.42147783893768
0.5823770371883243,0.4944544273913514,0.4160729350810812,38.039786251175066,24.8997917468972,0.01038746440631455,-134.28807891197258,36.880000083529666,-125.42147783893768
0.5491738371883244,0.5025111273913514,0.35479363508108114,12.955816251175063,26.6402517468972,3.9569522644063144,-130.6080789119726,36.880000083529666,-125.42147783893768
0.5442910371883244,0.5071497273913514,0.35821153508108117,-1.6166990488249366,24.2814717468972,3.3157312644063146,-130.6080789119726,36.880000083529666,-125.42147783893768
0.5401406371883244,0.4680872273913514,0.35113153508108114,9.444366251175063,31.418881746897203,5.537105264406314,-130.6080789119726,36.880000083529666,-125.42147783893768
0.5442910371883244,0.4383021273913514,0.36016473508108116,17.749716251175062,33.8463617468972,5.941685264406314,-128.76807891197257,38.72000008352967,-125.42147783893768
0.5494180371883244,0.4287806273913514,0.3318443350810812,11.803146251175065,36.77002174689721,11.323363264406314,-128.76807891197257,38.72000008352967,-125.42147783893768
0.5518594371883243,0.41047002739135136,0.3379479350810812,6.123759251175063,32.1288017468972,14.376803264406314,-126.92807891197259,42.400000083529676,-125.42147783893768
0.5513711371883243,0.4143763273913514,0.34405143508108116,-3.8686077488249366,30.350181746897203,16.178323264406313,-126.92807891197259,42.400000083529676,-125.42147783893768
0.5652871371883244,0.40827282739135135,0.35064323508108114,-2.1052486488249365,33.212771746897204,19.422603264406316,-126.92807891197259,42.400000083529676,-125.42147783893768
0.5633340371883243,0.43024542739135135,0.3240318350810812,-0.08998174882493659,35.43415174689721,22.117253264406315,-126.00807891197258,47.00000008352967,-126.34147783893769
0.5691934371883244,0.4756556273913514,0.3218346350810812,5.055056251175063,28.4036117468972,24.689773264406316,-126.00807891197258,47.00000008352967,-126.34147783893769
0.5645547371883244,0.5508509273913513,0.34038933508108116,1.8947512511750633,26.4952117468972,22.758483264406316,-126.00807891197258,47.00000008352967,-126.34147783893769
0.5574746371883244,0.5794154273913514,0.3291588350810812,3.9710872511750632,25.7394917468972,21.926413264406314,-125.08807891197259,50.68000008352967,-128.18147783893767
0.5589395371883243,0.5974818273913514,0.32793813508108116,10.948186251175064,21.3654417468972,17.995123264406317,-125.08807891197259,50.68000008352967,-128.18147783893767
0.5726113371883244,0.6301966273913513,0.34600453508108114,10.711546251175063,15.754761746897204,11.399703264406314,-123.24807891197258,53.44000008352967,-128.18147783893767
0.5694375371883243,0.6289759273913513,0.33306513508108115,-0.8457066488249366,9.220401746897203,3.8958832644063146,-123.24807891197258,53.44000008352967,-128.18147783893767
0.5826211371883243,0.5203333273913513,0.31573113508108114,9.619946251175064,-8.916998253102797,-6.669001735593686,-124.16807891197259,54.36000008352967,-128.18147783893767
0.5901895371883243,0.48908332739135135,0.34087763508108115,7.993988251175065,-15.657458253102797,-7.554497735593686,-124.16807891197259,54.36000008352967,-128.18147783893767
0.5799356371883243,0.45490362739135143,0.3286705350810812,-7.494561748824937,-22.687988253102798,-6.0964827355936855,-124.16807891197259,53.44000008352967,-129.10147783893768
0.5740762371883243,0.4444056273913514,0.3208580350810812,-23.189213748824937,-34.9322682531028,-6.294955735593685,-124.16807891197259,53.44000008352967,-129.10147783893768
0.5821328371883243,0.45075322739135143,0.3787193350810812,-23.75410374882494,-37.38264825310279,-3.111749735593685,-124.16807891197259,53.44000008352967,-129.10147783893768
0.5667520371883243,0.5147181273913515,0.43828973508108116,-29.46402374882494,-38.10020825310279,-2.2262537355936853,-126.00807891197258,50.68000008352967,-128.18147783893767
0.5774942371883244,0.5467005273913514,0.4385338350810811,-40.47166374882494,-37.36737825310279,-3.432360735593685,-126.00807891197258,50.68000008352967,-128.18147783893767
0.5860391371883243,0.5191126273913513,0.41387563508108116,-27.135783748824938,-33.1002082531028,-3.3178567355936854,-126.00807891197258,50.68000008352967,-128.18147783893767
0.5982461371883243,0.5125208273913513,0.4187584350810812,-23.586163748824937,-35.3139482531028,0.06382256440631451,-129.68807891197258,47.00000008352967,-126.34147783893769
0.6460977371883243,0.6196986273913514,0.4480553350810812,-43.71593374882494,-40.05440825310279,1.0561889644063145,-129.68807891197258,47.00000008352967,-126.34147783893769
0.6373086371883243,0.7009974273913513,0.4641686350810812,-62.02127374882493,-41.703258253102796,-14.226256735593685,-135.2080789119726,45.160000083529674,-125.42147783893768
0.6397500371883243,0.5691614273913514,0.38677603508108116,-34.94494374882493,-28.4513482531028,-24.340756735593686,-135.2080789119726,45.160000083529674,-125.42147783893768
0.6639199371883243,0.5374232273913513,0.39702993508108114,-17.46402374882494,-29.863568253102798,-22.707166735593685,-135.2080789119726,45.160000083529674,-125.42147783893768
0.6912637371883243,0.6070032273913515,0.45757683508108116,-45.41059374882494,-31.6116582531028,-25.646096735593684,-141.6480789119726,42.400000083529676,-124.50147783893769
0.6548867371883244,0.6184779273913514,0.48077013508108113,-39.55563374882493,-18.886468253102798,-39.34839673559369,-141.6480789119726,42.400000083529676,-124.50147783893769
0.6614785371883243,0.5359583273913513,0.4614830350810811,9.986356251175064,-0.7795942531027977,-46.70716673559369,-141.6480789119726,42.400000083529676,-124.50147783893769
0.7000528371883243,0.5095911273913514,0.42974473508108113,20.833686251175063,2.495214746897202,-52.39419673559369,-149.00807891197258,38.72000008352967,-122.66147783893769
0.7110391371883243,0.4490443273913514,0.4119225350810812,3.4291022511750637,-2.749059753102798,-55.17281673559369,-149.00807891197258,38.72000008352967,-122.66147783893769
0.7093301371883243,0.3074427273913514,0.3811608350810812,5.146660251175064,-3.1765406531027978,-52.20335673559369,-151.76807891197257,35.04000008352968,-121.74147783893767
0.7415567371883243,0.2886439273913514,0.4316979350810812,18.51306625117506,-4.291044453102797,-39.455256735593686,-151.76807891197257,35.04000008352968,-121.74147783893767
0.7212930371883243,0.2879114273913514,0.4316979350810812,20.238266251175062,-3.2452429531027978,-30.302586735593685,-151.76807891197257,35.04000008352968,-121.74147783893767
0.6998086371883243,0.2766810273913514,0.4109459350810812,10.482536251175064,-7.565853253102798,-22.020146735593684,-152.68807891197258,30.440000083529668,-120.82147783893768
0.7010293371883243,0.2879114273913514,0.4287682350810812,-6.998377748824936,-13.794858253102797,-15.791136735593685,-152.68807891197258,30.440000083529668,-120.82147783893768
0.6746621371883244,0.30890752739135136,0.44952013508108113,-12.746473748824936,-11.291044253102799,-8.172818735593685,-152.68807891197258,30.440000083529668,-120.82147783893768
0.6441445371883243,0.3316126273913514,0.3838463350810812,1.2764312511750635,-10.726159253102798,0.14779206440631454,-153.6080789119726,27.680000083529677,-118.98147783893768
0.6373086371883243,0.3194056273913514,0.4155846350810812,10.482536251175064,-12.443716253102798,7.300463264406314,-153.6080789119726,27.680000083529677,-118.98147783893768
0.6531778371883243,0.3538294273913514,0.4407311350810812,-6.8151717488249375,-19.3063082531028,15.185963264406315,-153.6080789119726,26.760000083529675,-118.98147783893768
0.6390176371883243,0.4112025273913514,0.48199083508108115,-27.73120374882494,-22.466618253102798,16.399703264406316,-153.6080789119726,26.760000083529675,-118.98147783893768
0.6265664371883243,0.4248743273913514,0.5005455350810811,-12.471663748824936,-12.451350253102797,16.384433264406315,-153.6080789119726,26.760000083529675,-118.98147783893768
0.6570840371883243,0.41608532739135135,0.5132408350810811,0.3374992511750634,-2.817762053102798,18.285193264406313,-154.52807891197259,26.760000083529675,-118.06147783893769
0.6597695371883243,0.4133997273913514,0.49297723508108116,-7.517461748824937,-3.1078384531027976,24.766113264406314,-154.52807891197259,26.760000083529675,-118.06147783893769
0.6395059371883243,0.4568568273913514,0.49712763508108115,-19.83807374882494,-6.436082253102798,26.361533264406315,-154.52807891197259,26.760000083529675,-118.06147783893769
0.6146035371883243,0.4844447273913514,0.5486412350810812,-5.609065748824937,4.548649746897203,27.552373264406317,-153.6080789119726,28.600000083529665,-117.14147783893767
0.6087442371883243,0.49762822739135143,0.5037193350810811,10.681006251175063,15.380711746897203,26.506573264406317,-153.6080789119726,28.600000083529665,-117.14147783893767
0.6014199371883243,0.5032435273913514,0.4739342350810811,9.329866251175064,15.808191746897203,26.079093264406314,-151.76807891197257,31.36000008352967,-117.14147783893767
0.5906778371883243,0.5447474273913513,0.45318223508108113,7.604675251175063,15.235671746897202,22.506573264406317,-151.76807891197257,31.36000008352967,-117.14147783893767
0.5831094371883243,0.5488978273913514,0.44195183508108116,15.154296251175063,21.7471217468972,18.506573264406317,-151.76807891197257,31.36000008352967,-117.14147783893767
0.5413613371883244,0.6372767273913513,0.37530143508108116,19.18482625117506,17.7623917468972,12.911153264406314,-149.00807891197258,34.120000083529675,-118.06147783893769
0.5425820371883243,0.6946494273913513,0.4683190350810812,26.22299625117506,16.3272717468972,2.8958832644063146,-149.00807891197258,34.120000083529675,-118.06147783893769
0.5601602371883243,0.6004114273913514,0.4895592350810811,47.58940625117506,29.9303317468972,-3.9285437355936854,-149.00807891197258,34.120000083529675,-118.06147783893769
0.5445352371883243,0.5154505273913514,0.41582873508108115,47.749716251175066,34.273841746897205,-4.653734735593686,-143.4880789119726,35.04000008352968,-118.06147783893769
0.5276895371883243,0.4876185273913514,0.30498893508108116,21.474906251175064,21.7471217468972,-3.760604735593685,-143.4880789119726,35.04000008352968,-118.06147783893769
0.4871621371883243,0.49469862739135134,0.37725453508108114,9.039786251175064,14.342541746897203,1.0943569644063147,-137.96807891197258,35.960000083529664,-118.98147783893768
0.4874063371883243,0.5064173273913515,0.43511583508108115,15.322236251175065,17.044831746897202,4.674509264406314,-137.96807891197258,35.960000083529664,-118.98147783893768
0.4681192371883243,0.4795618273913514,0.42168813508108116,17.71917625117506,21.6860517468972,6.086723264406314,-137.96807891197258,35.960000083529664,-118.98147783893768
0.45884183718832433,0.49372202739135135,0.3843346350810812,8.322232251175064,20.5028517468972,6.529471264406314,-136.12807891197258,36.880000083529666,-118.98147783893768
0.4527383371883243,0.4944544273913514,0.37847523508108116,6.161927251175063,21.4799517468972,9.071456264406315,-136.12807891197258,36.880000083529666,-118.98147783893768
0.45517973718832433,0.5042200273913513,0.35235223508108116,7.978720251175064,23.533381746897202,14.789013264406314,-136.12807891197258,36.880000083529666,-118.98147783893768
0.4590860371883243,0.5249720273913514,0.3342858350810812,-1.5479967488249367,18.930331746897203,20.353903264406316,-134.28807891197258,38.72000008352967,-119.90147783893767
0.4654336371883243,0.5899134273913513,0.3342858350810812,-6.8991417488249365,16.846361746897202,21.521843264406314,-134.28807891197258,38.72000008352967,-119.90147783893767
0.48594143718832433,0.6721884273913514,0.33575063508108116,-0.5098287488249367,19.2509417468972,20.124893264406314,-133.3680789119726,41.480000083529674,-120.82147783893768
0.4830117371883243,0.7268764273913513,0.31792833508108115,-1.5479967488249367,19.6631517468972,11.842453264406315,-133.3680789119726,41.480000083529674,-120.82147783893768
0.5001016371883243,0.6734094273913513,0.30230333508108115,-6.754103748824937,-3.710891841102798,-0.11174993559368546,-133.3680789119726,43.32000008352968,-121.74147783893767
0.5005899371883243,0.6712124273913513,0.34698113508108114,-13.486923748824935,-11.451350253102797,-3.920910735593685,-133.3680789119726,43.32000008352968,-121.74147783893767
0.5013223371883243,0.6738974273913514,0.3713951350810812,-15.677763748824937,-13.764328253102798,-11.669006735593685,-135.2080789119726,43.32000008352968,-120.82147783893768
0.5091348371883243,0.6016322273913515,0.36651233508108116,-12.578533748824936,-16.779598253102797,-15.737706735593687,-135.2080789119726,43.32000008352968,-120.82147783893768
0.5125528371883243,0.5774622273913514,0.35601433508108116,-14.257923748824936,-23.3139482531028,-15.836936735593685,-135.2080789119726,43.32000008352968,-120.82147783893768
0.5032754371883243,0.5967493273913513,0.36211783508108114,-13.967843748824937,-27.9933382531028,-16.852206735593686,-137.96807891197258,42.400000083529676,-120.82147783893768
0.4891153371883243,0.6194544273913514,0.38604363508108114,-23.76937374882494,-28.0543982531028,-22.233886735593686,-137.96807891197258,42.400000083529676,-120.82147783893768
0.5372110371883243,0.5916224273913513,0.36797723508108116,-25.471663748824938,-25.0543982531028,-28.791136735593685,-137.96807891197258,42.400000083529676,-120.82147783893768
0.5660195371883243,0.5706263273913514,0.3838463350810812,-26.08234374882494,-28.779598253102797,-31.661366735593685,-141.6480789119726,39.64000008352967,-119.90147783893767
0.5647988371883244,0.5662318273913514,0.41314323508108114,-23.70830374882494,-26.8940982531028,-31.989616735593682,-141.6480789119726,39.64000008352967,-119.90147783893767
0.5897012371883243,0.5703822273913515,0.4578209350810811,-18.28082374882494,-23.3292082531028,-31.852206735593686,-148.0880789119726,35.960000083529664,-118.06147783893769
0.6202188371883243,0.5420618273913513,0.4385338350810811,-10.960210748824936,-14.619288253102797,-36.50869673559369,-148.0880789119726,35.960000083529664,-118.06147783893769
0.6282754371883243,0.5020228273913514,0.43462763508108115,-2.5632637488249363,-9.771960253102797,-35.66900673559369,-148.0880789119726,35.960000083529664,-118.06147783893769
0.6334024371883243,0.4595423273913514,0.4480553350810812,-1.3342562488249365,-12.611655253102798,-32.256786735593685,-152.68807891197258,32.28000008352967,-116.22147783893769
0.6307168371883243,0.41169072739135143,0.46221543508108115,-6.547996748824936,-12.466617253102797,-28.531596735593684,-152.68807891197258,32.28000008352967,-116.22147783893769
0.6280313371883243,0.3982630273913514,0.4854088350810811,-3.0747147488249364,-12.542953253102798,-23.462896735593684,-152.68807891197258,32.28000008352967,-116.22147783893769
0.6277871371883244,0.3716517273913514,0.5208092350810811,-0.7006684488249366,-9.390281253102797,-20.478156735593686,-155.44807891197257,28.600000083529665,-115.30147783893767
0.6319375371883243,0.3469935273913514,0.5278893350810812,-1.9754776488249366,-6.687991253102798,-14.936176735593685,-155.44807891197257,28.600000083529665,-115.30147783893767
0.6434121371883244,0.3318568273913514,0.5176354350810812,-2.3495237488249368,-5.3979142531027975,-6.279688735593686,-157.2880789119726,26.760000083529675,-114.38147783893768
0.6421914371883243,0.3289271273913514,0.5188561350810812,2.9710872511750632,-2.527685253102798,-0.2873224355936854,-157.2880789119726,26.760000083529675,-114.38147783893768
0.6370645371883243,0.3391810273913514,0.5147057350810812,5.780247251175064,-1.8253952531027977,2.4302352644063148,-157.2880789119726,26.760000083529675,-114.38147783893768
0.6353555371883243,0.35578252739135136,0.5239830350810811,4.245896251175063,1.4799477468972024,4.338631264406314,-157.2880789119726,25.840000083529674,-114.38147783893768
0.6380410371883243,0.35358532739135135,0.5200768350810812,4.902385251175064,5.441780746897203,10.453133264406315,-157.2880789119726,25.840000083529674,-114.38147783893768
0.6338906371883243,0.35309702739135135,0.5188561350810812,5.444370251175064,2.8387267468972026,18.315733264406315,-157.2880789119726,25.840000083529674,-114.38147783893768
0.6189981371883243,0.3877650273913514,0.5481529350810812,2.0016212511750635,6.8539917468972025,24.079093264406314,-156.3680789119726,26.760000083529675,-115.30147783893767
0.6133828371883243,0.4409876273913514,0.5210533350810811,5.222996251175063,9.869261746897203,26.414963264406314,-156.3680789119726,26.760000083529675,-115.30147783893767
0.6119180371883243,0.4888392273913514,0.5007897350810812,12.024526251175065,18.6936917468972,25.331003264406316,-153.6080789119726,29.520000083529666,-116.22147783893769
0.6133828371883243,0.4839564273913514,0.43633653508108117,16.352766251175062,15.853991746897202,24.353903264406316,-153.6080789119726,29.520000083529666,-116.22147783893769
0.6216836371883243,0.47126112739135134,0.4141197350810812,17.71154625117506,12.174601746897203,23.353903264406316,-153.6080789119726,29.520000083529666,-116.22147783893769
0.6358438371883243,0.47394662739135135,0.42266473508108116,18.62757625117506,13.006661746897203,23.491303264406316,-149.9280789119726,32.28000008352967,-118.06147783893769
0.6331582371883243,0.5374232273913513,0.47661973508108113,23.398566251175062,10.892161746897203,19.872983264406315,-149.9280789119726,32.28000008352967,-118.06147783893769
0.6236367371883244,0.5134974273913513,0.5022545350810812,31.864216251175062,17.6326217468972,20.025653264406316,-149.9280789119726,32.28000008352967,-118.06147783893769
0.6248574371883243,0.5037318273913514,0.5005455350810811,34.07032625117507,23.2051417468972,20.979853264406316,-144.40807891197258,34.120000083529675,-119.90147783893767
0.6233926371883243,0.5095911273913514,0.45684433508108113,28.23062625117506,26.6936917468972,23.529473264406317,-144.40807891197258,34.120000083529675,-119.90147783893767
0.6004434371883243,0.5537806273913515,0.4473229350810812,11.833686251175063,25.6707917468972,25.453133264406315,-138.88807891197257,36.880000083529666,-120.82147783893768
0.5938516371883243,0.5552454273913514,0.37676623508108115,9.245896251175063,26.5028517468972,27.285193264406313,-138.88807891197257,36.880000083529666,-120.82147783893768
0.5821328371883243,0.5432825273913513,0.3420983350810812,24.436736251175063,30.686051746897203,25.995123264406317,-138.88807891197257,36.880000083529666,-120.82147783893768
0.5596719371883243,0.5449915273913515,0.32793813508108116,21.60467625117506,29.418881746897203,23.002753264406316,-135.2080789119726,39.64000008352967,-121.74147783893767
0.5464883371883243,0.5537806273913515,0.31988153508108114,13.474906251175064,28.4494117468972,20.002753264406316,-135.2080789119726,39.64000008352967,-121.74147783893767
0.5423379371883243,0.5188685273913514,0.31060413508108115,15.192456251175065,28.0830017468972,16.414963264406314,-135.2080789119726,39.64000008352967,-121.74147783893767
0.5342813371883244,0.4842005273913514,0.28081903508108114,18.993986251175063,27.9226917468972,17.239393264406313,-130.6080789119726,41.480000083529674,-122.66147783893769
0.5147500371883243,0.48590952739135135,0.28057483508108116,13.711546251175063,21.9608617468972,18.033293264406314,-130.6080789119726,41.480000083529674,-122.66147783893769
0.5062051371883244,0.5049525273913513,0.30962763508108115,8.879486251175063,18.9914017468972,19.086723264406317,-127.84807891197258,44.240000083529665,-123.58147783893767
0.5074258371883243,0.5550013273913514,0.29912953508108114,14.329866251175064,19.3196417468972,16.773743264406313,-127.84807891197258,44.240000083529665,-123.58147783893767
0.5003457371883243,0.5628138273913514,0.3084068350810812,15.016886251175064,18.9684917468972,14.117253264406315,-127.84807891197258,44.240000083529665,-123.58147783893767
0.5064492371883244,0.5630579273913514,0.27837763508108115,14.902386251175065,16.5181117468972,11.643973264406315,-125.08807891197259,46.08000008352967,-123.58147783893767
0.5181680371883244,0.5806361273913514,0.25713733508108116,9.016886251175064,11.136431746897202,7.735578264406314,-125.08807891197259,46.08000008352967,-123.58147783893767
0.5262246371883244,0.5830775273913513,0.24786003508108118,-2.143416548824937,0.7929247468972025,5.048555264406314,-125.08807891197259,46.08000008352967,-123.58147783893767
0.5330606371883243,0.6265345273913514,0.25176623508108115,-2.6472337488249367,-6.336846253102798,2.0790892644063144,-124.16807891197259,47.00000008352967,-124.50147783893769
0.5252481371883243,0.6304407273913515,0.27202993508108114,-9.105248748824936,-16.069668253102797,-6.287322735593686,-124.16807891197259,47.00000008352967,-124.50147783893769
0.5223184371883244,0.6209193273913514,0.30132683508108116,-15.181583748824936,-19.3215782531028,-10.562126735593685,-125.08807891197259,47.00000008352967,-124.50147783893769
0.5472207371883243,0.6021204273913514,0.34185413508108115,-16.82280374882494,-24.4055482531028,-17.676636735593686,-128.76807891197257,45.160000083529674,-123.58147783893767
0.5618692371883244,0.5862513273913514,0.34673693508108117,-20.84570374882494,-26.2986782531028,-21.546866735593685,-128.76807891197257,45.160000083529674,-123.58147783893767
0.5787149371883243,0.5552454273913514,0.36895373508108115,-24.738833748824938,-27.9627982531028,-23.569766735593685,-128.76807891197257,45.160000083529674,-123.58147783893767
0.6006875371883243,0.5462122273913514,0.38409043508108115,-25.914413748824938,-25.3902782531028,-23.959076735593683,-132.44807891197257,42.400000083529676,-122.66147783893769
0.6065469371883243,0.5674525273913513,0.41582873508108115,-31.92967374882494,-28.222338253102798,-24.981976735593683,-132.44807891197257,42.400000083529676,-122.66147783893769
0.6168008371883243,0.5752650273913513,0.46123893508108116,-27.95257374882494,-17.848298253102797,-27.890376735593684,-132.44807891197257,42.400000083529676,-122.66147783893769
0.6517129371883243,0.5645228273913514,0.4031334350810812,-21.143413748824937,-12.031502253102797,-31.088846735593684,-137.96807891197258,39.64000008352967,-122.66147783893769
0.6531778371883243,0.5308314273913515,0.3530846350810812,-11.395323748824936,-11.283411253102798,-33.28732673559369,-137.96807891197258,39.64000008352967,-122.66147783893769
0.6526895371883243,0.5081263273913514,0.3613854350810812,-8.357156748824936,-18.779598253102797,-35.75297673559369,-143.4880789119726,37.80000008352967,-121.74147783893767
0.6573281371883243,0.5005579273913514,0.39776233508108116,-7.929675748824936,-20.8330282531028,-39.058316735593685,-143.4880789119726,37.80000008352967,-121.74147783893767
0.6639199371883243,0.45002082739135135,0.4119225350810812,-6.4563937488249366,-23.6498282531028,-40.56976673559369,-143.4880789119726,37.80000008352967,-121.74147783893767
0.6717324371883243,0.3899622273913514,0.4421959350810811,-4.173950748824937,-27.3368482531028,-37.478156735593686,-147.1680789119726,32.28000008352967,-119.90147783893767
0.6729531371883243,0.3679896273913514,0.4744225350810811,-3.0365467488249367,-26.7948582531028,-33.85220673559369,-147.1680789119726,32.28000008352967,-119.90147783893767
0.6607461371883243,0.3347864273913514,0.5205651350810812,-0.7464699488249367,-24.489518253102798,-28.043046735593684,-147.1680789119726,32.28000008352967,-119.90147783893767
0.6614785371883243,0.3157435273913514,0.5425377350810812,-4.845706748824936,-21.863568253102798,-20.806406735593686,-149.9280789119726,27.680000083529677,-117.14147783893767
0.6465860371883243,0.3054896273913514,0.5493736350810812,-4.296088748824937,-12.046770253102798,-14.294956735593685,-149.9280789119726,27.680000083529677,-117.14147783893767
0.6224160371883243,0.2962122273913514,0.5762291550810812,2.9405522511750637,-10.687991253102798,-8.760605735593685,-149.9280789119726,27.680000083529677,-117.14147783893767
0.6182656371883243,0.3035364273913514,0.6016197750810812,2.4443692511750634,-0.1383732531027979,-0.14228433559368547,-152.68807891197258,24.00000008352967,-115.30147783893767
0.6260781371883243,0.31794072739135143,0.5562096350810811,0.25353025117506345,6.090634746897203,9.392066264406315,-152.68807891197258,24.00000008352967,-115.30147783893767
0.6177774371883243,0.3626185273913514,0.5293541350810812,-0.5250959488249366,9.876891746897202,16.315733264406315,-151.76807891197257,24.920000083529672,-115.30147783893767
0.6070352371883243,0.41047002739135136,0.5105553350810812,-0.3113554488249366,11.624981746897202,16.705043264406314,-151.76807891197257,24.920000083529672,-115.30147783893767
0.5982461371883243,0.41974742739135135,0.4656334350810811,7.245896251175063,17.579181746897202,19.918783264406315,-151.76807891197257,24.920000083529672,-115.30147783893767
0.5936074371883243,0.45002082739135135,0.4749108350810812,9.635206251175063,20.7852917468972,21.224123264406316,-149.9280789119726,27.680000083529677,-118.06147783893769
0.6009317371883243,0.5113001273913513,0.4353600350810811,12.146656251175063,24.0066617468972,19.811913264406314,-149.9280789119726,27.680000083529677,-118.06147783893769
0.6070352371883243,0.5100794273913514,0.39092643508108116,19.15429625117506,21.800561746897202,15.201223264406314,-149.9280789119726,27.680000083529677,-118.06147783893769
0.6290078371883243,0.5056849273913513,0.35699083508108115,27.528336251175062,21.3654417468972,13.872983264406315,-147.1680789119726,31.36000008352967,-119.90147783893767
0.6253457371883243,0.5132532273913515,0.34966663508108115,27.71917625117506,14.052471746897202,12.079093264406316,-147.1680789119726,31.36000008352967,-119.90147783893767
0.6280313371883243,0.5191126273913513,0.35064323508108114,18.306966251175062,10.273841746897203,9.834814264406315,-142.56807891197258,32.28000008352967,-120.82147783893768
0.6272988371883244,0.5437708273913513,0.3889733350810812,17.368036251175063,3.0142987468972025,9.224128264406316,-142.56807891197258,32.28000008352967,-120.82147783893768
0.6221719371883243,0.5576868273913513,0.45708853508108116,27.66574625117506,10.846361746897204,7.185960264406314,-142.56807891197258,32.28000008352967,-120.82147783893768
0.6045938371883243,0.5540247273913514,0.40191273508108116,34.32223625117506,22.2509417468972,1.7050442644063146,-137.96807891197258,33.20000008352967,-120.82147783893768
0.5774942371883244,0.5320521273913514,0.27740103508108116,27.352766251175062,16.533381746897202,0.14015846440631455,-137.96807891197258,33.20000008352967,-120.82147783893768
0.5330606371883243,0.5159388273913514,0.3103600350810812,18.82604625117506,7.663151746897203,2.9416852644063147,-137.96807891197258,33.20000008352967,-120.82147783893768
0.5132852371883243,0.5054407273913515,0.37432483508108116,-0.5098287488249367,-0.9551662531027976,6.827181264406314,-133.3680789119726,33.20000008352967,-120.82147783893768
0.48276763718832433,0.49372202739135135,0.4251061350810812,-4.311355748824937,3.708955746897202,13.002753264406316,-133.3680789119726,33.20000008352967,-120.82147783893768
0.4681192371883243,0.4763880273913514,0.42535023508108116,0.7878812511750635,17.999031746897202,17.750843264406313,-131.52807891197259,33.20000008352967,-119.90147783893767
0.4637246371883243,0.4737025273913514,0.3599205350810812,4.558873251175063,24.0982717468972,20.972223264406313,-131.52807891197259,33.20000008352967,-119.90147783893767
0.45102933718832433,0.48078252739135136,0.28936393508108116,3.3833012511750638,26.930331746897203,25.239393264406313,-131.52807891197259,33.20000008352967,-119.90147783893767
0.4459024371883243,0.5139857273913513,0.2983971350810812,-2.8686077488249366,19.3043717468972,27.552373264406317,-130.6080789119726,35.960000083529664,-119.90147783893767
0.4490762371883243,0.5183802273913514,0.31158073508108114,0.2306292511750634,18.1898717468972,26.987483264406315,-130.6080789119726,35.960000083529664,-119.90147783893767
0.44272853718832433,0.5134974273913513,0.2979088350810812,5.238262251175064,25.3883417468972,26.727943264406314,-130.6080789119726,35.960000083529664,-119.90147783893767
0.4402871371883243,0.5269251273913513,0.27325063508108116,-2.7770047488249365,20.2509417468972,26.995123264406317,-128.76807891197257,38.72000008352967,-120.82147783893768
0.4332070371883243,0.6211634273913513,0.2896080350810812,-11.441123748824936,15.044831746897204,22.941683264406315,-128.76807891197257,38.72000008352967,-120.82147783893768
0.4434610371883243,0.6592493273913513,0.31890493508108114,-8.494561748824937,13.228041746897203,17.689773264406316,-128.76807891197257,42.400000083529676,-120.82147783893768
0.44370513718832433,0.6282435273913514,0.31011583508108115,-8.181584748824937,14.357811746897204,12.666873264406314,-128.76807891197257,42.400000083529676,-120.82147783893768
0.4566445371883243,0.6177454273913514,0.28081903508108114,-9.059447748824937,9.350181746897203,10.414963264406316,-128.76807891197257,42.400000083529676,-120.82147783893768
0.4556680371883243,0.6299525273913513,0.3264733350810812,-11.570893748824936,7.9303317468972025,8.308097264406314,-129.68807891197258,44.240000083529665,-121.74147783893767
0.4742227371883243,0.6719444273913513,0.30425653508108114,-20.761733748824938,5.541016746897203,2.0638222644063147,-129.68807891197258,44.240000083529665,-121.74147783893767
0.49790433718832433,0.6514368273913513,0.26324083508108115,-15.181583748824936,0.5486497468972025,-4.172818735593686,-129.68807891197258,44.240000083529665,-121.74147783893767
0.5181680371883244,0.6367884273913513,0.28203973508108116,-4.1892177488249365,-3.229975853102798,-7.691902735593685,-132.44807891197257,46.08000008352967,-122.66147783893769
0.5574746371883244,0.6060267273913513,0.29180533508108114,-14.311353748824937,-10.604022253102798,-11.768236735593685,-132.44807891197257,46.08000008352967,-122.66147783893769
0.6236367371883244,0.5786829273913514,0.36065293508108115,-25.601433748824938,-22.558218253102797,-16.936176735593683,-134.28807891197258,46.08000008352967,-122.66147783893769
0.6514688371883243,0.5808802273913514,0.38409043508108115,-26.028913748824937,-30.0085982531028,-19.661366735593685,-134.28807891197258,44.240000083529665,-122.66147783893769
0.6729531371883243,0.5376673273913515,0.38457873508108115,-32.36479374882494,-34.657458253102796,-24.325486735593685,-139.8080789119726,44.240000083529665,-122.66147783893769
0.6656289371883243,0.4907923273913514,0.3843346350810812,-37.067083748824935,-36.3063082531028,-26.691906735593683,-139.8080789119726,44.240000083529665,-122.66147783893769
0.6888223371883243,0.5152064273913515,0.43096543508108115,-37.380053748824935,-42.855928253102796,-28.325486735593685,-145.32807891197257,41.480000083529674,-121.74147783893767
0.6978555371883243,0.49421032739135135,0.48565293508108115,-28.77700374882494,-41.13837825310279,-31.142286735593686,-145.32807891197257,41.480000083529674,-121.74147783893767
0.7017617371883244,0.4580775273913514,0.5191002350810812,-23.761733748824938,-38.40554825310279,-31.378926735593684,-145.32807891197257,41.480000083529674,-121.74147783893767
0.6934610371883243,0.4336634273913514,0.5335045350810812,-27.036543748824936,-36.0696682531028,-31.569766735593685,-152.68807891197258,35.960000083529664,-118.06147783893769
0.6954141371883243,0.43390752739135136,0.5640221350810811,-24.59379374882494,-34.581118253102794,-29.325486735593685,-152.68807891197258,35.960000083529664,-118.06147783893769
0.6846719371883243,0.39582162739135135,0.5789146950810812,-14.089983748824936,-27.489518253102798,-26.882746735593685,-158.20807891197256,31.36000008352967,-114.38147783893768
0.6866250371883243,0.3565150273913514,0.5801354050810812,-9.799904748824936,-20.3597482531028,-22.760606735593687,-158.20807891197256,31.36000008352967,-114.38147783893768
0.6758828371883243,0.3396693273913514,0.5908775850810811,-12.952573748824936,-18.092568253102797,-18.119386735593686,-158.20807891197256,31.36000008352967,-114.38147783893768
0.6639199371883243,0.31818492739135135,0.6035729050810812,-10.967843748824937,-11.428449253102798,-11.447626735593685,-161.88807891197257,27.680000083529677,-111.62147783893766
0.6605020371883243,0.3242884273913514,0.5984459450810812,-3.5021947488249365,-5.8864642531027975,-5.752970735593686,-161.88807891197257,27.680000083529677,-111.62147783893766
0.6714883371883243,0.3079310273913514,0.6052818850810812,2.0321562511750635,0.9379637468972022,0.6745096644063145,-161.88807891197257,27.680000083529677,-111.62147783893766
0.6575723371883243,0.3050013273913514,0.5781822750810812,7.200095251175064,9.403611746897203,8.170693264406315,-163.7280789119726,26.760000083529675,-111.62147783893766
0.6504922371883243,0.3189173273913514,0.5588951350810811,7.009255251175064,10.853991746897202,14.124893264406316,-163.7280789119726,26.760000083529675,-111.62147783893766
0.6373086371883243,0.3594447273913514,0.5435143350810812,7.513072251175064,12.266211746897202,20.231763264406315,-163.7280789119726,26.760000083529675,-111.62147783893766
0.6290078371883243,0.39997202739135135,0.5247154350810812,6.2764302511750625,12.166971746897202,25.376803264406316,-160.96807891197258,29.520000083529666,-112.54147783893768
0.6221719371883243,0.4397669273913514,0.5315514350810812,5.780247251175064,15.296741746897203,27.766113264406314,-160.96807891197258,29.520000083529666,-112.54147783893768
0.6431680371883243,0.4944544273913514,0.5252037350810812,9.016886251175064,21.2127717468972,25.895883264406315,-159.12807891197258,32.28000008352967,-114.38147783893768
0.6905313371883243,0.4673548273913514,0.47369013508108115,22.75734625117506,30.647891746897198,23.934053264406316,-159.12807891197258,32.28000008352967,-114.38147783893768
0.6922403371883243,0.40265752739135136,0.3994713350810812,27.253526251175064,32.533381746897206,22.621073264406316,-159.12807891197258,32.28000008352967,-114.38147783893768
0.6558633371883243,0.43219862739135134,0.29668813508108116,3.742080251175063,15.105901746897201,22.422603264406316,-154.52807891197259,35.960000083529664,-116.22147783893769
0.6187539371883243,0.5738001273913513,0.42608263508108113,-16.212123748824936,0.5104817468972018,17.414963264406314,-154.52807891197259,35.960000083529664,-116.22147783893769
0.6131387371883243,0.5928431273913515,0.4788170350810812,-14.219753748824937,10.273841746897203,8.895884264406314,-154.52807891197259,35.960000083529664,-116.22147783893769
0.6075235371883243,0.5449915273913515,0.4431725350810811,20.91765625117506,21.0295617468972,6.033288264406314,-151.76807891197257,37.80000008352967,-115.30147783893767
0.5911660371883243,0.5359583273913513,0.4343834350810811,38.711546251175065,16.6097217468972,10.018021264406315,-151.76807891197257,37.80000008352967,-115.30147783893767
0.5821328371883243,0.5552454273913514,0.48882683508108116,20.772616251175062,4.067733746897202,12.521833264406315,-147.1680789119726,37.80000008352967,-116.22147783893769
0.5843301371883243,0.5464564273913515,0.5071373350810812,-14.425863748824936,1.1288027468972026,17.071453264406315,-147.1680789119726,37.80000008352967,-116.22147783893769
0.5523477371883243,0.5664759273913513,0.5281334350810811,-19.983113748824938,4.411245746897203,20.712683264406316,-147.1680789119726,37.80000008352967,-116.22147783893769
0.5247598371883243,0.6153040273913515,0.6096764150810812,18.15429625117506,16.8997917468972,24.628703264406315,-147.1680789119726,37.80000008352967,-113.46147783893767
0.5298867371883244,0.6467982273913513,0.6128502450810812,22.528336251175062,30.8463617468972,22.514203264406316,-147.1680789119726,37.80000008352967,-113.46147783893767
0.5379434371883244,0.5708704273913514,0.5337486350810812,19.23062625117506,45.266211746897206,17.445503264406316,-147.1680789119726,37.80000008352967,-113.46147783893767
0.5289102371883243,0.5479212273913514,0.42608263508108113,18.71917625117506,43.518111746897205,17.880613264406314,-142.56807891197258,41.480000083529674,-115.30147783893767
0.5481973371883243,0.5855189273913515,0.38872913508108115,6.375667251175063,33.0677317468972,20.254663264406314,-142.56807891197258,41.480000083529674,-115.30147783893767
0.5496621371883244,0.6030970273913514,0.37432483508108116,-7.074713748824937,20.0753717468972,17.193593264406314,-140.72807891197257,44.240000083529665,-117.14147783893767
0.5242715371883243,0.6160364273913514,0.38213733508108116,-13.769373748824936,16.2127717468972,11.544743264406316,-140.72807891197257,44.240000083529665,-117.14147783893767
0.5345254371883243,0.6099329273913514,0.3709068350810812,-13.418223748824936,14.083001746897201,6.155425264406314,-140.72807891197257,44.240000083529665,-117.14147783893767
0.5052285371883244,0.5928431273913515,0.4021568350810812,2.5894082511750636,13.380711746897203,6.5447392644063145,-141.6480789119726,47.00000008352967,-117.14147783893767
0.49741603718832433,0.5825892273913513,0.40020373508108115,4.9634542511750634,8.594451746897203,6.9035172644063145,-141.6480789119726,47.00000008352967,-117.14147783893767
0.4944863371883243,0.6338587273913514,0.3958092350810812,0.10849225117506345,2.693687746897202,3.3615322644063146,-141.6480789119726,47.00000008352967,-117.14147783893767
0.4881387371883243,0.6245814273913515,0.38579943508108117,-8.273187748824936,-0.6956242531027979,-3.5468647355936853,-141.6480789119726,47.00000008352967,-118.06147783893769
0.4964395371883243,0.6184779273913514,0.4026451350810812,-5.601431748824936,-3.3750139531027976,-9.417093735593685,-141.6480789119726,47.00000008352967,-118.06147783893769
0.5130410371883244,0.6113978273913514,0.40655143508108116,1.2687972511750636,-6.3979142531027975,-11.356026735593685,-142.56807891197258,47.00000008352967,-118.06147783893769
0.5191445371883243,0.5952845273913514,0.4119225350810812,-7.105248748824936,-15.062038253102797,-12.004876735593685,-142.56807891197258,47.00000008352967,-118.06147783893769
0.5250039371883244,0.5967493273913513,0.4353600350810811,-18.12815374882494,-22.000968253102798,-14.783506735593685,-142.56807891197258,47.00000008352967,-118.06147783893769
0.5442910371883244,0.5813685273913514,0.44195183508108116,-14.967843748824937,-22.153638253102798,-15.493426735593685,-143.4880789119726,46.08000008352967,-117.14147783893767
0.5701699371883243,0.5847864273913514,0.48077013508108113,-6.708301748824937,-19.428448253102797,-17.699536735593686,-143.4880789119726,46.08000008352967,-117.14147783893767
0.5936074371883243,0.5745325273913513,0.4666100350810811,-4.593798748824937,-17.542948253102796,-17.264426735593684,-143.4880789119726,46.08000008352967,-117.14147783893767
0.6439004371883243,0.5396204273913514,0.45342643508108116,1.1390262511750633,-15.069668253102797,-19.646096735593684,-146.24807891197258,44.240000083529665,-116.22147783893769
0.6587930371883243,0.5269251273913513,0.45293813508108116,0.8565832511750635,-16.3444782531028,-19.722436735593686,-148.0880789119726,42.400000083529676,-117.14147783893767
0.6771035371883243,0.49372202739135135,0.4526940350810812,-4.952576748824937,-22.2757782531028,-16.890376735593684,-148.0880789119726,42.400000083529676,-117.14147783893767
0.6834512371883243,0.45368292739135135,0.42632683508108116,-2.9678437488249365,-27.863568253102798,-15.607936735593684,-148.0880789119726,42.400000083529676,-117.14147783893767
0.6751504371883243,0.44294072739135143,0.4370690350810812,-5.9907447488249375,-22.1231082531028,-14.027776735593685,-149.9280789119726,41.480000083529674,-118.06147783893769
0.6746621371883244,0.4837122273913514,0.5086022350810812,-8.242653748824937,-31.7490582531028,-14.210986735593686,-149.9280789119726,41.480000083529674,-118.06147783893769
0.7027383371883243,0.47394662739135135,0.5588951350810811,-8.425859748824937,-30.0849382531028,-21.585036735593686,-151.76807891197257,36.880000083529666,-118.06147783893769
0.6727090371883243,0.4048548273913514,0.5283776350810812,-7.288454748824936,-25.5047882531028,-19.974346735593684,-151.76807891197257,36.880000083529666,-118.06147783893769
0.6775918371883243,0.39167122739135135,0.5493736350810812,-5.700668748824937,-23.5429482531028,-16.623196735593684,-151.76807891197257,36.880000083529666,-118.06147783893769
0.7176309371883243,0.35334112739135143,0.5188561350810812,-15.830443748824937,-27.8788282531028,-9.172818735593685,-155.44807891197257,34.120000083529675,-116.22147783893769
0.6348672371883243,0.44172002739135136,0.7571373550810812,-37.303723748824936,-54.0391382531028,-3.111749735593685,-155.44807891197257,34.120000083529675,-116.22147783893769
0.6866250371883243,0.37922002739135136,0.6467857950810811,-42.250283748824934,-40.504788253102795,5.689777264406314,-155.44807891197257,34.120000083529675,-116.22147783893769
0.6836953371883243,0.3543177273913514,0.6589928250810811,-27.922043748824937,-21.0315082531028,11.697413264406315,-158.20807891197256,31.36000008352967,-115.30147783893767
0.7361856371883243,0.3137904273913514,0.5772057150810812,-0.6319661488249366,1.1669707468972024,7.582906264406314,-158.20807891197256,31.36000008352967,-115.30147783893767
0.6959024371883243,0.36481572739135143,0.5886803250810811,18.910016251175062,16.4570517468972,-3.2338877355936853,-160.0480789119726,31.36000008352967,-114.38147783893768
0.7391153371883243,0.4278040273913514,0.7178307150810812,22.93291625117506,51.418881746897206,1.3615324644063145,-160.0480789119726,31.36000008352967,-114.38147783893768
0.6829629371883243,0.40876112739135134,0.6201744650810812,-1.1586837488249366,-1.1918082531027978,14.521833264406315,-160.0480789119726,31.36000008352967,-114.38147783893768
0.6761270371883243,0.4361048273913514,0.7197838350810811,2.8260492511750632,10.075371746897202,20.056183264406314,-160.0480789119726,33.20000008352967,-114.38147783893768
0.6565957371883243,0.4356165273913514,0.6133385250810811,18.42910625117506,25.067731746897202,16.781383264406315,-160.0480789119726,33.20000008352967,-114.38147783893768
0.6626992371883244,0.4480677273913514,0.5940514150810812,19.597046251175062,30.1898717468972,18.430233264406315,-160.0480789119726,33.20000008352967,-114.38147783893768
0.6648965371883243,0.4412318273913514,0.5593834350810811,17.833686251175063,30.4036117468972,20.735573264406316,-157.2880789119726,35.960000083529664,-115.30147783893767
0.6639199371883243,0.4644251273913514,0.48101433508108116,18.551236251175062,32.77002174689721,18.895883264406315,-157.2880789119726,35.960000083529664,-115.30147783893767
0.6846719371883243,0.4568568273913514,0.48565293508108115,18.67337625117506,27.846361746897202,17.941683264406315,-152.68807891197258,39.64000008352967,-118.06147783893769
0.6771035371883243,0.47077282739135135,0.5017662350810812,16.681006251175063,22.9914017468972,19.857713264406314,-152.68807891197258,39.64000008352967,-118.06147783893769
0.6800332371883243,0.49762822739135143,0.49590683508108113,22.71154625117506,31.838721746897203,18.743213264406315,-152.68807891197258,39.64000008352967,-118.06147783893769
0.6834512371883243,0.5183802273913514,0.4307213350810811,27.864216251175062,31.5181117468972,18.170693264406314,-148.0880789119726,41.480000083529674,-118.98147783893768
0.6832070371883243,0.4961634273913514,0.39458853508108116,25.993986251175063,23.312011746897202,20.040923264406317,-148.0880789119726,41.480000083529674,-118.98147783893768
0.6712442371883243,0.48859502739135136,0.3911705350810812,15.184826251175062,12.686051746897201,19.292833264406315,-148.0880789119726,41.480000083529674,-118.98147783893768
0.6600137371883243,0.48957162739135135,0.4395104350810812,9.513076251175065,9.075371746897202,16.346263264406314,-143.4880789119726,43.32000008352968,-119.90147783893767
0.6612344371883243,0.5034876273913513,0.4683190350810812,4.528339251175064,10.151701746897203,14.865353264406314,-143.4880789119726,43.32000008352968,-119.90147783893767
0.6590371371883244,0.4737025273913514,0.45025263508108115,9.627576251175064,12.014301746897203,17.811913264406314,-140.72807891197257,43.32000008352968,-119.90147783893767
0.6524453371883243,0.5088587273913514,0.40337763508108115,10.597036251175064,12.067731746897202,18.315733264406315,-140.72807891197257,43.32000008352968,-119.90147783893767
0.6136270371883243,0.5298548273913515,0.43462763508108115,6.291698251175063,8.449411746897203,14.193593264406315,-140.72807891197257,43.32000008352968,-119.90147783893767
0.6014199371883243,0.5039759273913513,0.44121933508108113,4.429102251175063,6.281474746897203,11.140153264406315,-139.8080789119726,44.240000083529665,-118.98147783893768
0.5699258371883243,0.48273572739135134,0.4500084350810811,12.215366251175064,9.128801746897203,14.819543264406315,-139.8080789119726,44.240000083529665,-118.98147783893768
0.5709024371883243,0.5198450273913513,0.46075063508108116,13.001626251175065,8.021931746897202,15.338633264406315,-139.8080789119726,44.240000083529665,-118.98147783893768
0.5591836371883243,0.5281458273913513,0.45660023508108116,6.734446251175063,5.892161746897203,9.155425264406315,-137.96807891197258,45.160000083529674,-119.90147783893767
0.5516153371883243,0.5552454273913514,0.42437363508108117,5.917652251175063,12.426511746897203,10.254662264406315,-137.96807891197258,45.160000083529674,-119.90147783893767
0.5428262371883243,0.5625697273913515,0.4282799350810812,11.047426251175064,12.754761746897204,9.491304264406315,-137.96807891197258,45.160000083529674,-119.90147783893767
0.5433145371883243,0.5706263273913514,0.40655143508108116,12.268796251175063,9.869261746897203,8.147792264406315,-137.96807891197258,45.160000083529674,-119.90147783893767
0.5342813371883244,0.5862513273913514,0.4160729350810812,13.490176251175065,6.892161746897203,5.674509264406314,-137.96807891197258,45.160000083529674,-119.90147783893767
0.5418496371883244,0.5955286273913514,0.4119225350810812,5.245896251175063,3.846359746897202,1.4073342644063147,-136.12807891197258,47.00000008352967,-119.90147783893767
0.5418496371883244,0.6182337273913514,0.4275475350810811,-3.196851748824937,-4.542952953102798,-3.7071697355936855,-136.12807891197258,47.00000008352967,-119.90147783893767
0.5303750371883243,0.6345911273913514,0.45562363508108117,-6.349523748824936,-6.535319253102798,-7.134650735593686,-136.12807891197258,47.00000008352967,-119.90147783893767
0.5384317371883244,0.6365443273913514,0.4746666350810812,-9.906775748824936,-8.367380253102798,-9.989616735593685,-136.12807891197258,46.08000008352967,-119.90147783893767
0.5447793371883244,0.6426478273913514,0.5020104350810812,-10.380058748824936,-7.084937253102797,-12.653736735593684,-136.12807891197258,46.08000008352967,-119.90147783893767
0.5630899371883243,0.6460657273913515,0.5132408350810811,-11.128148748824936,-8.672724253102798,-18.936176735593683,-137.96807891197258,46.08000008352967,-118.98147783893768
0.5853067371883243,0.6355677273913514,0.5171471350810811,-5.204485748824936,-0.17654025310279797,-23.516326735593683,-137.96807891197258,46.08000008352967,-118.98147783893768
0.5987344371883243,0.6133509273913513,0.4739342350810811,4.551240251175063,4.434145746897203,-27.417096735593685,-137.96807891197258,46.08000008352967,-118.98147783893768
0.6131387371883243,0.6096888273913514,0.4480553350810812,1.6046752511750633,0.4112457468972024,-30.898006735593686,-139.8080789119726,46.08000008352967,-118.98147783893768
0.6314492371883244,0.5982142273913513,0.44048693508108117,-2.4792947488249366,-3.672723903102798,-35.24915673559369,-139.8080789119726,46.08000008352967,-118.98147783893768
0.6441445371883243,0.5589075273913513,0.44561393508108116,2.1008582511750635,-2.8559299531027977,-37.61556673559369,-139.8080789119726,46.08000008352967,-118.98147783893768
0.6714883371883243,0.4798060273913514,0.4504967350810811,-6.395324748824937,-13.375014253102798,-41.058316735593685,-142.56807891197258,45.160000083529674,-119.90147783893767
0.6646524371883243,0.4580775273913514,0.4719811350810812,-9.486927748824936,-17.497148253102797,-37.65373673559369,-145.32807891197257,42.400000083529676,-119.90147783893767
0.6683145371883243,0.45514782739135135,0.49639513508108113,-16.715933748824938,-21.3750082531028,-34.97434673559369,-145.32807891197257,42.400000083529676,-119.90147783893767
0.6705117371883244,0.4346400273913514,0.5127526350810812,-16.112883748824938,-17.825398253102797,-31.981976735593687,-145.32807891197257,42.400000083529676,-119.90147783893767
0.6534219371883243,0.42707162739135135,0.5266686350810812,-10.838072748824937,-14.062038253102797,-28.997246735593684,-150.84807891197258,39.64000008352967,-118.98147783893768
0.6651406371883243,0.41925912739135135,0.5557213350810811,-4.540362748824936,-10.542952253102797,-27.920906735593686,-150.84807891197258,39.64000008352967,-118.98147783893768
0.6651406371883243,0.37262822739135143,0.5276451350810811,-4.601431748824936,-8.367380253102798,-24.920906735593686,-153.6080789119726,37.80000008352967,-118.06147783893769
0.6539102371883243,0.36921032739135135,0.5313072350810811,-7.357156748824936,-6.680357253102798,-19.653736735593686,-153.6080789119726,37.80000008352967,-118.06147783893769
0.6517129371883243,0.3902064273913514,0.5591393350810812,-7.402958748824936,-7.008602253102797,-15.653736735593686,-153.6080789119726,37.80000008352967,-118.06147783893769
0.6573281371883243,0.37336072739135134,0.5549889350810812,-0.4563936488249366,-3.8711971531027976,-11.546866735593685,-156.3680789119726,35.04000008352968,-117.14147783893767
0.6468301371883243,0.3606654273913514,0.5305748350810812,1.0550562511750634,-6.146006253102797,-4.272054735593686,-156.3680789119726,35.04000008352968,-117.14147783893767
0.6487832371883243,0.37287242739135135,0.5474205350810811,0.5817742511750634,-4.596387953102798,1.4760362644063147,-156.3680789119726,35.04000008352968,-117.14147783893767
0.6470742371883244,0.38703252739135136,0.5601158350810812,0.6428432511750635,-3.069670453102798,4.727945264406314,-157.2880789119726,35.04000008352968,-116.22147783893769
0.6387735371883243,0.38898572739135134,0.5886803250810811,2.3145982511750636,-1.497151253102798,8.880616264406315,-157.2880789119726,35.04000008352968,-116.22147783893769
0.6375528371883243,0.4085169273913514,0.5698815350810812,7.352767251175063,2.8997957468972024,13.613443264406316,-156.3680789119726,34.120000083529675,-116.22147783893769
0.6263223371883243,0.4341517273913514,0.5601158350810812,5.848950251175063,5.296741746897203,17.071453264406315,-156.3680789119726,34.120000083529675,-116.22147783893769
0.6287637371883243,0.4512415273913514,0.5505943350810811,7.742080251175064,8.357811746897204,19.468403264406316,-156.3680789119726,34.120000083529675,-116.22147783893769
0.6324258371883243,0.46564582739135135,0.5081139350810812,9.787876251175064,6.876891746897202,21.643973264406316,-154.52807891197259,35.04000008352968,-117.14147783893767
0.6487832371883243,0.4492884273913514,0.48833853508108116,12.177196251175063,7.594451746897203,20.430233264406315,-154.52807891197259,35.04000008352968,-117.14147783893767
0.6419473371883243,0.4737025273913514,0.48980333508108115,18.55887625117506,9.388341746897202,18.628703264406315,-154.52807891197259,35.04000008352968,-117.14147783893767
0.6277871371883244,0.4912806273913514,0.5215416350810812,29.26879625117506,18.6249917468972,16.941683264406315,-151.76807891197257,36.880000083529666,-118.06147783893769
0.6219278371883243,0.5054407273913515,0.46075063508108116,31.19246625117506,20.067731746897202,14.789013264406314,-151.76807891197257,36.880000083529666,-118.06147783893769
0.6121621371883244,0.4995814273913514,0.44781113508108117,26.284066251175062,21.647881746897202,13.163063264406315,-146.24807891197258,37.80000008352967,-118.98147783893768
0.6158242371883244,0.5427943273913514,0.4319420350810812,23.100856251175063,16.7394917468972,11.621073264406315,-146.24807891197258,37.80000008352967,-118.98147783893768
0.6160684371883243,0.5320521273913514,0.42974473508108113,24.09322625117506,15.098271746897202,10.300464264406315,-146.24807891197258,37.80000008352967,-118.98147783893768
0.5980020371883243,0.5244837273913514,0.4177818350810812,19.42146625117506,18.3272717468972,10.621073264406315,-141.6480789119726,38.72000008352967,-118.98147783893768
0.5755410371883244,0.5452357273913513,0.3879967350810812,9.421466251175064,8.731851746897203,12.247033264406316,-141.6480789119726,38.72000008352967,-118.98147783893768
0.5599160371883244,0.5850306273913515,0.41119013508108115,4.016888251175063,2.937963746897202,13.040923264406315,-141.6480789119726,38.72000008352967,-118.98147783893768
0.5525918371883244,0.5867396273913514,0.4177818350810812,2.4901712511750635,2.640253746897202,12.338633264406315,-138.88807891197257,38.72000008352967,-118.98147783893768
0.5252481371883243,0.5635462273913514,0.4160729350810812,4.940552251175063,-0.9933342531027978,11.842453264406315,-138.88807891197257,38.72000008352967,-118.98147783893768
0.5147500371883243,0.6045618273913513,0.4463463350810811,5.192461251175063,-3.8024948931027978,9.972220264406316,-137.96807891197258,38.72000008352967,-118.06147783893769
0.5279336371883243,0.5545130273913514,0.43999863508108117,-0.40295854882493665,-1.5429532531027976,12.056193264406316,-137.96807891197258,38.72000008352967,-118.06147783893769
0.5179238371883244,0.5562220273913514,0.3911705350810812,-3.196851748824937,-3.252876553102798,12.422603264406314,-137.96807891197258,38.72000008352967,-118.06147783893769
0.5027871371883244,0.5611048273913515,0.39971543508108115,-7.868607748824937,-7.6421892531027975,13.689773264406314,-137.0480789119726,37.80000008352967,-118.06147783893769
0.4803262371883243,0.5564661273913514,0.4536705350810811,-14.952573748824936,-6.291044253102798,10.094357264406316,-137.0480789119726,37.80000008352967,-118.06147783893769
0.4764199371883243,0.5447474273913513,0.43755723508108113,-11.296083748824936,0.02193274689720237,16.834813264406314,-137.0480789119726,37.80000008352967,-118.06147783893769
0.4712930371883243,0.5606165273913515,0.4316979350810812,-6.334255748824937,-0.5582202531027978,16.888253264406316,-137.96807891197258,37.80000008352967,-116.22147783893769
0.4607949371883243,0.5818568273913514,0.46123893508108116,-3.7846377488249368,-0.6345562531027977,14.537103264406316,-137.96807891197258,37.80000008352967,-116.22147783893769
0.4690957371883243,0.5764857273913513,0.4541588350810811,-3.196851748824937,5.739489746897203,10.460773264406315,-137.0480789119726,38.72000008352967,-117.14147783893767
0.4751992371883243,0.6033411273913514,0.4468346350810811,-4.395324748824937,7.388341746897202,7.621074264406314,-137.0480789119726,38.72000008352967,-117.14147783893767
0.47861723718832433,0.6040736273913514,0.40606313508108116,-2.906775748824937,8.853991746897202,4.491303264406314,-137.0480789119726,38.72000008352967,-117.14147783893767
0.4732461371883243,0.5928431273913515,0.41631703508108114,2.1542932511750634,6.166970746897203,2.6897772644063145,-137.96807891197258,39.64000008352967,-117.14147783893767
0.4803262371883243,0.5654993273913513,0.44610223508108116,-6.540363748824937,0.08300174689720219,1.5065702644063146,-137.96807891197258,39.64000008352967,-117.14147783893767
0.4910684371883243,0.6057825273913513,0.45391473508108116,-15.998373748824935,2.6784217468972025,-0.38655903559368543,-137.96807891197258,39.64000008352967,-117.14147783893767
0.5101113371883244,0.6187220273913514,0.4485436350810812,-15.387693748824937,5.434145746897203,-2.646100735593685,-137.96807891197258,40.56000008352967,-117.14147783893767
0.5325723371883243,0.6106654273913514,0.42998893508108116,-4.265553748824937,7.105901746897203,-4.172818735593686,-137.96807891197258,40.56000008352967,-117.14147783893767
0.5567422371883244,0.5999232273913513,0.4421959350810811,-6.822805748824937,5.159337746897203,-7.172818735593686,-139.8080789119726,42.400000083529676,-118.06147783893769
0.5826211371883243,0.5830775273913513,0.42608263508108113,-13.517463748824936,4.403612746897203,-12.714806735593685,-139.8080789119726,42.400000083529676,-118.06147783893769
0.6036172371883243,0.5574427273913514,0.44561393508108116,-19.32662374882494,-1.8024952531027978,-11.676636735593686,-139.8080789119726,42.400000083529676,-118.06147783893769
0.6373086371883243,0.5730677273913514,0.4829674350810812,-20.06708374882494,0.5639177468972023,-11.783506735593685,-141.6480789119726,43.32000008352968,-118.98147783893768
0.6546426371883243,0.5752650273913513,0.4863854350810812,-23.158683748824938,1.846359746897202,-13.371286735593685,-141.6480789119726,43.32000008352968,-118.98147783893768
0.6854043371883243,0.5354700273913513,0.48565293508108115,-21.79990374882494,-4.619288753102798,-17.241516735593684,-147.1680789119726,44.240000083529665,-118.98147783893768
0.6802774371883243,0.5330286273913514,0.49663933508108116,-19.79227374882494,-5.428449253102798,-19.081216735593685,-147.1680789119726,44.240000083529665,-118.98147783893768
0.6783242371883244,0.5147181273913515,0.5044518350810812,-12.250283748824936,-10.115472253102798,-21.959076735593683,-150.84807891197258,44.240000083529665,-118.98147783893768
0.6724649371883243,0.5059290273913515,0.5171471350810811,-10.570896748824936,-10.367380253102798,-25.615566735593685,-150.84807891197258,44.240000083529665,-118.98147783893768
0.6775918371883243,0.5051966273913513,0.5388756350810812,-5.708301748824937,-11.245243253102798,-27.104116735593685,-150.84807891197258,44.240000083529665,-118.98147783893768
0.6878457371883243,0.4761439273913514,0.5584068350810811,0.009255251175063428,-10.375014253102798,-30.417096735593685,-155.44807891197257,42.400000083529676,-118.98147783893768
0.6834512371883243,0.4490443273913514,0.5220299350810812,3.0016222511750636,-9.588754253102797,-32.14991673559369,-155.44807891197257,42.400000083529676,-118.98147783893768
0.6822305371883243,0.4097376273913514,0.5635338350810811,5.818415251175063,-14.207078253102797,-29.356026735593684,-157.2880789119726,39.64000008352967,-118.06147783893769
0.6795449371883243,0.37238412739135135,0.5784264150810812,10.039786251175064,-12.909365253102797,-24.294956735593686,-157.2880789119726,39.64000008352967,-118.06147783893769
0.6844278371883243,0.35578252739135136,0.5859947750810812,11.551236251175064,-15.428448253102797,-20.745336735593686,-157.2880789119726,39.64000008352967,-118.06147783893769
0.6775918371883243,0.3111048273913514,0.6074791550810812,5.703912251175064,-14.039138253102797,-13.669006735593685,-159.12807891197258,35.960000083529664,-116.22147783893769
0.6753945371883243,0.30719862739135134,0.6182213350810811,-2.5479967488249367,-13.329213253102797,-5.401826735593686,-159.12807891197258,35.960000083529664,-116.22147783893769
0.6751504371883243,0.2927943273913514,0.6272545450810811,0.27643025117506337,-7.214708253102797,4.376799264406315,-159.12807891197258,35.960000083529664,-116.22147783893769
0.6717324371883243,0.2879114273913514,0.6401939950810812,0.49780525117506347,-3.3063116531027976,13.453133264406315,-159.12807891197258,34.120000083529675,-115.30147783893767
0.6656289371883243,0.3028040273913514,0.6272545450810811,-0.7922715488249366,1.090634746897202,20.735573264406316,-159.12807891197258,34.120000083529675,-115.30147783893767
0.6814981371883243,0.3311243273913514,0.6384850050810812,-3.341889748824937,6.334911746897202,29.766113264406314,-158.20807891197256,35.960000083529664,-116.22147783893769
0.6844278371883243,0.36359502739135136,0.6045494650810812,-10.387691748824937,10.304371746897203,35.80428326440631,-158.20807891197256,35.960000083529664,-116.22147783893769
0.6795449371883243,0.41925912739135135,0.5618248350810812,-11.044179748824936,11.922691746897202,38.19359326440631,-158.20807891197256,35.960000083529664,-116.22147783893769
0.6663613371883244,0.48175912739135135,0.5637779350810812,-5.181584748824937,13.403611746897203,37.45313326440631,-156.3680789119726,38.72000008352967,-116.22147783893769
0.6746621371883244,0.5010462273913514,0.5706139350810812,7.558873251175063,19.6707917468972,35.987483264406315,-156.3680789119726,38.72000008352967,-116.22147783893769
0.6771035371883243,0.5369349273913513,0.5552330350810811,10.047426251175064,20.487581746897202,32.544743264406314,-156.3680789119726,38.72000008352967,-116.22147783893769
0.6607461371883243,0.5320521273913514,0.5193443350810811,1.7802472511750635,24.0524717468972,29.827183264406315,-152.68807891197258,41.480000083529674,-118.06147783893769
0.6651406371883243,0.5264368273913513,0.49468613508108117,2.0397892511750633,21.579181746897202,25.995123264406317,-152.68807891197258,41.480000083529674,-118.06147783893769
0.6734414371883243,0.5130091273913513,0.5076256350810812,17.00162625117506,21.5181117468972,26.140163264406315,-149.9280789119726,45.160000083529674,-118.06147783893769
0.6653848371883243,0.5806361273913514,0.49566273508108116,23.82604625117506,17.823461746897202,26.079093264406314,-149.9280789119726,45.160000083529674,-118.06147783893769
0.6568399371883243,0.5630579273913514,0.5256920350810812,24.795516251175062,22.5639217468972,19.735573264406316,-149.9280789119726,45.160000083529674,-118.06147783893769
0.6490274371883243,0.5139857273913513,0.5186119350810812,29.963456251175064,29.937961746897198,15.315733264406315,-144.40807891197258,46.08000008352967,-118.98147783893768
0.6270547371883243,0.47394662739135135,0.4661217350810811,30.23062625117506,25.9914017468972,18.437863264406314,-144.40807891197258,46.08000008352967,-118.98147783893768
0.6216836371883243,0.5325404273913514,0.47002793508108115,15.207726251175062,17.602081746897202,21.269933264406315,-144.40807891197258,46.08000008352967,-118.98147783893768
0.5992227371883243,0.5899134273913513,0.5064049350810812,-2.0441799488249366,7.518111746897203,18.995123264406317,-139.8080789119726,47.92000008352967,-119.90147783893767
0.5970254371883243,0.5701380273913514,0.4871178350810812,-5.105248748824937,8.800561746897202,16.911153264406316,-139.8080789119726,47.92000008352967,-119.90147783893767
0.5814004371883243,0.5733118273913513,0.5015221350810811,2.047423251175063,12.663151746897201,18.643973264406316,-138.88807891197257,47.92000008352967,-118.98147783893768
0.5921426371883243,0.6011439273913515,0.49639513508108113,10.398566251175064,13.701321746897202,20.506573264406317,-138.88807891197257,47.92000008352967,-118.98147783893768
0.5655313371883244,0.5886927273913514,0.46392443508108117,8.360400251175063,8.029561746897203,15.979853264406316,-138.88807891197257,47.92000008352967,-118.98147783893768
0.5584512371883243,0.6201868273913513,0.46953973508108116,7.673377251175063,1.9455967468972024,10.605803264406315,-137.96807891197258,48.840000083529674,-119.90147783893767
0.5711465371883243,0.5889368273913513,0.48003773508108116,5.139026251175064,3.6097187468972023,7.651609264406314,-137.96807891197258,48.840000083529674,-119.90147783893767
0.5718789371883244,0.5801478273913514,0.4463463350810811,0.9863542511750634,5.670786746897203,6.185960264406314,-137.96807891197258,48.840000083529674,-119.90147783893767
0.5682168371883244,0.5847864273913514,0.45318223508108113,-1.9449433488249366,4.7623907468972035,2.6592422644063145,-137.96807891197258,48.840000083529674,-119.90147783893767
0.5855508371883243,0.5777064273913515,0.44170763508108113,-2.5708977488249367,0.9532297468972026,-2.3102227355936855,-137.96807891197258,48.840000083529674,-119.90147783893767
0.5923867371883244,0.5418177273913514,0.45855333508108115,2.047423251175063,1.9074287468972027,-6.4552607355936855,-138.88807891197257,49.76000008352967,-118.98147783893768
0.5984903371883243,0.5281458273913513,0.4319420350810812,8.100858251175064,-4.023868953102798,-8.920910735593685,-138.88807891197257,49.76000008352967,-118.98147783893768
0.5904336371883243,0.5213099273913513,0.46392443508108117,-1.1510501608249366,-8.978067253102799,-9.745336735593686,-138.88807891197257,49.76000008352967,-118.98147783893768
0.5784707371883243,0.5174036273913514,0.48809433508108113,-13.051813748824936,-10.558220253102798,-10.669006735593685,-137.96807891197258,49.76000008352967,-119.90147783893767
0.5835977371883243,0.5217982273913513,0.4876061350810812,-10.021279748824936,-6.672724253102798,-9.218619735593684,-137.96807891197258,49.76000008352967,-119.90147783893767
0.5897012371883243,0.5520716273913513,0.49248893508108116,-4.799904748824936,-8.184174253102798,-11.493426735593685,-137.96807891197258,49.76000008352967,-119.90147783893767
0.5945840371883243,0.5613489273913514,0.47295763508108113,-4.334256748824936,-5.458983253102797,-12.600296735593686,-139.8080789119726,47.92000008352967,-118.98147783893768
0.6099649371883243,0.5816126273913513,0.4522057350810812,-10.761736748824935,-8.275777253102797,-16.165186735593686,-139.8080789119726,47.92000008352967,-118.98147783893768
0.6280313371883243,0.5716029273913514,0.4302330350810811,-5.395324748824937,-4.833029253102798,-19.073586735593686,-141.6480789119726,47.92000008352967,-119.90147783893767
0.6561074371883243,0.5611048273913515,0.3713951350810812,-3.0136457488249366,-14.100208253102798,-18.905646735593685,-141.6480789119726,47.92000008352967,-119.90147783893767
0.6658731371883243,0.5711146273913514,0.32989123508108115,-11.647233748824936,-31.6116582531028,-20.943816735593686,-141.6480789119726,47.92000008352967,-119.90147783893767
0.6568399371883243,0.6355677273913514,0.37627793508108115,-34.02127374882493,-53.40554825310279,-27.829306735593686,-143.4880789119726,46.08000008352967,-119.90147783893767
0.7010293371883243,0.5584193273913514,0.5452233350810811,-22.937313748824938,-49.596388253102795,-46.50106673559369,-149.9280789119726,42.400000083529676,-117.14147783893767
0.7064004371883243,0.49421032739135135,0.5776939950810811,-19.143413748824937,-44.8940982531028,-47.92090673559369,-149.9280789119726,42.400000083529676,-117.14147783893767
0.7098184371883243,0.4917689273913514,0.6143150850810811,-19.15105374882494,-41.2147082531028,-46.340756735593686,-149.9280789119726,42.400000083529676,-117.14147783893767
0.6895547371883243,0.4439173273913514,0.6389732950810811,-21.914413748824938,-32.596388253102795,-48.340756735593686,-155.44807891197257,35.960000083529664,-112.54147783893768
0.6978555371883243,0.4011927273913514,0.6255455550810811,-10.700668748824937,-18.0620382531028,-44.22625673559369,-155.44807891197257,35.960000083529664,-112.54147783893768
0.6883340371883243,0.3501673273913514,0.6162682150810812,-9.196851748824937,-13.810128253102798,-37.41709673559369,-161.88807891197257,31.36000008352967,-109.78147783893769
0.6822305371883243,0.31720832739135135,0.5874596150810811,-10.525095748824937,-16.5658582531028,-28.233886735593686,-161.88807891197257,31.36000008352967,-109.78147783893769
0.6690469371883243,0.3096400273913514,0.6123619650810812,-5.242653748824937,-13.771958253102797,-16.516326735593683,-161.88807891197257,31.36000008352967,-109.78147783893769
0.6580606371883243,0.3347864273913514,0.6367760250810811,-5.044179748824936,-8.313945253102798,-9.638466735593685,-164.6480789119726,28.600000083529665,-107.94147783893767
0.6373086371883243,0.3423548273913514,0.6394615750810811,-7.975477748824936,-2.428449253102798,-1.3941927355936854,-164.6480789119726,28.600000083529665,-107.94147783893767
0.6172891371883243,0.3709193273913514,0.6270104050810812,-7.219752748824936,3.9455967468972024,4.376799264406315,-164.6480789119726,28.600000083529665,-107.94147783893767
0.6177774371883243,0.3736048273913514,0.6348229050810812,5.047423251175063,11.800561746897202,10.567643264406316,-166.4880789119726,28.600000083529665,-107.02147783893768
0.6077676371883243,0.3772669273913514,0.5781822750810812,16.910016251175062,20.846361746897202,17.048553264406316,-166.4880789119726,28.600000083529665,-107.02147783893768
0.6182656371883243,0.40802862739135143,0.5596276350810812,18.15429625117506,21.0601017468972,21.216493264406314,-163.7280789119726,30.440000083529668,-109.78147783893769
0.6172891371883243,0.42658332739135135,0.5525475350810811,14.688646251175063,20.4799517468972,24.262293264406313,-163.7280789119726,30.440000083529668,-109.78147783893769
0.6133828371883243,0.4519739273913514,0.5374108350810811,13.993986251175064,21.4341517468972,28.789013264406314,-163.7280789119726,30.440000083529668,-109.78147783893769
0.6272988371883244,0.4788294273913514,0.5444908350810811,9.948186251175064,19.3807117468972,27.361533264406315,-160.0480789119726,33.20000008352967,-112.54147783893768
0.6282754371883243,0.5056849273913513,0.5252037350810812,14.497806251175064,24.7165917468972,27.491303264406316,-160.0480789119726,33.20000008352967,-112.54147783893768
0.6263223371883243,0.5110560273913514,0.5288658350810811,18.574136251175062,21.7013217468972,24.758483264406316,-160.0480789119726,33.20000008352967,-112.54147783893768
0.6331582371883243,0.4998255273913514,0.5210533350810811,20.18482625117506,25.2356717468972,25.651613264406315,-156.3680789119726,36.880000083529666,-114.38147783893768
0.6539102371883243,0.5015345273913514,0.4968834350810811,18.24589625117506,23.441781746897203,25.750843264406313,-156.3680789119726,36.880000083529666,-114.38147783893768
0.6522012371883243,0.5076380273913514,0.4968834350810811,18.60467625117506,20.1211717468972,24.185963264406315,-156.3680789119726,36.880000083529666,-114.38147783893768
0.6590371371883244,0.5186243273913513,0.4983483350810812,18.910016251175062,19.6402517468972,23.002753264406316,-151.76807891197257,38.72000008352967,-117.14147783893767
0.6529336371883243,0.5117884273913513,0.5134850350810811,19.551236251175062,18.4265117468972,21.865353264406316,-151.76807891197257,38.72000008352967,-117.14147783893767
0.6487832371883243,0.49054822739135134,0.5361901350810812,18.17719625117506,19.5410117468972,22.743213264406315,-147.1680789119726,40.56000008352967,-117.14147783893767
0.6365762371883243,0.5222864273913514,0.5386315350810812,10.597036251175064,16.1593317468972,23.498933264406315,-147.1680789119726,40.56000008352967,-117.14147783893767
0.6270547371883243,0.5662318273913514,0.5449791350810812,9.551236251175064,18.6707917468972,23.285193264406313,-147.1680789119726,40.56000008352967,-117.14147783893767
0.6202188371883243,0.5891810273913514,0.5230065350810812,14.123756251175063,22.441781746897203,20.063823264406317,-144.40807891197258,42.400000083529676,-118.06147783893769
0.6253457371883243,0.5596400273913513,0.4746666350810812,17.46726625117506,27.3425417468972,16.949323264406313,-144.40807891197258,42.400000083529676,-118.06147783893769
0.6204629371883243,0.5376673273913515,0.4251061350810812,15.299336251175065,22.4799517468972,16.399703264406316,-144.40807891197258,42.400000083529676,-118.06147783893769
0.6043496371883244,0.5569544273913514,0.4155846350810812,9.276426251175064,17.5868217468972,12.705043264406315,-140.72807891197257,45.160000083529674,-118.98147783893768
0.5897012371883243,0.5293665273913515,0.37481313508108116,6.673377251175063,18.464681746897202,8.934052264406315,-140.72807891197257,45.160000083529674,-118.98147783893768
0.5850625371883243,0.5374232273913513,0.3765221350810812,6.558873251175063,11.533381746897202,8.804280264406316,-139.8080789119726,46.08000008352967,-119.90147783893767
0.5789590371883243,0.5171595273913514,0.39410023508108116,7.085591251175064,9.548651746897203,6.872983264406314,-139.8080789119726,46.08000008352967,-119.90147783893767
0.5833535371883243,0.4981165273913514,0.40386583508108115,13.352766251175064,4.1822377468972025,8.987486264406314,-139.8080789119726,46.08000008352967,-119.90147783893767
0.5770059371883244,0.5181361273913514,0.4390221350810811,12.306966251175064,2.670787746897202,6.040921264406315,-137.96807891197258,46.08000008352967,-118.98147783893768
0.5682168371883244,0.5191126273913513,0.4448815350810812,10.810786251175063,4.579184746897203,5.101990264406314,-137.96807891197258,46.08000008352967,-118.98147783893768
0.5543008371883243,0.5325404273913514,0.44952013508108113,9.971086251175064,4.770024746897203,4.789013264406314,-137.96807891197258,46.08000008352967,-118.98147783893768
0.5567422371883244,0.5408411273913514,0.46026233508108116,8.734445251175064,0.06773374689720235,2.7050442644063146,-137.0480789119726,46.08000008352967,-119.90147783893767
0.5501504371883243,0.5567103273913514,0.45806513508108115,4.757346251175063,-0.130739253102798,0.5905401644063145,-137.0480789119726,46.08000008352967,-119.90147783893767
0.5567422371883244,0.5821009273913513,0.4666100350810811,1.1237592511750636,-2.0620372531027975,-1.5010627355936856,-136.12807891197258,45.160000083529674,-119.90147783893767
0.5640664371883244,0.5821009273913513,0.4697838350810811,0.05505625117506341,-3.7643269531027976,-3.3483907355936853,-136.12807891197258,45.160000083529674,-119.90147783893767
0.5516153371883243,0.5818568273913514,0.47906113508108117,-1.7846379488249366,-6.054403253102798,-5.8522077355936855,-136.12807891197258,45.160000083529674,-119.90147783893767
0.5547891371883243,0.5828333273913513,0.4761315350810812,-7.097614748824936,-6.489518253102798,-7.371291735593686,-136.12807891197258,46.08000008352967,-119.90147783893767
0.5604043371883244,0.5977259273913513,0.4793053350810812,-11.456393748824937,-5.069670253102798,-9.279689735593685,-136.12807891197258,46.08000008352967,-119.90147783893767
0.5608926371883244,0.6192103273913514,0.4734459350810811,-10.899141748824936,-6.878831253102797,-12.890376735593685,-136.12807891197258,46.08000008352967,-119.90147783893767
0.5779824371883243,0.6162806273913515,0.49248893508108116,-6.838072748824937,-3.825395653102798,-19.585036735593686,-137.96807891197258,45.160000083529674,-119.90147783893767
0.5940957371883243,0.5818568273913514,0.4431725350810811,-3.7922717488249367,1.8768947468972024,-22.775876735593684,-137.96807891197258,45.160000083529674,-119.90147783893767
0.6063028371883243,0.5596400273913513,0.4316979350810812,-9.311355748824937,-2.756693353102798,-23.012516735593685,-140.72807891197257,46.08000008352967,-119.90147783893767
0.6194863371883244,0.5838099273913513,0.40435413508108115,-18.31135374882494,-11.558220253102798,-24.195716735593685,-140.72807891197257,46.08000008352967,-119.90147783893767
0.6282754371883243,0.5791712273913514,0.42535023508108116,-14.662503748824935,-12.985701253102798,-26.798776735593684,-140.72807891197257,46.08000008352967,-119.90147783893767
0.6407266371883243,0.5481654273913514,0.4522057350810812,-12.036543748824936,-16.5658582531028,-34.84457673559369,-143.4880789119726,45.160000083529674,-119.90147783893767
0.6263223371883243,0.5952845273913514,0.4526940350810812,-8.067080748824937,-20.023868253102798,-38.14991673559369,-148.0880789119726,43.32000008352968,-118.98147783893768
0.6243692371883243,0.6165247273913514,0.5125084350810811,-3.563263748824937,-19.3444782531028,-48.65373673559369,-148.0880789119726,43.32000008352968,-118.98147783893768
0.6409707371883243,0.5625697273913515,0.5383873350810812,5.146660251175064,-15.474248253102797,-53.12701673559369,-148.0880789119726,43.32000008352968,-118.98147783893768
0.6507363371883244,0.4732142273913514,0.5352135350810812,7.1237592511750645,-15.939898253102797,-50.363656735593686,-152.68807891197258,38.72000008352967,-117.14147783893767
0.6360879371883243,0.41095832739135135,0.5195885350810812,-0.8915081488249366,-22.268148253102797,-44.50106673559369,-152.68807891197258,38.72000008352967,-117.14147783893767
0.6392617371883244,0.4177943273913514,0.5540123350810812,-9.341890748824936,-23.0773082531028,-35.33312673559369,-155.44807891197257,34.120000083529675,-115.30147783893767
0.5940957371883243,0.4241419273913514,0.5654869350810812,-11.601433748824936,-20.8101282531028,-32.26441673559369,-155.44807891197257,34.120000083529675,-115.30147783893767
0.6067910371883243,0.3943568273913514,0.5842857950810811,-6.6548667488249365,-16.313948253102797,-23.661366735593685,-155.44807891197257,34.120000083529675,-115.30147783893767
0.6014199371883243,0.37922002739135136,0.5689049350810812,-9.326622748824937,-12.817762253102797,-16.004876735593683,-159.12807891197258,30.440000083529668,-113.46147783893767
0.5845742371883244,0.38385872739135135,0.5557213350810811,-14.265553748824937,-14.428448253102797,-9.172818735593685,-159.12807891197258,30.440000083529668,-113.46147783893767
0.5865274371883243,0.4043665273913514,0.5689049350810812,-11.357153748824937,-12.428449253102798,-1.9972457355936855,-159.12807891197258,30.440000083529668,-113.46147783893767
0.5816445371883243,0.4121790273913514,0.5884361850810812,-11.135782748824937,-9.962800253102797,0.8042805644063145,-161.88807891197257,28.600000083529665,-111.62147783893766
0.5735879371883243,0.4241419273913514,0.5620690350810812,-7.280821748824936,-3.962800253102798,3.743212264406315,-161.88807891197257,28.600000083529665,-111.62147783893766
0.5713906371883244,0.4300013273913514,0.5596276350810812,-1.7312028488249367,0.02193274689720237,7.033288264406314,-161.88807891197257,28.600000083529665,-111.62147783893766
0.5608926371883244,0.4214564273913514,0.5437584350810811,-0.24265324882493666,1.800558746897202,10.575273264406315,-162.8080789119726,29.520000083529666,-111.62147783893766
0.5660195371883243,0.43122202739135135,0.5593834350810811,-0.2655540488249366,4.128802746897202,16.315733264406315,-162.8080789119726,29.520000083529666,-111.62147783893766
0.5550332371883243,0.4722376273913514,0.5654869350810812,2.8718502511750637,7.212771746897202,18.277563264406314,-161.88807891197257,30.440000083529668,-112.54147783893768
0.5611367371883244,0.5108118273913513,0.5825768050810811,6.299331251175063,12.464681746897204,19.735573264406316,-161.88807891197257,30.440000083529668,-112.54147783893768
0.5564981371883243,0.5266810273913514,0.5540123350810812,14.490176251175065,20.021931746897202,17.208863264406315,-161.88807891197257,30.440000083529668,-112.54147783893768
0.5728555371883244,0.5108118273913513,0.5237389350810812,16.963456251175064,19.0753717468972,16.414963264406314,-159.12807891197258,33.20000008352967,-113.46147783893767
0.5818887371883243,0.5147181273913515,0.5332604350810812,18.543606251175063,22.953231746897202,16.727943264406314,-159.12807891197258,33.20000008352967,-113.46147783893767
0.5933633371883243,0.5239954273913514,0.5044518350810812,16.940556251175064,21.999031746897202,16.048553264406316,-159.12807891197258,33.20000008352967,-113.46147783893767
0.5992227371883243,0.5259486273913514,0.5029869350810812,18.841316251175062,20.9379617468972,17.636343264406314,-155.44807891197257,35.04000008352968,-116.22147783893769
0.5965371371883244,0.5315638273913514,0.5078697350810811,20.33749625117506,20.289111746897202,17.949323264406313,-155.44807891197257,35.04000008352968,-116.22147783893769
0.6048379371883243,0.5347376273913513,0.49102403508108117,15.207726251175062,19.487581746897202,18.376803264406316,-151.76807891197257,36.880000083529666,-117.14147783893767
0.6226602371883243,0.5091029273913514,0.4719811350810812,18.787886251175063,21.5715517468972,19.575273264406317,-151.76807891197257,36.880000083529666,-117.14147783893767
0.6006875371883243,0.5274134273913513,0.41900263508108115,15.406206251175062,16.3654417468972,19.651613264406315,-151.76807891197257,36.880000083529666,-117.14147783893767
0.5833535371883243,0.5454798273913515,0.4656334350810811,8.818415251175065,11.876891746897202,16.063823264406313,-147.1680789119726,39.64000008352967,-118.06147783893769
0.5928750371883243,0.5176478273913514,0.45660023508108116,8.787881251175063,16.8539917468972,16.437863264406314,-147.1680789119726,39.64000008352967,-118.06147783893769
0.5855508371883243,0.4873743273913514,0.4473229350810812,20.658106251175063,14.617351746897201,21.575273264406317,-147.1680789119726,39.64000008352967,-118.06147783893769
0.5669961371883243,0.48542122739135135,0.44903183508108113,15.703906251175065,11.495211746897203,28.147793264406314,-144.40807891197258,39.64000008352967,-118.06147783893769
0.5618692371883244,0.5134974273913513,0.4583092350810811,4.047423251175063,8.266211746897202,31.720313264406315,-144.40807891197258,39.64000008352967,-118.06147783893769
0.5494180371883244,0.5625697273913515,0.48052603508108116,2.8184152511750633,8.937961746897203,34.59817326440631,-140.72807891197257,41.480000083529674,-118.98147783893768
0.5474649371883243,0.5840540273913515,0.4858971350810811,4.703912251175064,12.686051746897201,32.71267326440631,-140.72807891197257,41.480000083529674,-118.98147783893768
0.5442910371883244,0.6021204273913514,0.47661973508108113,8.887116251175064,17.4341517468972,26.590543264406314,-140.72807891197257,41.480000083529674,-118.98147783893768
0.5433145371883243,0.6013880273913514,0.42608263508108113,10.024526251175065,20.602081746897202,22.101993264406314,-138.88807891197257,43.32000008352968,-119.90147783893767
0.5496621371883244,0.5884486273913514,0.3958092350810812,9.062686251175064,16.8081917468972,15.880613264406316,-138.88807891197257,43.32000008352968,-119.90147783893767
0.5606485371883243,0.5686732273913513,0.39971543508108115,4.1848282511750625,8.747121746897202,15.918783264406315,-138.88807891197257,43.32000008352968,-119.90147783893767
0.5486856371883243,0.5774622273913514,0.4448815350810812,-1.6777677488249365,4.3578107468972025,16.544743264406314,-137.0480789119726,45.160000083529674,-120.82147783893768
0.5447793371883244,0.5730677273913514,0.40850453508108114,-2.4258597488249367,1.5257497468972026,13.888253264406314,-137.0480789119726,45.160000083529674,-120.82147783893768
0.5335488371883244,0.5750208273913513,0.4282799350810812,3.5283392511750633,4.281474746897203,11.796643264406315,-135.2080789119726,45.160000083529674,-120.82147783893768
0.5386758371883243,0.5713587273913514,0.41582873508108115,0.5359722511750633,-1.184174253102798,7.842448264406314,-135.2080789119726,45.160000083529674,-120.82147783893768
0.5267129371883243,0.5916224273913513,0.40972523508108116,-2.8686077488249366,-2.092571253102798,3.5600062644063146,-135.2080789119726,45.160000083529674,-120.82147783893768
0.5291543371883244,0.5994349273913513,0.4251061350810812,-4.6777677488249365,-4.458983453102798,-1.5239637355936853,-135.2080789119726,46.08000008352967,-120.82147783893768
0.5250039371883244,0.5916224273913513,0.4238854350810812,-1.4182257488249366,-4.367380453102798,-3.4247267355936852,-135.2080789119726,46.08000008352967,-120.82147783893768
0.5291543371883244,0.5755091273913513,0.4236412350810812,-3.4258597488249367,-5.8864642531027975,-6.264421735593686,-135.2080789119726,46.08000008352967,-120.82147783893768
0.5250039371883244,0.5652552273913514,0.46123893508108116,-13.944943748824937,-10.214708253102797,-6.989612735593686,-135.2080789119726,45.160000083529674,-119.90147783893767
0.5311074371883243,0.5884486273913514,0.46758653508108117,-19.28082374882494,-11.924633253102797,-8.272054735593684,-135.2080789119726,45.160000083529674,-119.90147783893767
0.5389199371883243,0.6194544273913514,0.46392443508108117,-15.028913748824936,-9.291044253102799,-11.424726735593685,-137.0480789119726,45.160000083529674,-119.90147783893767
0.5560098371883243,0.6258021273913514,0.4656334350810811,-6.540363748824937,-5.764327253102797,-15.417096735593685,-137.0480789119726,45.160000083529674,-119.90147783893767
0.5953164371883243,0.6441126273913513,0.4443932350810812,-28.143413748824937,-10.000968253102798,-27.585036735593686,-139.8080789119726,45.160000083529674,-119.90147783893767
0.6089883371883243,0.6507044273913514,0.46441273508108116,-20.135783748824938,-8.291044253102799,-36.63846673559369,-139.8080789119726,45.160000083529674,-119.90147783893767
0.6153360371883243,0.6616907273913515,0.4670983350810812,-4.280820748824937,-3.894097953102798,-42.90564673559369,-145.32807891197257,44.240000083529665,-119.90147783893767
0.6439004371883243,0.5835657273913515,0.4746666350810812,12.558876251175064,-3.138372753102798,-48.39419673559369,-145.32807891197257,44.240000083529665,-119.90147783893767
0.6624551371883243,0.5034876273913513,0.4390221350810811,14.123756251175063,-6.489518253102798,-45.76823673559369,-145.32807891197257,44.240000083529665,-119.90147783893767
0.6473184371883243,0.49323372739135135,0.44414903508108117,-5.006011748824937,-15.993338253102797,-45.317856735593686,-149.00807891197258,42.400000083529676,-119.90147783893767
0.6421914371883243,0.49323372739135135,0.4968834350810811,-14.135783748824936,-22.1612782531028,-43.61556673559369,-149.00807891197258,42.400000083529676,-119.90147783893767
0.6412149371883243,0.49396612739135143,0.5049401350810812,-5.937309748824937,-19.6192882531028,-42.14991673559369,-153.6080789119726,38.72000008352967,-118.06147783893769
0.6292520371883243,0.48224742739135135,0.5335045350810812,4.826049251175064,-18.428448253102797,-38.88273673559369,-153.6080789119726,38.72000008352967,-118.06147783893769
0.6199746371883244,0.4461146273913514,0.5586510350810812,-1.3342562488249365,-18.428448253102797,-36.85220673559369,-153.6080789119726,38.72000008352967,-118.06147783893769
0.6150918371883243,0.3950892273913514,0.5569420350810812,-4.6777677488249365,-14.756698253102797,-31.356026735593684,-156.3680789119726,33.20000008352967,-116.22147783893769
0.6231485371883243,0.4016810273913514,0.5415611350810812,-7.448759748824937,-19.3063082531028,-24.997246735593684,-156.3680789119726,33.20000008352967,-116.22147783893769
0.6009317371883243,0.39630992739135135,0.5684166350810812,-4.082347748824937,-15.642188253102796,-19.981976735593683,-156.3680789119726,33.20000008352967,-116.22147783893769
0.6004434371883243,0.37140752739135136,0.5750084450810812,-6.700668748824937,-13.321578253102798,-13.088846735593686,-159.12807891197258,30.440000083529668,-114.38147783893768
0.6111856371883243,0.3469935273913514,0.5569420350810812,-7.761737748824936,-11.741426253102798,-3.180451735593685,-159.12807891197258,30.440000083529668,-114.38147783893768
0.5987344371883243,0.3606654273913514,0.5711022350810812,-7.120515748824937,-10.115472253102798,3.3615322644063146,-160.96807891197258,29.520000083529666,-112.54147783893768
0.6168008371883243,0.3841029273913514,0.5791588350810811,-3.3037217488249366,-6.046769253102798,10.476033264406315,-160.96807891197258,29.520000083529666,-112.54147783893768
0.5936074371883243,0.38019662739135135,0.5571861350810812,-3.952576748824937,-3.2681437531027977,13.025653264406316,-160.96807891197258,29.520000083529666,-112.54147783893768
0.5884805371883243,0.37970832739135135,0.5642662350810812,-2.0823478488249365,2.426512746897202,18.392063264406314,-160.0480789119726,29.520000083529666,-112.54147783893768
0.5897012371883243,0.41169072739135143,0.5386315350810812,-2.0670806488249367,1.892161746897202,24.987483264406315,-160.0480789119726,29.520000083529666,-112.54147783893768
0.5831094371883243,0.4517298273913514,0.5493736350810812,0.08559125117506339,2.5639177468972023,29.018023264406317,-160.0480789119726,29.520000083529666,-112.54147783893768
0.5806680371883243,0.48639782739135135,0.5664635350810812,-3.7312027488249364,6.624981746897202,29.399703264406316,-159.12807891197258,31.36000008352967,-114.38147783893768
0.5977578371883243,0.5200892273913513,0.5427818350810811,2.6046752511750633,15.235671746897202,27.521843264406314,-159.12807891197258,31.36000008352967,-114.38147783893768
0.5938516371883243,0.5227747273913514,0.5237389350810812,14.268796251175063,22.3425417468972,19.247023264406316,-157.2880789119726,35.04000008352968,-115.30147783893767
0.6109414371883243,0.5313197273913515,0.4587975350810811,20.841316251175062,25.777661746897202,18.613443264406314,-157.2880789119726,35.04000008352968,-115.30147783893767
0.5857949371883243,0.5484095273913514,0.46441273508108116,26.062686251175062,23.2585717468972,19.628703264406315,-157.2880789119726,35.04000008352968,-115.30147783893767
0.5914102371883243,0.5503626273913513,0.5012779350810812,27.51306625117506,21.021931746897202,19.399703264406316,-151.76807891197257,35.960000083529664,-117.14147783893767
0.5762735371883243,0.5823450273913513,0.5127526350810812,21.833686251175063,21.6173517468972,12.758483264406316,-151.76807891197257,35.960000083529664,-117.14147783893767
0.5611367371883244,0.5818568273913514,0.5383873350810812,10.329866251175064,23.846361746897202,11.605803264406315,-151.76807891197257,35.960000083529664,-117.14147783893767
0.5572305371883244,0.5784388273913514,0.5208092350810811,9.459636251175064,23.9914017468972,14.101993264406316,-148.0880789119726,37.80000008352967,-118.06147783893769
0.5650430371883244,0.5662318273913514,0.4941979350810812,22.436736251175063,25.9684917468972,17.292833264406315,-148.0880789119726,37.80000008352967,-118.06147783893769
0.5574746371883244,0.5474329273913514,0.4761315350810812,29.07032625117506,23.6707917468972,26.247023264406316,-144.40807891197258,40.56000008352967,-118.06147783893769
0.5257363371883244,0.6277552273913514,0.47320183508108116,13.711546251175063,16.2738417468972,26.437863264406314,-144.40807891197258,40.56000008352967,-118.06147783893769
0.5174356371883243,0.6321497273913514,0.4912682350810812,-0.33425624882493665,16.0524717468972,23.796643264406317,-144.40807891197258,40.56000008352967,-118.06147783893769
0.5379434371883244,0.5896693273913514,0.4443932350810812,0.6123082511750633,16.9379617468972,17.834813264406314,-140.72807891197257,42.400000083529676,-118.98147783893768
0.4988809371883243,0.5454798273913515,0.40240103508108116,-3.7235687488249365,11.846361746897204,14.674513264406315,-140.72807891197257,42.400000083529676,-118.98147783893768
0.5123086371883243,0.5791712273913514,0.3967858350810812,-11.883873748824936,-2.9704338531027976,24.567643264406314,-140.72807891197257,42.400000083529676,-118.98147783893768
0.5257363371883244,0.5867396273913514,0.4292565350810812,-15.723573748824936,-13.168907253102798,26.323363264406314,-139.8080789119726,43.32000008352968,-118.98147783893768
0.48642973718832433,0.6384974273913513,0.4270592350810811,-18.59379374882494,-15.962798253102797,26.201223264406316,-139.8080789119726,43.32000008352968,-118.98147783893768
0.4769082371883243,0.6260462273913514,0.4631920350810812,-17.784633748824938,-15.100208253102798,21.308093264406317,-139.8080789119726,43.32000008352968,-118.98147783893768
0.4727578371883243,0.5962611273913514,0.4590416350810812,-7.4792947488249375,-0.8101282531027976,20.392063264406314,-140.72807891197257,42.400000083529676,-118.06147783893769
0.46299223718832433,0.6189661273913514,0.4187584350810812,-5.173950748824936,2.334909746897202,17.613443264406314,-140.72807891197257,42.400000083529676,-118.06147783893769
0.47031643718832433,0.6428919273913514,0.4150963350810812,-6.662500748824936,0.9532297468972026,9.376800264406315,-139.8080789119726,43.32000008352968,-117.14147783893767
0.4778848371883243,0.6209193273913514,0.40972523508108116,-3.0365467488249367,1.5181157468972022,2.2928302644063145,-139.8080789119726,43.32000008352968,-117.14147783893767
0.4683633371883243,0.6155482273913513,0.42217643508108116,2.3069652511750633,-0.04676925310279767,-3.188085735593685,-139.8080789119726,43.32000008352968,-117.14147783893767
0.4678750371883243,0.6363001273913513,0.44244013508108115,-1.5785310488249367,-3.504784953102798,-6.279688735593686,-140.72807891197257,43.32000008352968,-118.06147783893769
0.4930215371883243,0.6475306273913515,0.45684433508108113,-11.380053748824936,-3.527685753102798,-11.523966735593685,-140.72807891197257,43.32000008352968,-118.06147783893769
0.5018106371883243,0.6380091273913513,0.47637563508108116,-7.929675748824936,-1.352113253102798,-14.722436735593686,-140.72807891197257,43.32000008352968,-118.06147783893769
0.5315957371883243,0.6392298273913515,0.4526940350810812,7.245896251175063,3.6555197468972023,-17.539226735593687,-141.6480789119726,44.240000083529665,-118.06147783893769
0.5572305371883244,0.6355677273913514,0.43340683508108113,10.848946251175065,6.151702746897202,-19.165186735593686,-141.6480789119726,44.240000083529665,-118.06147783893769
0.5967813371883243,0.6040736273913514,0.4631920350810812,-3.0594467488249366,-12.542953253102798,-30.920906735593686,-142.56807891197258,43.32000008352968,-118.98147783893768
0.6085000371883243,0.5813685273913514,0.49590683508108113,-4.120515748824936,-14.092568253102797,-30.707166735593685,-146.24807891197258,42.400000083529676,-118.98147783893768
0.6248574371883243,0.5701380273913514,0.4927330350810811,-15.761733748824936,-16.687988253102798,-31.562136735593686,-146.24807891197258,42.400000083529676,-118.98147783893768
0.6265664371883243,0.5623255273913514,0.47271353508108116,-18.82280374882494,-22.4284482531028,-33.20335673559369,-146.24807891197258,42.400000083529676,-118.98147783893768
0.6163125371883243,0.5435267273913513,0.5125084350810811,-9.089981748824936,-24.5047882531028,-34.77587673559369,-149.9280789119726,39.64000008352967,-117.14147783893767
0.6143594371883243,0.5476771273913514,0.5532799350810812,-3.1892177488249365,-18.825398253102797,-35.51632673559369,-149.9280789119726,39.64000008352967,-117.14147783893767
0.6724649371883243,0.5086146273913514,0.5564537350810812,-3.8838747488249368,-14.787228253102798,-37.096486735593686,-149.9280789119726,39.64000008352967,-117.14147783893767
0.6348672371883243,0.4407435273913514,0.5300865350810812,-3.7388367488249368,-14.833028253102798,-38.363656735593686,-154.52807891197259,36.880000083529666,-116.22147783893769
0.6409707371883243,0.40827282739135135,0.5457115350810812,-3.0136457488249366,-13.542953253102798,-30.638466735593685,-154.52807891197259,36.880000083529666,-116.22147783893769
0.6331582371883243,0.4085169273913514,0.5564537350810812,-7.593797748824937,-15.771958253102797,-25.898006735593686,-158.20807891197256,33.20000008352967,-115.30147783893767
0.6409707371883243,0.3753138273913514,0.5518151350810812,-9.326622748824937,-11.619288253102798,-21.233886735593686,-158.20807891197256,33.20000008352967,-115.30147783893767
0.6453653371883243,0.3628626273913514,0.5545006350810812,-2.8533397488249364,-11.046770253102798,-16.730066735593685,-158.20807891197256,33.20000008352967,-115.30147783893767
0.6453653371883243,0.3450404273913514,0.5618248350810812,3.4672702511750635,-7.588754253102797,-8.844574735593685,-160.0480789119726,30.440000083529668,-113.46147783893767
0.6404824371883243,0.3238001273913514,0.5537682350810812,5.314598251175063,-5.207075253102798,-1.5392307355936854,-160.0480789119726,30.440000083529668,-113.46147783893767
0.6304727371883243,0.31818492739135135,0.5645104350810811,5.261163251175063,-2.5124182531027976,6.872983264406314,-160.0480789119726,30.440000083529668,-113.46147783893767
0.6197305371883243,0.33063612739135134,0.5811119650810812,5.200094251175063,-2.4895182531027977,13.399703264406314,-160.0480789119726,29.520000083529666,-112.54147783893768
0.6133828371883243,0.4173060273913514,0.6206627450810812,-0.08998174882493659,0.4341457468972023,18.247023264406316,-160.0480789119726,29.520000083529666,-112.54147783893768
0.5960488371883244,0.4527064273913514,0.5967369650810812,1.7420792511750633,11.464681746897202,20.063823264406317,-159.12807891197258,31.36000008352967,-113.46147783893767
0.5972695371883243,0.47419072739135143,0.5242272350810812,3.169560251175063,5.350176746897203,21.872983264406315,-159.12807891197258,31.36000008352967,-113.46147783893767
0.6009317371883243,0.5210657273913515,0.5212975350810811,8.780247251175064,5.350176746897203,24.964583264406315,-159.12807891197258,31.36000008352967,-113.46147783893767
0.5867715371883243,0.5818568273913514,0.5693932350810812,5.299331251175063,7.3425417468972025,21.422603264406316,-157.2880789119726,33.20000008352967,-115.30147783893767
0.5884805371883243,0.6023646273913514,0.5469322350810811,8.329865251175065,17.0830017468972,14.819543264406315,-157.2880789119726,33.20000008352967,-115.30147783893767
0.5853067371883243,0.5481654273913514,0.4941979350810812,23.574136251175062,19.441781746897203,11.766113264406314,-157.2880789119726,33.20000008352967,-115.30147783893767
0.5911660371883243,0.5178919273913514,0.4666100350810811,30.413836251175063,18.0066617468972,11.025653264406316,-154.52807891197259,35.04000008352968,-115.30147783893767
0.5840860371883243,0.5391322273913515,0.48028183508108113,22.146656251175063,14.884531746897201,9.628708264406315,-154.52807891197259,35.04000008352968,-115.30147783893767
0.5872598371883243,0.5659876273913513,0.5208092350810811,22.253526251175064,15.525751746897201,10.170693264406315,-149.9280789119726,35.04000008352968,-116.22147783893769
0.5857949371883243,0.5298548273913515,0.5169029350810812,27.33749625117506,21.6326217468972,11.850083264406315,-149.9280789119726,35.04000008352968,-116.22147783893769
0.5799356371883243,0.4944544273913514,0.46538933508108116,29.33749625117506,23.5410117468972,15.247033264406316,-149.9280789119726,35.04000008352968,-116.22147783893769
0.5740762371883243,0.4993372273913514,0.4504967350810811,26.68864625117506,20.0753717468972,18.468403264406316,-144.40807891197258,36.880000083529666,-118.06147783893769
0.5638223371883243,0.5352259273913513,0.47637563508108116,27.169566251175063,19.9608617468972,20.659243264406314,-144.40807891197258,36.880000083529666,-118.06147783893769
0.5518594371883243,0.5137415273913515,0.46856313508108116,32.955816251175065,26.4265117468972,18.857713264406314,-144.40807891197258,36.880000083529666,-118.06147783893769
0.5384317371883244,0.5130091273913513,0.3926354350810812,41.742076251175064,30.762391746897197,22.384433264406315,-138.88807891197257,38.72000008352967,-118.98147783893768
