timestamp,ax,ay,az,gx,gy,gz,mx,my,mz,label
0.0,0.15182892256352076,0.36564183329492106,11.226501921035101,1.679365310566521,-8.058901789178157e-05,-0.3663060908951989,465.5844497160784,478.3014874266607,512.2088149554165,jog
0.05008347245409015,1.0850296163623576,1.1932669406042016,12.107349160841084,-0.5660577203220951,-0.02272501559542725,0.4272981955902892,487.36473832467215,499.87096580354955,549.3713487141158,jog
0.1001669449081803,1.6291705101646312,0.9742834535286256,11.758617341658217,0.11450773018284678,-0.10195512381410014,-0.9264039136604629,547.8476956827701,575.750045272206,509.7974843217015,jog
0.15025041736227046,0.9824638919875369,0.586169078601531,9.969383336546997,-0.5661350297602714,-0.9787183578660164,-0.3176970698288778,482.46823581335,574.5459401846307,510.2515454373165,jog
0.2003338898163606,-0.40121167741208597,-0.09465621523944495,8.451293018700643,0.5771566204253344,0.10001192576316259,-0.2547129736751076,505.82769916451844,461.487461937135,565.4911455816599,jog
0.25041736227045075,-1.560041199842174,-0.5863010204904033,7.605679813433434,0.4820290161973458,0.7124544670309872,0.3331927644813206,493.6794748960721,527.4832152655055,501.8487050170801,jog
0.3005008347245409,-2.0520076674821537,-1.0470231943529125,7.983705937928117,0.1211467416915831,-0.6163408390199301,0.12214371506330737,552.2304418042646,476.97672954292074,495.8721459910568,jog
0.35058430717863104,-0.997441198671031,-0.2625289454852683,9.532009018492756,0.47717546554484064,-0.9866517302780405,-0.3070941256181486,500.0028654183307,469.4511042389966,469.0784468815907,jog
0.4006677796327212,0.018127452230557756,0.6560435650509928,10.53957554097407,0.2673461699688207,0.29990335314180006,0.7993377299237022,485.2014536418137,486.8817627303228,459.1364429248833,jog
0.4507512520868114,1.2072052644790467,1.2425751715857012,12.284479829389197,0.08186392360571829,-0.24077461120106147,-0.2890390091366547,480.83678373866036,535.3084417716951,489.6800836209672,jog
0.5008347245409015,1.7216373698431215,1.134115556835412,11.453995689553933,0.5233168966505402,0.15978200702786224,0.644649642982698,553.8298139100564,505.3157554304818,498.80610256991497,jog
0.5509181969949917,1.6817765498354156,0.19722994041133585,10.2087817568656,1.523306041813876,-0.05423590225528907,1.9812947943947,503.2195248049785,426.84476989953225,505.9908914112075,jog
0.6010016694490818,0.033704596563142925,-0.1050706869124387,8.39470065421638,-1.8830176580883682,1.2364241298957501,-0.28931297180429055,571.8190555134603,522.4195320138925,473.297902956382,jog
0.651085141903172,-1.262149024983563,-1.0337195288591987,7.608033288274556,0.052683815292501504,-0.5755463127348333,-0.13704528537765878,533.3676667818979,482.9332532578761,439.6672171464646,jog
0.7011686143572621,-1.9535625077661518,-0.9875895339655629,8.026250734071859,-0.32053464038336255,0.48776449062082883,-0.4854098293751082,434.1144936913549,429.2130033064584,557.5222941491958,jog
0.7512520868113522,-1.096955426353608,-0.5071111637537373,9.579327948292876,-0.7246409767143187,0.6075804011223259,-1.0194129964266816,502.6582536294952,507.9723773515964,552.1269505999187,jog
0.8013355592654424,-0.44244157856301036,0.40668394815942227,11.38378780855826,0.08596107781406036,0.6247424003534375,-0.47321541273616563,511.14415510995553,459.1381067856458,489.3634378807568,jog
0.8514190317195326,1.8043276330766633,0.8282525485991508,12.045675614080483,-0.2715462952615135,-0.5810081468838556,-0.2536544022190303,508.7201458301752,486.3341246451539,449.5615919159046,jog
0.9015025041736228,1.9460501479524313,1.3950149000129923,11.727196074581768,-0.7161069869544127,0.38966374426070044,0.43374886395599616,497.4999999079102,466.3511883859563,463.3514059279909,jog
0.9515859766277128,1.7057455918761026,0.44058712775903636,9.987402526217965,0.18797395547117463,-0.2567297386901574,0.5649856202984546,534.132837218369,422.20042582783344,555.972562507272,jog
1.001669449081803,-0.24245570711211673,-0.11494050647947307,8.57336715404022,0.18480658145954146,1.5277648023102943,0.11868834069444116,450.89619015194125,492.14807699257625,431.800524663278,jog
1.0517529215358932,-1.190857316047733,-1.229905638602813,7.750786870226532,1.095331706833611,-1.1028857934814034,0.6502623848436916,517.2989232547437,513.8705069652299,516.1607383974798,jog
1.1018363939899833,-2.3311796507353084,-0.9943996181349788,7.603969844006283,1.1740950999255457,-0.1105853566310831,0.12047509614089896,427.4173053323119,499.9823516480047,513.6930374758408,jog
1.1519198664440735,-1.6629961714990096,-0.6642523417740238,9.20156425241687,0.5727049798664284,0.7227078527768139,0.1850909512294368,499.3330310818908,473.1630464652643,455.5353167197096,jog
1.2020033388981637,-0.0035394216764765424,0.5433111658222172,11.303640660838989,0.2387364416480888,-0.11918680343559426,0.19165660410699192,510.5871111582687,477.040909473256,520.2681633818296,jog
1.2520868113522539,1.262823207203741,0.7169392986335712,11.709602764356598,0.5462985349665819,-0.6787675876516002,0.3566629258584343,491.5262468412317,496.069800106152,443.2497195295638,jog
1.302170283806344,2.0053207060199307,1.0580958961586968,11.482311949030102,-1.3481202883565433,-0.21955391395719334,1.1468234541618845,475.7835158164546,500.08845219667586,571.6572016770417,jog
1.352253756260434,1.2205023949791234,0.7898446673742319,10.068149838338204,0.2701413263198303,0.051216005405374604,-0.6589447862518147,438.07709959438114,538.1589361052643,493.97545555172036,jog
1.4023372287145242,0.075002557092348,-0.32380116542663057,8.181629631780044,-0.6000350846800185,-1.002586674339394,-1.9214772353391452,515.6241764259321,437.4370033423804,495.26928481849103,jog
1.4524207011686143,-1.4483591933035247,-1.5095629253933391,7.4801538153181415,-0.2037697915842149,0.22503014444180955,0.4295861263578412,491.20407618244303,491.6055866846059,619.018618817269,jog
1.5025041736227045,-1.654048550876715,-1.4685562049772751,7.603980850628946,-0.3503436036610983,-0.40817423234000927,0.7135711578703723,452.628486999655,505.2720785472973,535.874011124635,jog
1.5525876460767947,-1.013204088730084,-1.08888267595608,9.518000231763388,-0.735902430659407,0.5913350135244468,-0.9590470861154173,485.2797752816862,520.1254662392874,510.2226224867713,jog
1.6026711185308848,-0.023080595579933708,0.6683748150786493,11.07612487112489,0.6541891978029386,-0.17211869163835147,-0.0001530778880715296,550.0587762676953,496.57864481342557,517.506933285626,jog
1.652754590984975,1.187146429306621,1.055930028108621,11.77292579552706,0.8759053596347561,0.055554659196649966,-0.2755965866571968,536.4382790900264,502.17971100309813,563.1526525687052,jog
1.7028380634390652,1.8281180264671562,0.9143935448308973,11.853659759172082,-1.0374325619544558,-0.5235815880710497,0.4113765065918725,534.9880013257057,504.5780245793863,479.31902710976874,jog
1.7529215358931554,1.1255229118540595,0.6982295650014847,10.367798037824553,-0.1654826497652661,0.21302243150986203,-0.628667050471754,533.6887685780852,424.5302716798734,539.4790934197356,jog
1.8030050083472455,-0.1565219437149593,-0.4410979912255992,8.269382522720692,-1.5204836514970832,0.14871717870111745,0.07496907902091804,535.3858054838636,621.0411530229864,490.391042379215,jog
1.8530884808013357,-1.4204685454873722,-1.1221534007773588,7.463835914458125,-0.4733911294549368,1.3473807920846328,-0.08789459451220756,503.982856750142,529.4569058879565,451.49076305130706,jog
1.9031719532554257,-1.6681958788602476,-1.428345213267832,8.05722483919264,0.8737743165477554,-0.29520466569300124,0.3182268325049269,485.86593602032605,536.0802266734999,469.14585813800613,jog
1.9532554257095158,-1.2743790391650058,-0.5052051652262946,9.705700845949401,0.3583754774325432,0.8630487184381338,-0.1637605569323156,507.2703577502884,466.89937675241197,435.3790608102909,jog
2.003338898163606,-0.07352389250600024,0.35138634544542496,11.000520655637166,-0.24061441259760724,-0.23398193855191934,0.30400993447277963,500.2913886802066,523.2015632708333,417.4748672851264,jog
2.0534223706176964,1.435631289973081,0.9498131310725841,12.32363625315612,-0.9285038646677982,-0.34565961901502995,-1.2879503983644147,551.7382638022312,477.7813720633966,455.51717891738235,jog
2.1035058430717863,1.8414626918172414,1.0158516589636348,11.562775237086521,-0.39940906108041935,-0.16429013752919353,-0.8113134100597535,484.69109608629236,537.2617636235299,533.9167978262977,jog
2.1535893155258763,0.9837767079679484,0.7434511053172719,9.518265894559445,0.14378384485515944,-2.355362595665617,0.8765730401428602,491.15828071570945,472.3563345995838,491.2031531359523,jog
2.2036727879799667,0.05465898964264164,-0.6190010119500413,8.096071534753372,0.767510679890142,0.027673894084925193,-0.2975303293389637,508.0190201928871,487.9977253748575,537.9577994269628,jog
2.2537562604340566,-1.3339156968636892,-1.0302384172894692,7.5431651472404075,-0.8693571361608238,0.4937165735970686,0.19463932845770884,430.79664787242206,552.1590374710006,449.4807164073887,jog
2.303839732888147,-1.55922989762412,-1.3341777107932098,8.574523980251866,0.05033133925271871,0.28094694952666466,-0.2342552180165093,473.0735747030127,492.9532752976025,469.63447792863786,jog
2.353923205342237,-0.9814776541299595,-0.33466106268965334,9.610261290553215,-0.40177907992479117,-0.6916534371767494,0.015351345790993754,482.3962823744748,420.7301418618321,550.8344871345951,jog
2.4040066777963274,0.1468881736746881,0.325721642802644,11.386549634647588,0.05482573913577624,-0.3848662530437313,0.18707519443522636,512.2310769239325,561.5039969815736,501.54250887705876,jog
2.4540901502504173,1.5225492767615207,1.380898536673989,12.035750819274293,0.024077066983859207,-1.4643178975094615,0.4592283824214604,503.64800658065934,477.5497443983802,427.7977210986733,jog
2.5041736227045077,1.8318242131707467,1.012564711396943,11.624667328458411,0.26320901158456783,-0.7617073139354572,-0.19314402134478936,475.4111034367104,426.8948723271303,412.12869132056085,jog
2.5542570951585977,0.9610060311492906,0.42705714256028465,9.81529351386907,1.1049000408963021,-0.21240753392348535,-0.8572933794203882,510.85204989905606,506.74189962493693,510.230484348252,jog
2.604340567612688,-0.11002864505144984,-0.5391733452262695,8.429839845949315,-1.2843946787944995,0.04376662933335498,-0.4911806632309154,400.651110057276,513.2935034516536,458.4863177439918,jog
2.654424040066778,-1.3267889034888165,-0.9619181067633595,7.233274932635878,-0.20225795505374536,0.41332391584680717,0.5182656416650829,504.0048193133481,520.8786825917522,511.23891899946796,jog
2.704507512520868,-1.6548272310858505,-1.090763132736696,8.244920374116354,0.0806493162180509,0.4739787662247134,0.5374271170507914,560.7327174344466,493.243285402333,489.87545355981285,jog
2.7545909849749584,-0.9149173558531746,-0.7494391301666243,9.2896325152079,-0.41350504871518506,0.25156641555620335,0.1858687317137543,516.9829233571027,500.8883749283337,524.5419400329304,jog
2.8046744574290483,0.304870267961067,0.41883146635658663,11.352563062582266,0.5875544235735725,0.052768932641442313,0.3091698755102538,549.9083123498862,444.07430056291525,487.38798934325564,jog
2.8547579298831387,1.351994188669512,1.1586479249200712,11.844349196660332,0.011811732378618319,-1.7496980029642575,-0.17189601577812316,553.7479833854132,499.29213078260324,435.7068242058013,jog
2.9048414023372287,1.8099214317985648,0.862840912393787,11.71740457638289,-1.4633263972770734,-0.07127091669451657,0.19819063213871488,455.00464944442575,460.5789121622578,448.37756739178167,jog
2.954924874791319,1.489314792072404,0.59220286514532,10.156499427260558,1.1120546274907026,0.767935513142182,-0.45514269984733036,576.4336193827363,530.8262126491998,466.03354830638006,jog
3.005008347245409,-0.019093474068394678,-0.3820360248871822,8.813318875136046,0.8078553327483019,0.24008582363245964,1.4412745892090042,487.4425059845311,552.8159177064697,475.73793741216616,jog
3.0550918196994994,-1.1919508940988024,-0.9281339936635178,7.565561737628746,-0.3107373122298287,-0.0031317067332893205,-0.48287108413427543,442.5088760541423,479.3712921581492,488.10922807277257,jog
3.1051752921535893,-1.7857136348820717,-1.348832783827888,8.489036675251784,-1.1519913118825007,0.41963108827565077,1.781312937064574,499.3453639721647,530.564052403796,538.4020760946328,jog
3.1552587646076797,-1.3398800198066274,-0.44796438926136656,9.475650831053981,-0.27399855880054635,-0.21795531868074522,-0.00303083739321648,444.0464564373889,527.9880271202628,521.5307496435048,jog
3.2053422370617697,0.5216859921709806,0.5139294387743005,11.26507955257955,0.09700114836934554,-0.8800867965339055,-0.1896439401204136,512.8069170788687,414.5206365260517,506.8176258348902,jog
3.2554257095158596,1.635783053604757,0.690158620309336,11.857320252125191,-0.9228146724538041,-0.391169714915004,0.417153728951064,490.2008314970698,477.57237451079556,512.6848815894381,jog
3.30550918196995,1.592577400382566,1.187830179474141,11.555362272395964,-0.9953140846536085,0.7582750273563439,0.5304408928331095,532.6341615108734,537.5643059074275,471.30722382917656,jog
3.35559265442404,1.1139069826780539,0.5089240350395239,9.610946455449284,0.6552214563788562,-0.1722297235839634,-0.2409657884952923,477.92903137025496,469.226913089078,502.4588111068073,jog
3.4056761268781304,-0.028368465933235665,-0.5260964356414697,8.02816456529054,0.07078740399125391,-0.2740671123157749,0.1844610965141086,488.81266450541307,488.57140356014463,554.4594184199443,jog
3.4557595993322203,-0.9724414163473236,-0.9696643873514987,7.478184252348961,-0.6236308221656904,0.024320837536078457,1.356459601839569,422.5434374549246,495.4649086884975,543.6412452840783,jog
3.5058430717863107,-1.3837710983462745,-0.8672668671884463,8.166107622207074,0.027894922881361525,0.989282338468832,0.07256698819699578,559.6810088579042,500.5882850114664,451.0786918806131,jog
3.5559265442404007,-1.1194946195739133,-0.15023191192892488,9.262007127509323,-0.4792412403278058,-0.7496597863678799,-1.0716039667078199,466.37634113166314,460.96782367918524,470.2973347636914,jog
3.606010016694491,-0.28422285361920197,0.38679659077581835,11.607508885103085,-0.14627874388173834,1.3946021992021214,0.0038954333618938224,452.4312832966432,461.4260101743798,536.8239793253745,jog
3.656093489148581,1.6985847521198458,0.9591750026202388,12.50631036324159,-0.38975822067447236,0.2564516460822925,-1.189556793600533,524.9213536311468,474.8474582752746,460.7090001168531,jog
3.7061769616026714,2.0796380631231743,1.2170533559452466,11.788223354717884,-0.5948977455248914,0.1985664032626658,0.5417271094431151,506.21638307048374,490.10267067419903,608.4609515708653,jog
3.7562604340567614,0.6343700027099234,0.2788485690762182,9.592262942630997,-0.554450066460409,1.2495959274213109,-0.33634988070892297,510.83308407369367,520.4106089681183,545.2010808898791,jog
3.8063439065108513,-0.2055438713350765,-0.7662376575129308,8.675684987762589,-0.8728482281609646,-1.5906594889643382,0.4952602608368024,464.32685408054306,516.7637907602973,446.2536414043771,jog
3.8564273789649417,-1.100680198192339,-0.6783453685156247,7.755806626234987,-0.07326702920118312,-0.831054451299788,-0.08159822091651882,490.19703997268965,476.2353781560869,408.89635524483197,jog
3.9065108514190316,-2.2732976109507566,-0.9643379308852604,8.225369095404801,-0.008763742893955491,0.22671921337929224,0.4762414841589306,471.73785308854815,569.9484914152598,483.15935331318565,jog
3.956594323873122,-1.4141544915218207,-0.556491674725565,10.027018828653492,0.8541416050293031,0.4355721934331847,0.060374501400420444,532.6937582567341,516.1511907988586,492.9137928128553,jog
4.006677796327212,0.25100744713220524,0.6152656224082056,11.466418666648273,-0.26899485186984,-0.33133137762957965,-0.3071554743741183,510.05502093588996,521.3758767328147,514.8108504634448,jog
4.056761268781302,1.526563311910734,1.348428181397994,12.347445264418761,-0.11373356100071472,0.3062952805594937,0.4784547445829002,459.9197918716502,547.6552335313854,396.3860355492395,jog
4.106844741235393,1.579941111221665,0.8561196861357903,11.374662395527894,0.34542168414926244,-0.2125096308577787,-1.0831127064255048,505.33883787309594,556.3739345075846,527.9896711465155,jog
4.156928213689483,1.252675359281588,0.6785284729893104,9.947143462687992,-0.3119870898144235,1.1150337123846203,-1.0312270146938696,505.1894111365529,443.6221589346434,505.88834980150676,jog
4.207011686143573,-0.34369290334484515,-0.7800936976462809,8.257047101844645,-0.682684870687607,-0.1573617521252333,-0.34571514831178907,475.16904086359057,424.80895374151083,444.1139936357827,jog
4.257095158597663,-1.373286222097939,-1.0550685281457057,7.632944508157115,-0.45699005857718034,1.178513706140035,1.4752279890257896,526.5528014921259,450.28180523815337,407.63076783321566,jog
4.307178631051753,-2.115084725340304,-1.2968896579964846,8.325310978643342,0.8779783711242815,0.38418637035014286,1.3139925861575257,491.47137814563223,485.23992399861123,519.3470971010915,jog
4.357262103505843,-1.1120225897408398,-0.3665156875632329,9.41451031503052,-0.4048624144698426,-0.138829204638628,-0.3262206796809043,432.6849962274655,524.714625944675,506.1363595124684,jog
4.407345575959933,-0.6156474481155372,0.5899526158634552,10.758196211634706,0.6742874084116235,0.5394507275238828,0.31679845381328064,510.8742341957088,525.9496271830257,512.7361300766574,jog
4.457429048414023,1.4078509532596337,1.3026914607598243,11.876234870881099,0.5104691552208855,-0.21142488223559008,0.4674507856714199,480.36708942590815,537.3353282554474,485.65609849069807,jog
4.507512520868113,2.1437886276160736,1.3264381589433487,11.914653233204692,0.8489508267843797,0.8736914142784543,-0.12308899558527432,453.4115970909411,485.9572555441424,475.01868247035253,jog
4.557595993322204,1.5793784479102246,0.4027449175634804,10.090569667975888,0.12644377554921257,0.14785405314385294,0.9081358556205412,504.83867364005414,472.4034857854937,579.2398591770689,jog
4.607679465776294,0.06113891921482918,-0.757945544518412,8.242625864629412,-0.4715281218534446,0.585822974599843,-0.5237451238228258,479.78693524907993,511.17441125267646,506.23874626686097,jog
4.657762938230384,-1.249598858360204,-1.1487563442352915,7.425745475411681,1.0335708430197765,0.6578522723203174,0.8215585068886653,470.4300293800574,423.7834356272848,567.7228440839406,jog
4.707846410684474,-1.6717837161142788,-0.773360645216119,7.955324828407009,0.10011238741742504,1.0710815850322728,1.2621674079118888,420.79880445491557,483.77245065861706,545.994605640235,jog
4.757929883138565,-0.8013310312445635,-0.4536808105662867,9.845603805308992,-0.2567268004092404,-1.27739080297735,-0.39088504672160024,527.3116018059889,510.79399257647117,531.5947772131875,jog
4.808013355592655,0.6422901117749977,0.13072127592109295,11.58792076972628,-0.47783004127738304,0.2999390754239874,1.5396507186477786,570.8821398598234,516.5877774585582,488.1019205569105,jog
4.858096828046745,1.06065265173208,0.9056531704015747,11.866370771187643,-0.1797498994534835,0.4711231563694174,-1.5331595791808756,513.6919128701572,542.9354880847231,544.7629069364658,jog
4.908180300500835,1.6683200901587087,1.0234705948373384,11.26783538127332,0.12029786188117278,-1.2844788814792023,-0.5239621890399346,545.3364226992107,460.66480984827825,542.5682884415455,jog
4.958263772954925,0.9858529484661015,0.5887059601166014,10.144095009814642,0.8218642065560643,0.12578941848207428,-0.23906320952059665,521.9698171659755,471.8266259441825,461.15581574777224,jog
5.008347245409015,-0.013623433108737926,-0.4486029149236835,8.326687221652817,-0.8840787669761783,1.6275321297471725,-0.41079970651939623,467.6212968903333,514.3230209922816,496.348933959772,jog
5.058430717863105,-1.7352608281426865,-1.282478760514966,7.893679085533546,0.19124473642262207,0.3161272187257069,0.46016888133874556,541.6863323547822,542.6333948875332,514.4364616917588,jog
5.108514190317195,-1.8593338032338291,-0.39230000628593975,7.996511097004288,-0.7538367472393297,0.783680473586185,0.5303631631542023,548.7358795832445,532.1361951829881,484.235791661706,jog
5.158597662771285,-1.1431795350910188,-0.37901923877928206,9.613983276031437,-0.7646834394840466,-1.1898386056737593,-1.0618902453488246,512.048564751323,455.95663608949417,540.5635942736476,jog
5.208681135225376,0.11476611200988009,0.39143584484768296,11.11913290655979,-0.13994238244971455,-0.0755635379785266,-0.17419568463439383,586.0359718812101,503.85242122995754,452.47711706502304,jog
5.258764607679466,1.387765681544769,0.7846720143958399,12.144512928351144,0.3106105433681283,0.2570568799792065,0.17409146752722118,529.5211121004678,532.081026825334,588.9511565358699,jog
5.308848080133556,1.6913417455645752,1.1547018941953244,11.747499722533593,0.5507961453507065,-0.13819072557524917,0.4194396343100783,496.60484201820657,554.9789030598317,479.01347234552765,jog
5.358931552587646,0.606584435150912,0.4669912419723979,9.596600433631785,1.6571964334069673,0.1833000994550724,0.24372227512062172,550.7587673468748,515.1723942781064,531.3031452343984,jog
5.409015025041736,0.13850103285765264,-0.4235171986270822,8.581637380703963,-0.3312516107858151,-1.5403360995671618,-0.4137010369657768,495.87450524362794,520.4116896822355,556.9796856553382,jog
5.459098497495827,-1.1947420885246927,-1.3742364867340107,7.881784724834815,0.6696367497462086,0.7630785490812595,0.2758361126700829,452.18815202019823,485.6714071630702,423.5565906553201,jog
5.509181969949917,-1.8353013323268206,-0.7291786597022876,7.854843891238772,-1.749469122991406,0.9530644932725907,0.10780095705790033,544.2894723014209,460.48736765859184,474.91341213605966,jog
5.559265442404007,-1.1773762087441446,-0.4520270964465741,9.5675851618718,0.18323554994063243,0.9303809425087664,-1.0068587553366084,529.8173740731153,556.3454606596729,457.85978247727377,jog
5.609348914858097,0.7625490226671263,0.5726253066766032,11.298347784190835,0.5805309476390884,0.007465074330026357,-0.05576928998183812,550.132195560244,427.55769696391434,432.75376262254036,jog
5.6594323873121875,1.3809187847211608,0.9716893278429957,12.347424621574653,-0.2873369505092298,-0.73060200935905,-0.057618394843341865,519.4382283007561,521.8759269855403,452.0465809425192,jog
5.709515859766277,2.0029894220293505,0.8551424368234866,11.351655087285499,0.07275126162337232,-0.8170504593113681,-0.15536413866084717,494.76225399460657,453.142765406115,524.7034838802473,jog
5.759599332220367,1.4269342928768702,0.18100154114158315,9.993299007341724,0.44901872839947155,-0.5293152015805488,0.457138951838187,464.93783000348293,502.1167808217691,471.60101054883694,jog
5.809682804674457,-0.42107172842632856,-0.26452043792469143,8.24538759276996,0.16833183539476193,0.7356548047911418,0.20671139667790323,487.03867405411575,433.2600517946304,466.46440214449046,jog
5.859766277128548,-1.6486283378310056,-0.9431189565624805,7.232912495600533,-0.28554224530463984,-0.2641538910573184,-0.5379467802029129,464.71992920575343,531.7261357407571,497.05609852779435,jog
5.909849749582638,-1.9139132425724248,-1.3087002237335166,8.2350454067155,0.7454836906903245,0.41449031197328423,0.9052087286890759,507.09218655798696,529.6397059144961,547.9325749195641,jog
5.959933222036728,-1.3066739239704674,-0.26055316039004955,9.668873372245736,-1.0377782435823906,-0.49429205901089623,1.2166538862127962,481.7129037923628,529.6418698692822,529.7430458940581,jog
6.010016694490818,0.703069011130504,0.43078706433797664,11.589990454740006,0.5649488919790816,0.5282427546324868,1.018756661458702,447.04701358637914,471.7781878617132,481.0589364981331,jog
6.060100166944908,1.300422302165615,0.8747075339049815,12.34591022614025,-0.20681433387644577,0.18436559933010244,0.40051338153121735,522.942332928769,490.883554590416,462.5623629265999,jog
6.110183639398999,1.8385753223284595,1.0488786290483936,11.34954636101909,-0.4719201461491055,0.4388558967962719,-1.0279196244200062,480.1797331574859,466.0893457180878,447.35477499561483,jog
6.160267111853089,0.9916228543290962,0.3468605035619441,10.156930949449409,-0.8567809718488321,0.7386040969820786,0.5001437963693539,504.21460299356414,568.946601934229,560.7922687420382,jog
6.210350584307179,-0.47070876912771653,-0.689299323298654,8.103854260215327,1.3218389631775553,0.5167054964957906,0.7644966513185811,492.83966809738934,471.57992680350725,505.151544970397,jog
6.260434056761269,-1.429319687448247,-1.470938158046679,7.630017202388011,-0.6506939019366931,0.24542951234739088,0.5161692731568175,588.7124923358954,544.5010771339241,502.069703914115,jog
6.3105175292153595,-2.3520837345308534,-1.2572046142235116,7.733223386982454,0.4749602680994724,-0.5054498539894121,-0.3058484284163495,521.7114490298696,505.336133239019,517.8672807469453,jog
6.360601001669449,-0.7862137796526965,-0.32116157331209294,9.691216973635647,-0.06284295386517609,1.4600423334664454,-0.6215728424897955,469.6773980220939,459.1115277044596,478.7902151520985,jog
6.410684474123539,0.5488511525355935,0.7423734136323175,11.438942880547359,0.09136028007279721,-0.9373566454869467,-1.4019470092414008,515.4404260468066,503.4083513369887,532.6247570334831,jog
6.460767946577629,1.98480967401002,0.8462827225786989,11.667413558613276,0.8132633609332817,0.2562928297922525,1.0291832211888228,583.6650086839037,463.5090021781331,523.6768327720318,jog
6.510851419031719,1.7714250170231614,0.8049623743281054,11.297807598974332,-1.4315776402054738,-0.4437929844081008,0.2546771250630721,524.9433065334878,556.0485647009763,571.280922481913,jog
6.56093489148581,0.8461661633226151,0.07666266772946634,10.108536331312783,0.167627951751017,-1.5268438367633796,0.41028778237432795,493.06667301706074,584.4340972245388,532.0958851297703,jog
6.6110183639399,-0.43468779955278725,-0.8929855404067271,7.970061727819211,0.6760948085725353,-0.15513507047999728,0.8478320659971588,516.7599348381561,424.54744832009106,445.18440464599104,jog
6.66110183639399,-1.4079523901864657,-0.7218073814873749,7.751013455909451,-0.10621101617685391,-0.40470870219085625,-0.6302145542657698,506.93350899407915,516.3439910076463,555.0100382661778,jog
6.71118530884808,-1.5440325822790624,-1.1363550295343117,8.367635708022423,0.30986264973863525,-0.928636430626322,-0.003821074685163649,443.7916862071548,464.4507087669182,498.54422680275513,jog
6.761268781302171,-0.8086337509933536,-0.8761523985630435,9.855579872534419,-0.418142839267132,-0.127538512376077,0.6948852305317157,455.5546770800215,572.5185526149049,545.726043839538,jog
6.811352253756261,0.4315893594723044,0.20476765859296947,11.042668008632818,0.21641948556339485,-0.7969677569540095,0.7031682572324769,478.8070848149003,493.3782390076177,504.42270010629306,jog
6.861435726210351,1.529458630647905,1.0269127261256674,11.947073903210658,1.527476991761673,-0.04372865975029237,-0.8540442742910223,429.3394547166821,459.4795200947723,547.2514999135334,jog
6.911519198664441,1.7803105502946697,1.0004415461531324,11.801319548240501,-1.2170424358842697,0.4670167186652671,-0.40093896012280317,586.6812271607931,558.9015616049298,510.66743127647453,jog
6.961602671118531,0.9963641929197397,0.3726608173823956,9.943610832047241,-0.44195938009360974,0.6250573185253085,-0.138436034174447,510.6608872563231,526.7027023118148,506.0677278835211,jog
7.011686143572621,0.12607748315762318,-1.0098373746079485,8.484034280784405,1.020120841568347,-0.43126415360225545,-0.4167680294596943,495.90079822312066,453.679591014745,517.9615466710673,jog
7.061769616026711,-1.4039780889977769,-0.8494557108477612,7.708364062391845,-0.26543490255030455,0.28884762573220957,0.0935346256111471,504.9020682712988,504.1972492802321,503.68397046275635,jog
7.111853088480801,-1.6412450574926285,-0.7550186862451129,8.233970696794783,-0.4517220912163606,-0.2938201423036753,-0.5553635502456296,558.0112765059434,509.65043972547295,516.6235765856072,jog
7.161936560934891,-1.4054499876427866,0.08578516711511386,9.67369359887079,-0.19734941132388473,-0.6994040433700168,0.02951140544847269,529.4183240901775,598.4186595436573,533.3773447875133,jog
7.212020033388982,0.3739034304873218,0.725437203809427,10.92138625716879,0.38236466980087147,-1.6527034559833882,0.2786130720826937,528.3559277580297,496.26668262478546,445.9469118519176,jog
7.262103505843072,1.891165907377961,1.377024643873993,12.30524318445061,0.5874944703935016,0.7112543796335424,0.052542839270211056,508.51062095159637,423.00969115872005,539.8874853494113,jog
7.312186978297162,1.9913315908664875,1.2232621592107011,11.45805754586641,0.55173224000792,1.462201948142144,-0.35021204882929136,461.7623091241462,520.3202186069318,496.52479872102134,jog
7.362270450751252,1.2168613611651362,0.0684307149787205,9.814430082980834,0.20522473475547073,0.3339998638581486,0.09586756084496652,560.8584593063347,541.9847027646811,453.16146905697235,jog
7.412353923205343,-0.5286408753252282,-0.3221493563770026,8.234216772933577,0.8808654313304767,0.4441307687074871,-1.271793536521547,489.46082441393656,481.1509680179124,542.7676555658697,jog
7.462437395659433,-1.5058306655164637,-1.3558982143999945,7.557032380346018,0.8312978267609769,0.1972487643005072,-0.5955566047608087,530.0847559460806,476.1777389847335,526.6810492827,jog
7.512520868113523,-1.866490922182778,-1.6964413793516346,8.013073865247499,1.3054258912789087,0.717644757665287,0.16272627134868092,570.2572204701237,481.1048444824289,542.1533173239064,jog
7.562604340567613,-1.1292100979542063,0.04626449263703214,10.001041777174864,-0.16790570058833165,0.47880383227755463,-0.7503095080929743,517.9651376896952,552.1370171279484,446.9122414777897,jog
7.612687813021703,0.3900260885552242,0.6499842477527511,11.777417431203649,-1.0263951838857512,-0.13563707875514502,0.790636213475029,545.2818853119621,545.5686758378457,494.0966682916442,jog
7.6627712854757934,1.5079109889449562,1.6916372122928534,12.00228009005631,0.7261654127043334,0.18674503532114128,-0.810125111718054,549.3311491835685,475.1152022146015,511.0837953836555,jog
7.712854757929883,1.8617457402628133,1.4088344244845623,11.769639550956473,0.14931455520996983,1.3998003002329358,0.3824733270531014,416.3902013577573,525.2238125126302,448.5380399869296,jog
7.762938230383973,0.9384657288979877,0.797662026568942,9.798673938719363,-0.6828584363221216,0.8974213722232106,0.24631519573530547,565.3968925114305,540.2854180542132,466.62508249204456,jog
7.813021702838063,-0.5425704897507219,-0.39530292045974186,8.300099470971677,0.297426487132954,-1.0423740558325805,0.026419782647446818,521.9558489474294,423.01682419700415,440.58615441644474,jog
7.863105175292154,-1.7111521696057217,-1.3839688782472717,7.8516080001432185,0.7609972723887077,-0.056986071021627234,-0.07222092478691783,448.54160464488194,540.8826791000993,461.15591694328276,jog
7.913188647746244,-2.1823364474410694,-0.881215450290296,8.53932208776127,-1.2193587873131726,-0.7759169927488578,0.5646529330661786,511.5899090373918,458.52170188592845,514.1383333163749,jog
7.963272120200334,-0.778690195128555,-0.1765395251598489,9.720441156503629,0.03329769879608957,-1.3438929781590543,0.4884915253099048,499.88141947980046,467.2410287228823,428.2923208338322,jog
8.013355592654424,0.3496049299554872,-0.15567918531580938,11.750430793579882,-0.8567819813178232,0.1413814413891631,-0.07438539358986496,467.6334698261064,486.2436975742486,531.7472146803614,jog
8.063439065108515,1.6863444124347826,0.9397962258790153,12.042544487787037,-1.2185123645851559,-0.22278805950693906,0.9267908131083642,535.096539909124,438.3584826474611,474.52649848202793,jog
8.113522537562604,1.830432704910736,0.5650205996863116,11.227712860539654,0.00091876611791762,0.09324273615312591,0.0396139849041777,511.13119876295207,534.050501344985,518.5199020216259,jog
8.163606010016695,1.5778178031661954,0.3108571841879525,9.878571501162211,0.5195768358366887,1.1587213908078169,0.19034581585774543,457.2977671826862,532.15598099031,548.905328275403,jog
8.213689482470786,-0.806571273700428,-0.1736413954727004,8.131282497031767,0.795506241459733,-0.11574668155541602,0.28815739772636534,507.1095584313841,484.90808779917194,470.3426164098502,jog
8.263772954924875,-1.3130967639105293,-1.1341871592169142,7.440335626454083,0.021131369741628908,-0.009144294632212151,0.5418929751690609,497.1507700440205,571.2400834787286,499.1249459582139,jog
8.313856427378965,-1.4515313168929018,-0.6088870796916517,8.734633491648253,0.13161711505889526,1.019416560149262,-0.17185534982676726,473.29245491704813,547.3335382185439,568.3864316551068,jog
8.363939899833055,-0.7677944299264167,-0.22860666727040946,10.138228568578683,-0.06417151503780796,0.7318187013006202,-0.7277679499205635,485.21797673039777,490.5160272047443,488.63259126036036,jog
8.414023372287145,0.4672936815188536,0.4379271835415739,11.337316692514541,0.17724561110146564,0.8097116622095398,0.009688028557153854,563.1696583632415,388.3566772132102,539.4802884019967,jog
8.464106844741236,1.5255258995736873,1.5480441980828015,12.200204237754809,-0.5580716547023534,0.6630052180659357,-0.8126025177168358,514.4665773800958,541.7113550026213,558.3183532106559,jog
8.514190317195325,1.7797476491260897,1.087475304994808,11.053365509120761,0.3069198972415515,-0.11966140873788536,0.8527776978220568,476.052893713174,460.2240231346875,554.0364601250442,jog
8.564273789649416,0.8874893510047336,0.01880985036488203,9.394410173958857,-0.043330233336086744,-1.3715133585428199,0.2993223986720722,529.5189542442848,507.0454579716334,474.74585030908014,jog
8.614357262103505,-0.6836072583494854,-0.3232572933553626,8.225725095975253,0.01723665681427544,-0.14742047424120552,-0.4909780912988387,556.0534450681371,400.9016536411669,553.2165967901904,jog
8.664440734557596,-1.6643563551577585,-1.218096348297044,7.192160266981058,-0.160762312499098,-0.7407502608340909,0.22995231559951454,531.1449411415433,492.13253824063895,540.6963343119222,jog
8.714524207011687,-1.6111656458362145,-0.8810107835550525,7.878147649939591,1.2352206336565894,-0.047926099370347267,-0.7589006568383544,448.97485356193806,519.7970900697013,547.3988959695836,jog
8.764607679465776,-0.6467201135893373,-0.47711450483819445,9.463024932174628,0.5032833417209079,-1.3061001475143479,-0.32304365536480684,478.41396835410256,521.2184508750772,537.4038630766406,jog
8.814691151919867,0.3391390647487385,0.926544489514902,11.320336529827951,-0.13753937690885862,0.035758457286411686,-1.083732916230839,497.3134432848281,497.9674023266397,490.40104723232895,jog
8.864774624373958,1.6393871141780076,1.4747804907998376,12.080591239466438,-0.7648868298332034,1.2373340183544472,-0.1018739667375599,516.1188940429411,479.2661318590774,500.5516119947486,jog
8.914858096828047,1.8153798626778714,1.2559964572097606,11.272100264167486,-0.5727572598125396,-0.26685850637005876,-0.014329502277658506,519.5748116972846,532.2526844743976,505.79934883211035,jog
8.964941569282137,1.1433270461626561,0.5153218489454428,9.390748687582144,0.5920348934508995,-0.8841243612699516,-1.0259607869963883,510.77202106359573,521.674094089899,546.668467815361,jog
9.015025041736227,-0.5127685239547575,-0.3234923419795909,8.356555673594842,0.2716876664383953,0.439860824809094,-0.19166139871191656,461.7396215820493,485.9293147999582,470.3104733731169,jog
9.065108514190317,-1.324842742248353,-1.1934975111400592,7.52057761678796,0.06067028891416658,0.9038286825054064,-0.44057745310293006,447.42981672875993,469.03647250325196,464.35180703478704,jog
9.115191986644408,-1.4760612827926596,-1.2287969641379795,8.697481546403846,-0.5392642459072403,-1.0056387939014089,-0.42264765237836305,535.8085222810389,507.6460957055864,464.9004022250665,jog
9.165275459098497,-0.4211484005529069,-0.17062714348487473,10.031121057938059,1.2483020335505841,0.31945189562987564,0.9754752088884552,461.8137383148756,515.9328297269863,554.8163327421504,jog
9.215358931552588,0.435050912574718,0.5740826030086186,11.394695897325024,0.2778273742328297,-0.07724546983997982,0.11503454809545519,516.0541091919013,540.6475397725135,416.8713180809961,jog
9.265442404006677,1.2508905879001782,1.125423533208193,12.290800120628235,0.1819090082168762,-0.5002749242179662,0.8890022459617449,518.5608048706084,414.5764541574823,527.9419819734837,jog
9.315525876460768,2.2246212699602514,1.1503687499550685,10.962537515824918,0.818405351727191,0.5443674674120267,0.35189013165195476,486.8232407785896,510.34448460142164,519.6844924342918,jog
9.365609348914859,0.8137168582431513,0.4823644536331302,9.440062817810533,-1.0413945026067029,0.28823892175582594,-0.4200510517827295,451.90890794224174,485.372810597147,509.0602943923366,jog
9.415692821368948,-0.477219056637412,-0.7188039415427234,8.252544908721823,0.5166901867412528,1.2651797314209012,-1.1710066596887272,441.92406060426146,491.90520416219954,623.3952992957417,jog
9.465776293823039,-1.6799416843169086,-0.8486629685532261,8.370359219420495,0.23928979204843345,0.7660808205989064,0.2222644557219362,503.42400803732164,496.7598680225627,525.4642728558318,jog
9.51585976627713,-1.7916200091085903,-0.8574063735532604,8.094920619427725,1.1098461824476642,-0.6384677564133394,-0.7313839125260834,496.9383554666178,546.1246449510134,517.5478276416299,jog
9.565943238731219,-0.7468843563014685,-0.27192900568186484,9.845762576957691,-0.949714629966591,0.6797439564966958,-1.0476167331542614,458.5999985097878,507.48284781694275,546.1176095505755,jog
9.61602671118531,0.5082748185990631,0.37131768380744556,11.50186150349172,-0.1602949653425217,-0.57009691258226,-0.16440335976264345,555.5443351793762,464.9404055854565,533.542551282706,jog
9.666110183639399,1.3874209232673742,1.111278180904699,12.233128295138286,0.5686851145820655,0.19813166889353215,1.2068560880787893,514.672511213093,477.8748053476637,443.0903918956614,jog
9.71619365609349,1.477679224640252,0.8700391663652962,11.249399217836084,0.2064093993603838,0.2040626192916238,0.4605048188222327,519.3861908023302,526.5135616409026,491.45240151556817,jog
9.76627712854758,1.680650868615074,0.6411211713975236,9.733052829059929,-0.2721687685582233,0.26390366609102966,-1.3171398583318852,468.25310497563265,447.28314901907373,502.13558778671523,jog
9.81636060100167,-0.5220254301398513,-0.3343269216797485,7.904854667898269,0.4102926378001263,-0.6633671234638631,0.4221361481826544,501.376868336572,425.7526435000468,475.5364230925225,jog
9.86644407345576,-1.6141359502315058,-1.2191390461470126,7.334913515540865,-0.5244533359680629,1.3446555504531978,-0.34711831940607263,497.10619224470537,545.9834034010114,438.3860185725479,jog
9.91652754590985,-1.9443414395457035,-0.9326024325222149,8.291486481173692,0.36613653676058316,-0.7369111840082232,-0.5066921092550069,478.9297007797816,553.124682966315,514.6031512121837,jog
9.96661101836394,-1.1624970855305656,-0.5079841005656949,9.792208633179266,-0.025798377552006476,0.9520730600689248,-0.2417747804015687,488.20091561610127,462.885020420543,566.8539048678324,jog
10.01669449081803,0.3150406647180904,0.5917932691457084,11.2346352731577,0.06371188453953595,0.19653503902194377,-0.3741162803404669,529.2205252489243,505.33479049584616,502.7098761262357,jog
10.06677796327212,1.4174798827304058,1.2691902989110944,11.587295299755597,0.07538812717207233,0.6276912570034744,1.0332252272171154,508.72197860687584,558.7296507312835,409.69902516353216,jog
10.11686143572621,1.6565814019133527,0.9050295163693982,11.380844803366749,1.8198075112834697,-0.06401270785582736,-0.6824713523890581,469.3837211480568,567.3364016085725,544.7891893038504,jog
10.1669449081803,0.7526851346122265,-0.05702492954644023,9.909664540402128,0.9392698484735765,-1.076616729648516,-0.030044956590844468,420.45964458935,517.5837217934654,500.7797624118774,jog
10.21702838063439,-0.4222545594705901,-0.8167574147736043,8.02777253076239,-0.4764166780043278,-0.5179863212253031,0.03566629139545728,525.1097499346175,464.79358309321213,529.4546191315873,jog
10.267111853088482,-1.683560924692303,-1.160801283656541,7.205442251372346,1.24363385326738,0.1489975469733962,0.46794677186015293,490.2033140617417,435.8469823190125,486.87219490846314,jog
10.31719532554257,-1.6524991267697846,-1.3503414041255117,8.319232805451056,-0.7442162568560546,1.2821113469518508,0.25144618328233004,498.2506288806367,526.7873013670604,561.1279652234253,jog
10.367278797996661,-0.8072628626372056,0.007755268490557354,9.956490797704166,0.28096015139521374,-0.18797450841430072,0.07709214747403366,516.2348050531118,457.9307154872998,552.357324670708,jog
10.417362270450752,0.5092665000659526,1.0035539925493215,11.57511208572136,-0.2049039861463949,-0.017481078467468936,-0.4057676651815901,511.41781254490667,443.62466077658036,473.7346128926861,jog
10.467445742904841,1.521168729737684,1.3977055910305771,12.033023426593223,-1.3277063944375986,-1.144702604790821,0.28649038168220026,497.0889615962213,451.2681177585863,493.7287935879282,jog
10.517529215358932,1.6250432812651532,1.0320318565569264,10.833039819555689,-0.43338493762054514,0.707919076458983,-0.38426250840000153,455.9535610521149,429.9127641945742,429.31438038336967,jog
10.567612687813021,1.0019735630803557,0.3996115858711996,9.594299585084528,1.4374195848157465,-1.4360116656257607,0.6072839955158242,509.77792081923565,512.1952568326225,464.16006027851904,jog
10.617696160267112,-0.6118877056855571,-0.33999612373154536,8.45120051969268,0.1823215626004361,0.24839113931503629,0.3929124572313371,510.77180659730635,509.4131322699416,478.43338717483573,jog
10.667779632721203,-1.2726503063888064,-0.7456148042828574,7.708637071359192,0.14898837663426984,0.3288398267286505,0.09976818867851622,506.28818093842943,452.3070110958331,491.8704869677625,jog
10.717863105175292,-1.309330691385229,-1.006285893377936,8.104496421846688,0.7714015628041373,1.35477218224088,0.14911951990429625,490.4324276451412,463.97800345115894,448.7948454645591,jog
10.767946577629383,-0.9475333805702506,-0.2734799420239376,10.090297405290096,0.5896653962249991,-1.2408941537311082,1.508685605108087,488.4493293591616,525.1368231689225,503.7726288993221,jog
10.818030050083472,0.7824397880231235,0.8860979786000185,11.56110043081349,1.1553097576197457,0.8104035947733558,-1.7123947110677389,498.1855919105781,494.42411636812864,504.1606346073678,jog
10.868113522537563,1.606829694281112,0.908883641898159,11.979958196777126,0.4166192803684623,1.652886595859758,-0.20404685926876506,518.9629947274244,562.748559413837,477.73073839661424,jog
10.918196994991654,1.5733406738608964,1.184237201895832,11.371105920250974,-1.127317518150118,-0.5770169122417361,0.29493161026083986,508.1367191586517,487.33669525807363,504.1885850440467,jog
10.968280467445743,1.0073877178260364,0.16308338753829665,9.345355001829715,0.4910181762519253,-0.8159450688313757,1.0777159364447573,434.75584770528354,447.4019601436619,463.52173512214506,jog
11.018363939899833,-0.9197832984246699,-0.7076917380379961,8.09054528200143,-0.37540010742823837,-0.939713422195699,-1.0853015674848727,512.3365083652,521.0116151679621,501.4743800813767,jog
11.068447412353924,-1.596565545497128,-1.3879669577109353,7.010394849701178,-0.3605518368275866,0.6787525905368275,1.5921221727016408,474.47133962276376,435.16734650973194,551.7624900375728,jog
11.118530884808013,-1.9056310499940696,-1.1932115712689835,8.049132462059278,0.7491332466863284,-0.5680328703222286,-0.8438137594219707,472.29773380112846,486.60133125669427,470.1318619886839,jog
11.168614357262104,-0.7311285095592526,-0.25093880473789065,10.27971899849478,0.48048185494324785,-0.23853177592546637,0.9099297934336815,561.0487611690447,544.7798532670095,533.0302979564976,jog
11.218697829716193,0.10667516280167745,0.2617300766720197,11.61751107930382,0.2272881763607494,-1.1217135518998986,-1.0997292814528423,474.74667573597605,506.35886262064867,521.1906128561711,jog
11.268781302170284,1.5785766527300644,0.6651112294486119,11.826381582122078,0.2498097337152484,0.4827838553527374,-0.43628842008630353,497.64702594010237,556.7722666089857,516.181492912409,jog
11.318864774624375,1.895607774152078,1.1993063708240892,10.933333015373101,-1.7344172292173623,-0.33428996577936404,-0.414723140623131,465.8744926925843,499.8911358869594,466.0023751276466,jog
11.368948247078464,0.9421974284852087,0.5437822908056109,9.700014905253045,0.15011564390116597,-0.6367922522311386,-0.9819666004414983,507.17612124203873,526.7891748063612,415.7777901855934,jog
11.419031719532555,-0.31647982992102064,-1.0989115979305648,7.917235538485321,0.3960037482180294,0.6383667187237598,-1.2523821798777042,458.9787436485977,555.7625400337091,507.01207438085,jog
11.469115191986644,-1.690752070576658,-1.4197225097085064,7.452184492821285,-0.4448620242676749,-0.9286885668263126,-1.0185658564891935,420.82541441791216,499.95003279218065,461.23494439295513,jog
11.519198664440735,-2.043906946449375,-1.1946699210659701,8.701306930752557,-0.20215524625781567,-1.016905536453572,0.33901530796801893,415.98427865954756,465.201358126385,523.7768133206995,jog
11.569282136894826,-0.9417357985795437,-0.4739609292770966,10.061738510502718,0.4210598446919817,0.06467232582726375,-0.8366732614416925,514.9316217915881,419.6959289447959,456.7406034225387,jog
11.619365609348915,0.3769995462308847,0.8962112029669491,11.31150956864829,-0.13351873758231753,-1.2437639812183507,0.11939820059445345,491.8381235987329,479.1298077966914,486.7978823670412,jog
11.669449081803005,1.6077952220110945,1.1048128147885212,11.619774363287014,1.0538889254323491,0.3928285686119767,-0.39180965783084526,563.9860929984729,489.0753970732498,548.5419626231024,jog
11.719532554257096,1.5900911988778013,1.2477261895342084,10.986891187281834,-1.0459393483809327,0.5235376577960791,0.5648582070287219,460.0019633238659,541.4347490115663,501.18134106903256,jog
11.769616026711185,1.1604461419499394,-0.05801581702473449,9.594270936003857,0.3440246300087041,0.16723735947591375,-0.26547490630915294,573.1503894883546,546.6602920146313,536.0452668024897,jog
11.819699499165276,-0.48416443480173155,-0.3405052818637641,8.17822385016364,0.988238699363347,1.544935571634577,-1.4282005915885012,605.6224315609402,522.6611969083339,523.7537631216712,jog
11.869782971619365,-1.152829508780403,-1.5454389948413023,7.6346095775002025,0.4559503585532084,-0.07002019199095667,-0.6545674815646054,487.5700742520779,545.2134814220917,467.8434088911412,jog
11.919866444073456,-1.568185198856521,-0.679639980384515,8.553142786339281,-0.1043387347209213,-0.4331144840747898,-0.29406094195553434,489.18492604630376,470.53855788402427,554.4865920515502,jog
11.969949916527547,-0.5015677805365042,0.007621017820507725,10.223220431894775,0.4622441551878637,-1.3192023430567106,-0.797201212202303,514.4410512940674,481.88959447265233,494.22339014433646,jog
12.020033388981636,0.24559188085865102,0.8201257045433217,11.535542083044914,-0.6153746534950196,0.5428218151517309,0.6184292398592082,531.958821205102,502.12485733200697,474.90652113491785,jog
12.070116861435727,1.583181028925164,1.0407415125530466,12.168251442735361,1.2650654589248835,0.7509914329744825,0.38989373411770306,453.15436039564014,460.94643682449583,490.19926064328774,jog
12.120200333889816,1.4542758216368847,0.7273012320161654,10.744048465978638,-1.269308498961661,0.8795350939266867,-0.2617348264574935,438.20589213243534,456.6679009475802,473.3309515467379,jog
12.170283806343907,1.1688476543891266,0.45611918124552553,9.608949658401091,-0.10499140127968788,-0.6679749568287568,-0.5282846629585365,467.76734851277234,489.1045533957239,493.4291408123064,jog
12.220367278797998,-0.48754713580383147,-0.3474053553657479,8.450125223907282,0.16181726910522773,0.28479666750669574,-0.9074859148262769,556.2507386536932,508.7908855689708,489.3679368406574,jog
12.270450751252087,-0.9650948126884484,-0.9942006142245621,7.666969083237255,-0.08243169161629425,0.769854960375294,-0.0789208844586125,500.00205949536166,503.1461321039791,520.0458050071896,jog
12.320534223706177,-1.1742910169999727,-0.6359424114669148,8.473300999995464,-0.48488446387199197,-1.1452950368548254,-0.7365002706755565,511.89958489684665,454.6365430252583,566.0828456751466,jog
12.370617696160267,-0.8313843734776456,-0.5251534608572648,10.079100470650273,0.14712283257470538,-1.6118624547772773,-0.15264620127088793,474.63778516040514,512.9894471889943,471.2872498332897,jog
12.420701168614357,0.5733286580541679,0.7702189307123153,12.058990175337229,0.4680751361817391,1.1055330173407443,0.07931407259241643,470.0270800966249,442.3485347662374,459.9764772897045,jog
12.470784641068448,1.624289559522772,1.3071731650245353,11.651320076337115,0.31154365378915105,-0.35322364998059996,-0.09592031473659798,503.48684513897183,498.637688096242,489.80296669136203,jog
12.520868113522537,1.074223627242381,0.7490752518033355,11.309169396960176,0.05800075060685176,-0.8076000187899863,-0.7365752150147763,443.25485601452993,591.7801199914047,503.6339895638776,jog
12.570951585976628,0.7601940141436653,0.19866608625258897,9.791894499923345,0.06494910756740607,-0.6155640674915551,0.4062928435534575,466.2454063854052,514.2668465562074,489.0983774686892,jog
12.621035058430719,-0.2771709158402425,-0.6827426567094135,8.042657584802509,-0.20480739110205304,0.7024654948309824,-0.35879659557140803,492.24165696953327,393.70139572394675,544.0875611552536,jog
12.671118530884808,-1.6507911793022565,-1.2595406642395703,7.226416680653762,-0.6308542567660832,0.7432266642455437,-0.6344321064687406,440.95437925357527,599.4557929462742,507.2813725850316,jog
12.721202003338899,-1.5388442261114956,-1.328941690542702,8.244194181610789,-0.4150375807793632,0.6517631133650038,-0.2989165499378272,511.67976198347634,500.838902863832,496.3204483298996,jog
12.771285475792988,-0.7916102887235655,-0.2328492234566642,9.633831871817451,-0.09513439549635191,0.5994236836825759,-0.37618565203538845,483.4249245535144,511.8283945910635,479.2559774642031,jog
12.821368948247079,0.445516294332226,0.9248790079826184,11.480214613157033,0.2958067645787043,0.8044231782368023,0.4824609759501609,550.2890813717434,503.88218794658485,536.8641038297551,jog
12.87145242070117,1.7978886690062617,0.9642971602181769,11.991011127589756,-0.6254322528928462,0.32691343899979447,0.2883765293253889,507.98994687310534,486.9471269398094,461.61256608635654,jog
12.921535893155259,1.6748996576882693,0.9720749547048124,11.517304111664918,-1.4891485522468053,0.056865640833782156,-0.7305894504154178,455.62986357632417,593.1088928283917,498.6170045216887,jog
12.97161936560935,0.5893594837626003,0.03783710484046032,9.778227545735918,-0.5987675599522463,-0.27624000918904024,-1.0316043101402916,526.8360094994257,494.0005124203414,504.41512789578275,jog
13.021702838063439,-0.6826744856202391,-0.7125950520222817,8.24436644378301,-0.25892609993413457,-0.021125476427200897,-0.351881136051599,473.56530036439784,488.583372642218,508.36787151489335,jog
13.07178631051753,-1.9630678854939263,-1.0813551449775278,7.836339472506065,0.9314412402371745,-0.15346525736527641,-0.8876300944167225,524.458945569273,473.09609976844524,558.249903968412,jog
13.12186978297162,-1.1159065635975176,-0.8542989489146398,7.8850705199775915,1.1270164573319879,-1.475403332079564,1.2908954301051736,494.01462709570416,453.00531690785056,457.22467790320127,jog
13.17195325542571,-0.7534032239774541,-0.302373292852407,10.270268316512853,-0.3485096453466418,-0.12324654157375442,0.20722646433734518,593.0192756039546,468.6599162683993,382.9295105780748,jog
13.2220367278798,0.7753004436475276,0.7633380086766282,11.921658066700838,0.1376271399602606,-0.6094773707447253,-1.0206463420426934,536.7534441785701,562.9564072275552,433.8892161474602,jog
13.272120200333891,1.617624959414474,1.569884761727387,11.801263067285769,0.23074722698884562,-0.03914313188876695,-0.6842947164759142,500.743145206454,471.2564913078824,548.5870513891624,jog
13.32220367278798,1.357017519410612,1.2842883904972482,10.748983447486307,0.01832339691255228,-0.13227474540245432,0.6572059508011213,502.5354708000059,491.79093588496687,490.9735355806908,jog
13.37228714524207,0.5512269495843172,0.004142880939411148,8.842758283340427,-0.7462464138036643,-0.027705988221176616,-0.07295291615786009,375.58888510323015,527.4792953412749,393.80648555681046,jog
13.42237061769616,-0.6249961904278474,-0.9885125287471233,7.990002338895418,0.8044420649015329,1.8011445974326663,-0.09692783052987546,505.4414306658897,577.5511283518396,512.3232609291722,jog
13.47245409015025,-1.444453793574987,-0.856246138550288,7.375784236644526,0.20353834822171013,0.48455340998344354,0.39011602204601714,491.23597025022065,466.99181659518155,531.3402900330351,jog
13.522537562604342,-1.995638492861694,-0.9753005042548337,8.312979397031722,-0.1745624527836096,-0.32480411930571296,-0.4469529583978285,529.6998456768692,478.7083327665638,516.2653614107127,jog
13.57262103505843,-1.11943457523272,0.12918473862255792,10.093193921979964,-0.11810834668908758,0.3325899711495822,0.013170577537406677,497.8745936065737,575.3306732638418,478.31852506632913,jog
13.622704507512521,0.6170550044116241,0.5514131638910285,12.132549258421509,1.3183228467001913,-1.3557019214593753,0.5410041658427945,478.1403187380128,475.5525170949374,454.7224877053487,jog
13.67278797996661,1.809802100859559,1.2069981782081123,12.134738846453267,-0.007419861282046074,-0.016898821432990978,0.6961249126717592,523.2517265147314,504.96896955343163,540.402261489411,jog
13.722871452420701,1.60263807672629,1.162385868132823,10.938660430759466,0.6288121059817239,0.6618317701328074,1.040122499299486,474.30983625733614,456.73571938347976,443.7252858080497,jog
13.772954924874792,0.7092920846290404,0.11717689667985048,9.310166854666562,0.1153424627342224,0.6875349078407511,-0.2431352263634065,450.0922800599287,472.48859274018105,595.8417621807968,jog
13.823038397328881,-0.8150226237379156,-1.1660646522486044,8.314042731678992,-0.3758734661831417,0.23412745378613617,-0.2142723958119437,512.5455847610237,512.0788742400823,487.85699220653527,jog
13.873121869782972,-1.8061264977743372,-1.2400356175713805,7.642733756171843,-0.6149694821399355,-0.7939023276204212,0.6068319660087641,570.8658993019272,500.00861653901285,564.5461855754229,jog
13.923205342237061,-1.358337751766138,-1.3117919681565888,8.412451675446285,-0.27539353693969093,-1.1717155101376302,0.14196242951065796,508.4212852273612,473.4879002511161,455.4362310489868,jog
13.973288814691152,-0.22428453995612108,-0.24020567220297057,10.042883025324295,-0.569580562129225,-0.7215096037002856,0.38090443638375926,449.1085377071925,493.1006281270891,550.0501523642139,jog
14.023372287145243,0.7022371137205806,0.8414798451752028,11.264799586218883,-0.23762473980552104,0.42192503262719583,-0.9213372461006163,611.9272799928126,450.4826667253891,491.6906703369302,jog
14.073455759599332,1.6770672520506151,1.3334095005259052,11.571818960194074,0.081283004406815,-0.8353035966092942,0.4338770426564679,571.1614127572547,489.02563776424114,551.8064538243366,jog
14.123539232053423,1.23592972544999,1.1123111760732685,10.887590605724675,-0.19368478819687282,-0.5179612407555172,-0.5095940020006275,550.4652274450876,482.17998108908756,480.8754222209865,jog
14.173622704507514,1.1571993921086208,-0.12876919148420912,9.482395492325299,1.4078997849428765,0.16320236051165496,-0.15605297423415912,427.70260585133263,574.145804216311,505.1190977786283,jog
14.223706176961603,-0.6523735517550155,-1.1335254739102156,7.87143588753673,0.21761363397386835,-0.8050199413004868,-1.8212933439660548,563.2744059167039,486.1765517396112,519.6333713083674,jog
14.273789649415694,-1.2789930082829148,-1.4085392871137168,7.518810968973597,-0.15753121240166545,-1.5963437065613895,0.23819928299817195,487.0383409143985,495.1193945023211,530.7925697480631,jog
14.323873121869783,-1.7167709085481282,-0.966367680139615,8.593549910824969,-0.7035241324723481,1.5609446779785767,-0.05813675440137707,454.5613762428176,506.830200716038,398.0797650573518,jog
14.373956594323873,-0.8026477903586444,0.25118864072381686,10.086878546689059,-0.7980628444074209,0.14082208353467496,0.24189095348205492,454.92338824435535,460.5548225506875,471.5587382564825,jog
14.424040066777964,0.5213709940726117,1.1900381305634835,11.593490862072128,-0.07349942618312601,0.12994133579131284,-0.015176043504784796,417.34174102796317,427.5984198163664,575.3021540277654,jog
14.474123539232053,1.6887882513591033,0.8272680065409397,11.965627397652172,1.5339347882260546,0.5666973082728435,0.19253538249420413,510.2424128203996,530.760897639436,473.58147844227506,jog
14.524207011686144,1.4424730023134174,1.3184881649993452,11.124945138857889,-1.1166881681614187,0.619248517901985,-0.053175166668528714,576.5682600120098,527.4569866208851,505.02534579846906,jog
14.574290484140233,0.6999656270820926,0.22583766036857683,9.665641363294478,-1.351753546551213,-0.4703815777309883,-0.717234453892588,508.14091715059516,415.8118521580551,449.2477535137486,jog
14.624373956594324,-0.6033762475909027,-0.5042124184869223,8.0939815320186,0.3146110994532599,-0.35415864402739483,1.5490400998981841,535.5570326046897,494.8243845612708,527.0130202884689,jog
14.674457429048415,-1.3820578283805136,-1.3310026568679754,7.834515467257682,-0.26709554526847484,0.8880042436913,0.7354236097011917,503.69945801700914,542.7908183781826,496.0460308793906,jog
14.724540901502504,-1.8367805528177665,-0.7943513270520515,8.78732767268723,-0.1381275173392113,1.3701875820641816,0.30165961909573474,464.1587658311071,429.21695059423007,501.88620232903065,jog
14.774624373956595,-0.955986886561969,-0.0528216415360193,10.139014645642236,0.14200654557017534,-0.22499455890937364,-0.4658433897826278,488.22879957252053,454.7509934135899,505.72826582586043,jog
14.824707846410686,0.8288214635059119,0.8694618665730864,12.174641825556028,-1.713923989730022,-0.616147540920947,0.042744037074666626,472.6617297763092,464.11623827956134,475.1200709894517,jog
14.874791318864775,1.8109309974480716,1.0383380489527037,12.187364938417105,-0.2792490867980945,1.4553882973571548,-0.2175103907516126,486.9593394607522,480.0939924502935,483.3796352838963,jog
14.924874791318866,1.6233178866686455,1.2897197931213407,11.175920604475701,0.7141129899472084,-0.6196193136887123,-0.5248187044568697,453.4969512919357,535.5767962588868,481.8737674187452,jog
14.974958263772955,0.7942872692456279,-0.19068582859353206,8.934412593738292,-0.24515105910438628,-2.792483712472241,-0.7890450584814067,468.0386436678089,391.7861540505468,537.3517332369414,jog
15.025041736227045,-1.078697684596567,-1.1777028719891895,7.594329263186441,0.1536373973609576,-0.6289438461642107,-0.07260279799246065,424.4184315271328,559.3296473676482,475.7694111866679,jog
15.075125208681136,-1.4706340183414486,-0.5158940473183915,7.60831654185204,0.2080233486359978,0.7803042186182106,0.0500983551067255,498.3089000404714,486.74256534556037,499.055402600978,jog
15.125208681135225,-1.589720714070495,-1.035835845322339,8.754323675298044,1.086249071336391,-0.2303711485565483,0.3102861102783549,457.1780606104457,453.0589832492707,480.03122147235626,jog
15.175292153589316,-0.7914171757376889,0.28821029171314516,9.956287640155573,0.29916343910273785,0.018420338044796758,-0.026042807350290176,431.95714471360924,435.2976177934531,514.9269030112955,jog
15.225375626043405,0.3349203707564706,0.8645883770999718,11.5529733603019,0.6374094105429964,0.7785381062944782,0.3912396345856647,488.7316384542387,527.045156414225,433.1891723252071,jog
15.275459098497496,1.8217434938143025,0.7230491202277378,12.055891172965275,0.6979962914603903,0.04134871948961755,0.061838934599505464,500.9765763992105,521.5919990323057,561.3191104922139,jog
15.325542570951587,1.8351464952247125,0.6723810053589003,11.094489648968164,0.22715768449207593,-1.044656235485915,0.21323171888654352,477.2752345077497,497.2440719014406,516.8725055129453,jog
15.375626043405676,0.7428959122619931,0.12280738995410917,9.09765403703838,-0.35723359610473515,0.38279169760547443,-0.856976869174887,478.9106268667167,469.69046345175127,496.13043200250354,jog
15.425709515859767,-1.0699911152050219,-0.5581659145253406,8.599577750004793,-0.7496056135325952,0.1528082404409235,1.1286377111382588,540.2376577035747,460.6616108669621,506.279788391724,jog
15.475792988313858,-1.4110442824332512,-1.3049378409731212,7.675537760633497,-0.24398810659148626,0.2768867930998839,0.7641906179902378,503.9469664431728,492.56025089556385,518.0424238832737,jog
15.525876460767947,-1.5086557543185535,-1.0982167995766527,8.60233392072027,0.24793008307172795,-0.6230054072208179,-0.3575389347700881,492.320245082211,531.0925765747539,449.7083443038813,jog
15.575959933222038,-0.3070230541546113,-0.13884706959228982,10.427768874646915,0.5648407183492274,-0.6536380538770574,-0.39509576626096243,476.2306875192822,512.1481861438687,545.4660249823219,jog
15.626043405676127,0.9960128173035877,0.5022769914734043,11.693796722319453,0.4413947941274736,0.10439880136145166,1.7469122692407062,452.988082051261,450.09293092463,492.5806792327136,jog
15.676126878130217,1.5410129371728056,0.8902930045813706,11.686831659555114,0.576840268160919,0.15719655520428943,0.5741927909914759,542.1146727134434,465.72284045702787,453.6909964070172,jog
15.726210350584308,1.540212923195088,0.9437209122756776,11.10985682920712,-0.5082944141936409,-0.32317013968612984,-0.8373992165748892,448.15137987826745,508.7556728359943,489.1459122456125,jog
15.776293823038397,0.4269737505664651,0.2877955053018425,9.403965037041973,0.8949123917279086,0.1817270908274963,-0.07404675409314875,495.1312916540674,509.23833812083933,500.8561038353679,jog
15.826377295492488,-0.7797629523835632,-1.0171614432128728,7.648598108554948,-0.8401672035287436,0.8325671016368626,-0.3755541546445409,514.6722570518017,454.38055593678723,503.7532938241758,jog
15.876460767946577,-1.512740458892649,-0.8612499787561241,7.468686068473368,0.06837763388702014,-0.13837193980472284,0.1497290652646199,468.26371210286334,446.05016482404295,451.1994096326488,jog
15.926544240400668,-1.5992674944610772,-0.5137729603379524,8.45567184303162,-0.4039697125800725,-1.177345300032785,-0.12312702956932209,494.51514583802964,550.8240145636747,515.188775107993,jog
15.976627712854759,-0.8997761914785245,-0.210196816592444,10.613085843106097,-0.14537622296281885,-0.6735810401760752,0.06693675915761012,454.3526942353892,533.7457327449055,488.3835980738077,jog
16.026711185308848,0.5308188574246782,0.8902300466762425,11.645680285261705,-0.7377066332230935,-0.643902580987473,1.4931019886784094,492.7071829907966,476.6768182245505,462.5090810473994,jog
16.07679465776294,1.9563055516255452,1.0889703870567908,11.90735466910126,0.41053460219440696,-0.7120042068631031,0.5560451254809003,517.003411383012,569.5968342699157,496.9493447440985,jog
16.12687813021703,1.4649985588948382,1.1005599871933454,11.077626619215014,0.05272733427515874,0.5448020928768134,-0.47997743160900275,558.5834827545841,492.0074177604749,533.6173732652978,jog
16.17696160267112,1.1105530512889241,0.4230297213464982,9.046833737035216,-0.01459216987548454,-0.18283925573509277,0.3797805194776365,504.42608210978875,494.65989244987395,421.1201308656094,jog
16.227045075125208,-0.964413177790775,-0.5665670261786446,7.90971950412881,0.7720110409644009,0.29473107943710336,1.1620946815302762,534.4828777285297,438.5991362912333,537.2806122096787,jog
16.2771285475793,-1.8270402910224108,-1.3965218517080693,7.975431994538394,-0.2329281285906349,-1.0649020520944559,0.8266821917408979,469.93690804331027,491.8089296492196,473.8032990690666,jog
16.32721202003339,-1.749117650872157,-1.234961448969093,9.189120239618804,0.23596147589946667,0.6854401429023332,0.8218038184889452,465.3772318883842,477.8517854649921,465.3084797395263,jog
16.37729549248748,-0.515614636084808,-0.423206848007292,10.255277729518154,-0.9673753900472555,0.8449727635353778,0.3969396399314708,546.3989450144763,575.9836388314162,549.4932314939273,jog
16.42737896494157,0.7241962723086204,0.9570422467694217,11.681026921001424,0.584524200257509,0.5305545079134363,0.5108900391795066,426.2793620395484,479.58553668988986,503.0596676895415,jog
16.47746243739566,2.1571543140735145,0.9680249605269962,12.08996440562347,-1.2219860809377856,-0.884622607509525,0.07272609904273046,435.36308449768035,562.059569890262,512.0562748600784,jog
16.52754590984975,1.7655443035935208,1.1075295029661063,10.791198187149885,-0.25147696207522974,0.5249760082295881,-0.029159159472582772,471.48517188410267,501.40833090048125,468.99547039640635,jog
16.57762938230384,0.3364136570134046,0.2635826189825287,9.430629522242109,0.12475181507717746,-0.9648367649869508,0.35451330045698015,543.2562384527737,471.6536955258121,533.3353337373226,jog
16.62771285475793,-0.8186959776944082,-0.5296112485131899,8.079312234590663,0.8046925873046968,-0.07102074345066911,-0.08033472948706366,479.07096140199025,432.43682289937146,478.42956680516687,jog
16.67779632721202,-1.5909368468366634,-1.5172869204804553,7.358770098896979,0.23594115425662382,0.31527051941311257,0.28985043417652195,528.0122735320159,482.3739027265282,417.42463831387846,jog
16.72787979966611,-1.7698983060737985,-1.1651700853533593,8.581512891143838,0.6827963887666167,0.1830335492684598,-0.27944195895544227,610.4971029697576,546.4155377587152,505.6388776694352,jog
16.7779632721202,-0.41349578042296575,0.13683715714350067,10.512776780691055,-0.531182133198665,0.47202770554078277,-0.19931288134990452,512.870206706713,500.8591376019837,461.9879902088953,jog
16.82804674457429,0.47625400816305224,0.8475004773584682,11.438573752898577,0.6784014175765078,-0.17322638343768196,0.13501582555011446,479.0136024784752,455.16472674669643,537.3044512750376,jog
16.87813021702838,1.3353677142331346,1.5797304227977218,11.555109668493625,-1.6342300668159597,0.2283019590175852,0.84265230166581,568.0137857029189,510.91998876612627,541.3335276725059,jog
16.928213689482472,1.713290319000737,0.7883458187240902,10.854047506332059,0.12409310932545052,-0.7866017982313469,0.13961560833304001,485.4004663143396,488.54201190341763,539.4448500297074,jog
16.97829716193656,0.4735777915945189,-0.4349616114775435,9.373760084159922,0.6028429141497936,0.27773275757389926,-0.8047185197474995,509.01398299227657,442.5395627895231,536.7319992118946,jog
17.02838063439065,-0.8707979481776942,-0.7121120843052273,7.738928253495815,-0.38993282647990873,0.3750437472610838,0.4196099955881224,557.751435667398,478.40930861591863,492.63325058374306,jog
17.07846410684474,-1.7905066903659475,-1.1314191490334544,7.6072581071154195,-0.9833669715089095,0.5320960477401583,-0.18250855726087425,517.5630875139076,524.0858552925656,497.81428160880307,jog
17.128547579298832,-1.630638640108438,-1.190272948127469,8.659857744434301,0.06131360503042805,-0.4543553374634704,-0.7813593118704585,445.46562188978777,531.0672456728144,512.9509755559917,jog
17.178631051752923,-0.7016871634093821,-0.21560262744430286,10.576073247968226,-1.0656858825623376,0.2558073909977608,-0.2675696325289917,480.4989276451427,543.3230869438481,498.5105670355252,jog
17.22871452420701,0.9243238034789497,0.6857210998183285,11.445459639379543,-0.5148114572844569,-0.499249072371614,-0.0341520449358619,499.311856210606,540.8981096627971,514.8834295954306,jog
17.2787979966611,1.9957548506322986,1.3432791389245933,11.849711850803331,0.1930214166554348,0.31234095380923016,0.9910316131479279,465.1125640398839,519.652316335147,509.8202012199747,jog
17.328881469115192,1.898663394750087,1.1447640829557617,10.986096493663345,0.21944332396317917,0.007982346160270833,0.9917687450205377,428.71221804648826,482.3105436436252,538.6351930691667,jog
17.378964941569283,0.4893803407400457,-0.20970073091903674,9.452046088985988,0.6466908785966291,0.9186957401037715,-0.3925906824246384,535.4101711852774,559.6500853892582,489.1836927973375,jog
17.429048414023374,-1.0736360169571462,-0.9560373832387536,7.837541046496843,-0.5591529631303239,0.02282647223846699,-0.3881196643527373,448.0223519269083,470.45098828578375,571.890484153152,jog
17.479131886477465,-1.6425453513610226,-1.1454349017537042,7.890623628543726,0.9496457456120381,0.5236713178514559,0.7071983985036323,548.1860408331939,475.05286182634944,494.5603934633053,jog
17.529215358931552,-1.47590746265708,-0.7506792129672539,9.504389366584604,-0.31283914438507604,0.5384108658788304,-0.26984885309301115,477.88600413631485,586.7513466829814,501.62552150417184,jog
17.579298831385643,-0.6954219935662016,-0.14140393594176412,10.560920856895745,-0.3433756434072848,-0.0990500506977934,-0.5856560152278611,546.215993783846,440.2294235958278,564.5435058798896,jog
17.629382303839733,1.0016944383271986,1.1357753757478788,11.925238601783368,0.49299745116088023,0.7555792791814638,-0.5061016217715985,496.80201404769355,479.3610103603742,548.041223212723,jog
17.679465776293824,1.7637649663275698,1.0644605054443115,12.334836265844203,-0.17041843833450843,-1.2342807540572036,-0.21612166343082564,476.35326116142204,523.7911115760987,514.5354304257268,jog
17.729549248747915,1.425444560484431,0.7074113332440175,10.999198958369606,0.8552139919043095,-0.4337978054162054,0.325636156040002,427.66648710615004,532.7660123106064,455.914313888975,jog
17.779632721202002,0.48524686038173076,-0.10075904965242727,9.278938605128149,0.6199265131859589,-0.5074186296317263,-1.4727856920536304,472.1715286248558,544.0237131512202,482.1342273403205,jog
17.829716193656093,-0.9678382361904414,-0.8976317479272187,7.782697304040686,-0.31030496809061825,0.28857444784730896,0.7964363115252202,476.22211559278026,501.6738246859307,518.052409051776,jog
17.879799666110184,-1.7997726947660302,-1.1107039827712417,8.201945172034604,-0.9113287532996971,0.056176147417172535,0.035731061814825577,516.9698990343677,481.74358206949364,513.8516950201775,jog
17.929883138564275,-1.970800507142178,-0.6541989997505333,8.505776608367295,0.32776227840342986,-0.3209062435132062,-0.24538890786099676,530.6443954316359,490.67644945177466,505.6990956533421,jog
17.979966611018366,-0.2283261797035927,0.10868759004333514,10.35727612766089,0.5067248164792874,0.33978218260031234,-0.24729324689074772,609.5503039610305,562.614262063047,487.634183623303,jog
18.030050083472453,0.7986252717443966,0.8991977514285581,11.674016867794684,-0.23004458257694516,-0.07794067002610597,0.6343751416146495,484.78122163902685,523.3952049484195,542.6533575514314,jog
18.080133555926544,1.3654584834695624,1.4848506481551174,12.059627072282552,0.2581364080468949,0.22534691538351573,1.058555041766049,523.279359259596,486.3681302000166,510.79112870798104,jog
18.130217028380635,1.5950288758798485,1.0266246086304431,10.655903049631421,0.8999495578786927,0.6772898940867302,-1.6128370640315297,566.6901006837747,450.3482716038128,530.3864113090744,jog
18.180300500834726,0.9726201042770427,0.027900731826979115,9.49460265872618,-0.4893314293076604,0.4258265377748377,0.475147030182293,519.5297538676838,511.43034284951153,453.5361225827552,jog
18.230383973288816,-0.6797854772563217,-0.7047876916030988,7.660165856252822,-0.2627554291678566,1.102695591717932,0.2473330939872611,523.5765523009558,455.47424416530964,506.80120200926433,jog
18.280467445742904,-2.0393121579428484,-1.3978281684922973,7.582691897597039,-0.20977687456642508,-0.7784317869049213,0.21368388272771713,461.13330644279614,525.9139908870263,515.9976823346137,jog
18.330550918196995,-1.4540940280696755,-0.6997686713137059,8.722085900626293,-0.23044137388293698,0.13035463959130147,0.1588309396766908,472.9145378617232,517.7294022072765,412.3511304114302,jog
18.380634390651085,0.07734422243679141,0.05716226269586057,10.842836475358391,0.8176561231247961,-0.23965936973460125,-1.1268511124680245,497.4435343192436,514.2233579703808,438.0194765020901,jog
18.430717863105176,0.8637336155102132,1.1889274956259275,11.548026972202324,-1.1078711084923318,0.2995658331577888,-0.9178670217980172,510.0512966050585,460.4220283250221,489.0134473149565,jog
18.480801335559267,1.8707590461407586,1.2965349358739,11.954497616998143,-0.5365001797189329,0.1156787807666043,-0.03763930370436091,441.4109386828154,563.2530118888056,568.2415902985945,jog
18.530884808013354,1.5568573403323298,0.8235295361980708,10.853248107754315,-0.529915371273821,-0.23355259102534143,0.2526907645832865,432.97140812131306,469.7920741983713,475.192652184187,jog
18.580968280467445,0.6615609196698666,-0.047597250880611924,8.80614934354908,-0.7067116998950289,-0.9818264916094707,0.7460060706519891,486.9808027259223,454.7978451936685,495.7907687221425,jog
18.631051752921536,-0.7814911878668718,-0.6624945692243316,7.928601240938595,-0.6126276125697112,-0.0026925958801752125,-0.02401172648575209,596.8758470244137,479.1895321448515,455.0117531238276,jog
18.681135225375627,-1.7963844503736575,-1.0127337848822124,7.562318574691297,0.32304825795291936,0.2857921284937364,0.37927155946241486,460.7048672711299,532.7364955858551,494.78570763952905,jog
18.731218697829718,-1.736950988355627,-0.5282792454922993,9.33692400680922,-0.235000743987087,0.3153094176674192,0.254393220946044,538.0902928372511,425.8897802964437,447.56678796519884,jog
18.781302170283805,-0.732580179178047,-0.1935021962574393,11.072752878907862,-0.4702393227511309,-0.4221198102928939,-0.5660263678322498,551.0521581354432,424.8587047483536,531.8207675715813,jog
18.831385642737896,0.930419352371587,0.7708043212838709,11.440824008341467,-0.08202937666784375,0.01916815291100603,0.51271915841357,521.1741874247631,501.73709576450756,445.9620433313701,jog
18.881469115191987,1.7136007681385323,1.0011557188200373,11.78260017475874,0.3217912117171449,0.6101314506349971,-0.11196849241414675,567.3944077992334,502.6215294483528,430.4173383852344,jog
18.931552587646078,1.4390982387249407,0.7502164103847369,10.975746499404691,0.3621801067677016,0.15818699105304115,-0.004196980854032306,449.6961873674225,543.1054950609439,459.7207323245045,jog
18.98163606010017,0.41920187737750897,0.05635292531930068,9.049648714549093,0.3332296974515674,-0.42922622861650706,-0.04653273271272715,530.4037632054186,471.7246821839959,477.04452997368503,jog
19.03171953255426,-1.0153471246908343,-0.876627280067874,7.941989710996453,0.06819498527039891,0.24087742130268275,-0.2067283918824838,543.0619437022409,530.2008203530992,490.70576049781084,jog
19.081803005008346,-2.1098043741807824,-1.2689343272581666,7.367388653103069,0.028588227561072658,-0.867428396399513,0.205730495062593,524.6756484065644,461.05371215384827,476.1436666789922,jog
19.131886477462437,-1.730148104703324,-0.6845806979005742,8.904473783940206,1.0375540282522828,-0.21690583595805638,0.2192576944892479,469.8713322426592,574.180163810911,568.3073739905468,jog
19.181969949916528,-0.42981004481578483,-0.11871811925394488,10.713358216634793,0.6598755172963702,-0.414622441216945,0.011901220516611704,498.0446229281276,451.15991765357103,539.2442544041913,jog
19.23205342237062,0.8891276677958994,0.7266528169375173,12.352043991330834,0.4007000319043967,0.2378990490951323,-1.501185102919017,536.7675067963808,564.2574095122934,533.034049403698,jog
19.28213689482471,1.5104701066567583,1.0301383291191943,11.64039150200041,0.01411619792387487,-0.6616208999270862,-0.3953904468711945,508.51247280242256,614.1982347776265,366.44383868241664,jog
19.332220367278797,1.8820148939536143,1.1672797195443607,10.329375043024925,-0.26489632809613356,0.002702213104142139,-0.692705176161723,475.5696456965935,514.0753244670505,520.4975324413084,jog
19.382303839732888,0.4618349279103056,-0.1296677268234952,8.998611908396118,0.9326310279338148,1.0032061422646237,0.5663604592162503,505.6213015424519,531.5373105937357,471.1862445127952,jog
19.43238731218698,-0.6914300343265758,-1.078066003378382,7.768169822855041,-1.7868916860928064,-0.33361889468558914,0.6558599619546136,523.4225224956779,510.9234780921937,547.2239746132066,jog
19.48247078464107,-1.5513088372980388,-0.9979613164818562,7.863159531826284,-0.681589750901302,-0.4411838548265565,0.6576244046692644,507.8136050148144,477.720164055703,471.13006946229785,jog
19.53255425709516,-1.219506825807559,-0.6836920453599276,8.965991412621527,0.11437944785386266,-0.07940592489325839,-0.26533708749697166,474.4741664479917,460.1892782632626,507.2717462491867,jog
19.582637729549248,-0.5771046483108214,-0.4446389153699482,10.38193226892377,0.32764028381649896,0.347419733642872,-0.42869598715438173,495.3720051204121,509.1108705505976,565.1076122219492,jog
19.63272120200334,1.290245761574767,1.1926152339044171,11.899253923770743,-0.9076198032613224,0.016132440468738803,-0.8918876894438504,445.05415029384125,459.09743655628904,525.2868129774836,jog
19.68280467445743,2.1005464292747114,1.1777894674632177,12.005949358800452,0.3857935856113827,0.2729928891959421,0.013473179353746471,528.489575517724,543.3298857009954,475.9229960671572,jog
19.73288814691152,1.644462277194457,0.4807477554941606,10.813211829232948,-1.3500534346996202,-0.19517304098476856,1.1653474892476692,537.1537992957465,544.8780874297353,528.543410427534,jog
19.78297161936561,0.20142827511417777,0.06015727496465526,9.057545897303232,-0.32706645576615,0.9296579230026842,-0.1681361114526308,477.93709637516383,465.27129032413313,409.1257290227152,jog
19.8330550918197,-1.0647997025929294,-1.1080861192075973,7.560633164964247,0.41709059546341914,0.20977398177320103,-1.1984866082116823,503.9428090841916,517.5673464457155,471.6308714339482,jog
19.88313856427379,-1.897508095614478,-0.6740628912426361,7.359483008071582,-0.8350935735236954,1.0570001435845244,0.7338537977174006,493.94759382269416,471.841795966297,497.6716926042242,jog
19.93322203672788,-1.5033513746118545,-0.7974222440180658,8.80470565515294,1.540001865799482,1.3815682624130279,-0.5146770979386951,529.150071200744,500.914249971682,504.3752815008367,jog
19.98330550918197,-0.6546587965541846,0.0659447186890474,10.334333373379232,-0.4661823230725515,0.04117848654236982,-0.7840957261758996,559.2305275736758,516.9562302049895,418.4982924680907,jog
20.03338898163606,1.2427436721193552,1.056636606511066,12.005171517581429,0.33538080726747127,-0.4223474237550098,0.18424390165361337,525.234882270551,463.624211851563,549.6753024001073,jog
20.08347245409015,1.4409977660335813,1.4933852379470018,12.041920919977493,-0.6040572534508445,-0.45966470837615775,-0.2199037175146672,543.246440741681,475.5644535872638,449.56579455153764,jog
20.13355592654424,1.4175352655318147,0.8319795421061185,10.643864417302643,-0.39376624054528675,1.1869239207319842,1.3924077377204256,455.9173041491832,474.8176913566161,534.6354737429432,jog
20.18363939899833,0.14282439046807704,-0.26191482853708065,9.123378199440749,1.0625201817846068,-1.4808398708986543,0.5576884432680297,483.49393130064476,426.4805011993993,442.8582439439202,jog
20.23372287145242,-0.8892928213275292,-1.1259262042218532,8.018981222567865,-0.9453878960801118,-0.9175000727316117,-1.054512289038462,490.0432236132307,524.403877503154,534.1943903993973,jog
20.283806343906512,-1.8650643065560175,-1.2523857257736948,8.184680347846646,0.13629357620663202,0.396521343932218,-0.2745796858805952,512.5015641660915,562.215384529018,518.3519199109561,jog
20.3338898163606,-1.0741656432530529,-0.7826999386139841,8.558414728919244,0.4179706139880385,-0.5461469531227456,0.18327064357547568,526.1706214244441,524.1824133972065,474.7365127357333,jog
20.38397328881469,-0.7478514404126864,0.09673037086012819,10.196345030194802,-0.10567468407837581,-0.24205313835922357,0.10400341568199527,547.6478213209099,446.6623750857087,471.4934568161988,jog
20.43405676126878,0.8514611940257133,1.269116603269047,11.796485685838151,0.8569132605335176,-0.14028652517526674,-0.5061060124984746,522.1095265443447,499.0750075094363,516.7432219439195,jog
20.484140233722872,1.7526923467581914,1.0331831380431697,11.75931703272307,0.22158691511841938,0.9656410138622107,0.9771285862778346,472.31439810372154,527.2203825842697,515.0898077619553,jog
20.534223706176963,1.2704086176715585,0.6151271847082818,11.0425944757477,0.615959948093266,0.9285753385547858,0.2527544226689002,466.3269995222087,490.15064679100385,488.59754885331296,jog
20.584307178631054,0.4856567708061937,-0.4934489387239976,8.4729679569505,0.2991276336258565,-0.3647452257781183,-0.09728823461283376,511.3797562556639,561.0950559774835,445.87507441339295,jog
20.63439065108514,-0.5684013182410443,-1.0465114883119573,7.396391957049518,0.026239952430357254,0.3600180886061413,0.635450966664221,507.54243188781635,481.0727282205035,508.33688336977895,jog
20.684474123539232,-2.0629148159299255,-1.1251889959328085,7.4185814562460894,-0.3574538670455206,1.8315659619241673,-0.879051148767245,525.3049548238694,557.6564653859373,568.5451012903908,jog
20.734557595993323,-1.7107671345533808,-0.25045683259389373,9.056528637737719,0.5158628842469684,-1.380136341326353,1.2585687995647377,498.43945373127787,480.0069890311672,491.5545347207387,jog
20.784641068447414,-0.3962109857935826,-0.1117994733835786,10.785353210619547,-0.3862474857143921,-0.47971043995601037,0.34443823313334637,509.6678249168784,511.54954102515376,449.5331042141753,jog
20.834724540901504,0.8144726216349272,0.5261936951774813,11.496903477503368,-0.9044370727266101,0.8432443363368131,0.29935199357252723,509.3638394502621,483.7076723859339,559.6081389684618,jog
20.884808013355592,1.677324670437574,1.1701966580698586,11.72891779738396,-0.5900514462660748,-0.820380490921469,-0.690245051267914,541.6349642175788,477.2673962249777,416.15941691356414,jog
20.934891485809683,1.6370511009626996,0.7193306533807184,10.45731938202086,0.6840431669560596,-0.3907016810085122,-0.6423638584565816,604.4983265084495,495.88797409288145,481.24564603804515,jog
20.984974958263773,0.1541300035285118,0.2513220808807016,8.975985772060554,0.15208643555355977,-0.012213315221314707,1.438740715163235,490.46803204831076,492.2984787734948,474.666937478189,jog
21.035058430717864,-0.9697562867560744,-0.9646506048087364,7.674548657894065,0.3587878721164685,-0.4965077250196716,0.3835853923240066,520.7530389422415,495.3145480935665,564.7142259606426,jog
21.085141903171955,-1.6307087007839685,-1.2655408956897898,7.629926904724105,0.24996288124605842,-1.2323491554827155,-1.1260729625501145,501.92757872925404,476.9949092702861,451.79001095222895,jog
21.135225375626042,-1.3174777013980838,-0.42469569637557475,8.860411116961698,0.17701553084429594,0.21699951406475534,-0.6318230484473064,480.38422226372194,513.6749985264707,517.7818055549425,jog
21.185308848080133,-0.5555614972408902,0.09386667700659561,10.617579366430435,-0.5479952015089085,-0.3002977749579015,-0.19204768284068233,480.3424542540005,534.1116140466071,474.9208198990773,jog
21.235392320534224,0.9261269215859228,0.5666166292534296,11.81941022707258,-1.5573617686122547,-0.5369138053405007,-0.027313296822576764,492.8688964582802,551.583474813646,551.9047393977828,jog
21.285475792988315,1.9003956102851665,1.6906669404778083,11.69849772606851,0.6416300143633631,-0.7551003496073869,0.9035564504535897,515.9030622240412,499.73580690030417,497.5190689576491,jog
21.335559265442406,1.9869559845074485,0.5891929218582745,10.836885662490431,-0.7931942683453262,-0.3408328650521922,-0.7013580807873819,557.303742910447,612.000868890817,478.7408876946881,jog
21.385642737896493,0.6360286484657661,-0.10716070214850648,9.708454583859616,-0.2608490713015362,1.159886992260576,-0.7479494974435558,529.9932755861673,474.860717932301,500.00911674435093,jog
21.435726210350584,-1.028675008402842,-1.0727873202049363,7.967923505253023,-0.7877875835285478,-0.7593005647404389,-0.6281892426860471,525.0211069134078,534.5755954473682,439.7337849475911,jog
21.485809682804675,-1.9385832498620652,-0.9951462010052137,7.465312895481225,0.20651577409341318,0.396871915346131,-1.6688141395549383,482.59800615578837,497.72580893667066,435.20244385985393,jog
21.535893155258766,-1.8116755977887458,-0.9343490381322592,8.69203131607222,-0.24501414047247064,0.5611503510269337,-0.2911686417916707,476.34303574392663,475.8363354301315,465.13845704058366,jog
21.585976627712856,-0.26685422608664977,-0.40149817319848613,10.859777122336142,0.5608624334889711,-0.1847011917873434,-1.141508055097776,450.49147917528626,584.8272207688927,552.6323751136895,jog
21.636060100166944,0.8121414459140237,1.3442367902388508,11.830590221879465,0.4931017369199213,-0.6574187070062575,-1.2647052606618017,540.1082479437342,479.8627978789312,485.85202218183514,jog
21.686143572621035,1.712947961436682,1.3053699895459274,11.929101367442602,0.7426335257229425,0.9174976513930968,-1.0963255273246642,480.45549090761074,647.7820554913744,482.8560518393938,jog
21.736227045075125,1.8431714487891058,0.23793668961237668,10.90841525269522,-0.5530449716607384,-0.5362156368687085,-0.5082951894253921,463.9697501666734,557.013911645454,502.81286931742517,jog
21.786310517529216,0.15444683405938026,0.014322484346908429,9.11347401137664,-0.11540854744759275,-0.4532290840561329,-0.052295288831477965,545.542192221891,455.35440842141753,498.54905041077865,jog
21.836393989983307,-1.2306195186352007,-0.8100897665955447,7.409642775346556,0.9235864937832503,-0.6498171215197094,1.3430908445513128,440.0742610531398,487.7474183755936,475.84196885632025,jog
21.886477462437398,-2.3232315625462276,-0.8926047027898312,8.02146000120367,0.09372739704027054,0.06450404470235872,-0.41994656837129335,461.93805838320145,530.5990120026236,483.50880086747395,jog
21.936560934891485,-1.2875188423141302,-0.9360853967240643,9.162685729540208,-0.5012964432842647,-0.3416791108607356,0.08069456714173315,560.5384474904217,488.23607297894483,478.389610974611,jog
21.986644407345576,-0.4213312706214159,0.0646328034721986,10.849527984508583,0.5518358449378259,-0.1613660797898212,-0.18706858929179673,466.79646652465584,476.192023529564,519.703728486676,jog
22.036727879799667,1.016616059494432,0.7522949106497101,12.110582876516105,-0.5659809528283483,0.13336985366127296,0.9519158656564021,453.5807946620704,452.2591323075136,607.26925779442,jog
22.086811352253758,1.8046179764036048,1.3549147222087807,11.707427370560094,0.8280472552666595,1.4878794300815206,-0.4909293927704667,464.8085944078937,572.4313262463533,561.5071085523502,jog
22.13689482470785,1.4152138616348073,0.5743822679002561,11.01415810374629,0.36839528663457405,0.33268193423178755,0.330608947596607,522.7701633567444,447.1353106473348,472.16185989585676,jog
22.186978297161936,0.878842925465326,-0.3154210491264312,9.091727765990704,-1.1449802259676891,-0.05243387676782017,-0.014496190614169357,447.9933408454235,512.0367029480661,518.9956253063007,jog
22.237061769616027,-1.4294657663003771,-0.9748177210261244,8.022256573075682,0.09686046901923974,0.45212540955534575,0.309809066109553,524.8890257081007,496.93321155500604,478.8576627941745,jog
22.287145242070117,-2.0207567240691153,-0.948348497507083,7.773500189720997,-0.09693703000521488,-0.10060394439202593,0.7196595739264183,501.35367691667125,517.5504995726928,456.3740341191745,jog
22.33722871452421,-1.7781057545051238,-0.7586743678060706,9.152472536044055,0.42225457482129164,-0.008470227470338858,0.14324132304196432,511.9373576703777,495.37556517693963,594.7405218652877,jog
22.3873121869783,-0.4802487393870267,-0.7929868194861305,10.562721497615277,-0.31283758704201775,-0.06543390962519913,0.08233647314256957,596.8253114877609,477.41815844979635,451.7278110648991,jog
22.437395659432386,1.6389998534231265,0.40229721038206956,11.958350278012047,-0.07104510536774672,1.0787206618970497,-0.9883700792541317,471.2110262667999,572.1585879465716,462.54271544825855,jog
22.487479131886477,1.7798256559770815,1.301212223125019,11.780520719758357,0.4724180167709911,0.45686115366366026,0.3309379180526347,460.38619546741023,572.1347971632948,469.2433696158732,jog
22.537562604340568,1.5343894928960142,1.1154992625316589,10.727094279238743,1.1550771150664823,-0.764491943241624,0.26979134596750987,448.18906221792156,519.0794198046137,435.65103573600976,jog
22.58764607679466,-0.0004917835091777789,-0.02768077253950106,8.473483064670953,-1.3121871216188723,-0.20459519930951864,1.120897768600268,508.39538156002914,553.6072703787352,506.4421408649727,jog
22.63772954924875,-1.1169930399006214,-1.3825225915056463,7.837376753786145,0.2685113047731705,0.2093309723951361,-0.09222521034872705,466.188446595994,531.1283794782729,464.556673577927,jog
22.687813021702837,-1.6251787790765713,-1.2232595216272377,7.922092301792584,-1.641564483268206,-0.2576079497144806,-0.9624064375724356,483.4837099948384,512.1612176969505,446.73689304061395,jog
22.737896494156928,-1.055827664877775,-0.9203024239310775,8.681850873816368,-0.6649573263401725,-0.607777002795808,0.5702497823809898,512.4300687241131,431.71712667980614,501.1060475541152,jog
22.78797996661102,0.1670381668908934,0.044310873054712735,10.367799552812503,-0.05046222149974743,-0.3717809609183903,-0.445901812350809,517.962719392117,465.52685331093613,521.106791223802,jog
22.83806343906511,1.1126734170899613,1.2857216021699096,12.072489932294342,0.25095041440415844,-1.8629801740665823,-0.09396959884307021,416.8887739963338,474.46063043207187,462.17991085261343,jog
22.8881469115192,2.15909363458932,0.8214087701873887,11.624424021703856,0.42058335696181537,-0.9887209312185146,-0.5489986290690886,503.10876113925895,441.816640616157,558.4970062908371,jog
22.938230383973288,1.659590617874132,0.9140164436696376,10.614402672634435,-0.8375809639868202,-0.055899048085628546,-0.6092951193473222,495.38993688722127,483.673729291855,509.8516032433298,jog
22.98831385642738,0.4916664890887286,-0.41053422542944923,9.176682968560925,-0.05340626435614561,1.2064894935547057,0.6288442851653017,504.7883986103742,535.7362439648258,522.9459328303615,jog
23.03839732888147,-0.6205838255474986,-0.8950598270634147,7.48202584460932,1.1206770934150105,0.19571338877883723,0.23586914783549462,478.52119586491705,481.92538000331797,492.0943076692292,jog
23.08848080133556,-2.1086762590599673,-1.592320698140162,7.992443963423802,-0.24729099657922404,0.30657435329719396,-0.8550172254450019,537.964217913713,505.09095393169343,458.6244212269748,jog
23.13856427378965,-1.6835309641933434,-0.5898266643387127,8.95758682991878,-0.26374484234513,-0.32774329691572424,0.06313313049063517,496.7077013696437,554.0983602983109,431.3734359338927,jog
23.18864774624374,-0.2026279115913527,0.11561467489711896,10.746552188938324,0.21119280484648206,-0.2672886007191065,-0.46240251668493043,463.7814977339118,478.4151999367093,500.45625236358256,jog
23.23873121869783,0.6969687520700879,0.8989051735824451,11.68276240647592,0.15556592069597186,-0.7206127956174201,1.3484275592188826,544.2919693632122,494.2542729708155,481.24503038923825,jog
23.28881469115192,1.9767891596921294,0.8470441247918483,11.837347687840051,0.4928312082972209,0.851084891077197,0.5971449275962672,546.1279458695586,525.0762198696377,454.2540125903193,jog
23.33889816360601,1.37786267679104,0.8999229091644938,10.404445279367284,-0.41273672297789604,-0.1780681038107868,-1.2577021288430739,491.56134088363626,493.9872658519671,463.4072414724363,jog
23.3889816360601,0.3493871618893719,0.17990975070123383,9.031314713475075,1.1480636697447713,-0.04770159288728221,-0.8862683733279778,560.8391764333371,452.8855757366961,510.8062070322206,jog
23.439065108514193,-0.7126759262826017,-0.9650837545751152,7.409001293199109,0.17827087218564971,0.17992265926941378,0.014092068368360368,548.5445453932836,449.8544702477141,543.4210292340161,jog
23.48914858096828,-2.106420138126045,-1.2468995458078822,7.777171997343833,-0.36426573008023444,-1.3003864053160983,-0.9527478829720104,481.35296742462526,444.47151115901517,480.51657356125645,jog
23.53923205342237,-1.5135789258439445,-0.7624283020056222,8.895384120021975,0.47245584747464275,0.16063068848806883,0.6449022531130965,505.5577741132366,494.72270111947796,525.0422621694422,jog
23.58931552587646,-0.02288001024041275,-0.026880684723973036,10.997833641683883,0.45890714882141637,-0.24801166324194887,0.5730997105128818,485.96052034967306,425.63315064849917,489.9272254086876,jog
23.639398998330552,1.1371725676849274,1.0062741210073982,11.39195341943058,-1.6100855866024242,0.12016211525165595,-0.4952267442814146,488.91077181213655,545.5945541096488,464.0179846729764,jog
23.689482470784643,1.8659073872976215,1.367975137240177,11.46346720060382,0.5877406379849678,1.0778408072598793,1.8156726234296392,457.15375275191025,499.6223795813516,523.4145308003103,jog
23.73956594323873,1.2912875624813798,0.7331475346868264,10.643940636707582,0.9770112570980578,0.151042427487476,-0.9349084126348235,514.7249377252338,558.256131358268,525.8054418722585,jog
23.78964941569282,0.16397108658093612,-0.0967565102455909,8.782171615395232,-0.4634555579971351,0.2196063279739528,1.0767623334597223,543.9091430805204,508.78024248200296,531.7831025006948,jog
23.839732888146912,-1.0330681898302099,-0.7877351689771768,7.969451768937797,0.5033523109582189,0.10130214458224134,-0.14791352058659976,540.819204096109,572.0453621440217,427.4057226905297,jog
23.889816360601003,-1.9908582182154846,-1.398776018667483,8.165561917965759,-0.292200402975617,-0.020421823011246894,-0.20873144006598682,485.21452914485434,511.184684049463,419.93228654935274,jog
23.939899833055094,-1.8862122864395339,-1.0217486515689087,8.816411817414975,-0.24475539091018356,-0.35092270710427087,1.1447061062707011,574.1227797121691,561.8157062416292,467.08154892948835,jog
23.98998330550918,-0.052606648546176416,-0.05680016041923219,10.359549988030022,0.6064631663531915,0.30920570696240157,0.9172588338780547,527.3789489504687,496.4494334642727,451.5933519906667,jog
24.040066777963272,1.0685088915801217,0.5740615529546749,11.439452659740299,-0.30560712108948146,0.01907163496727896,-1.3051291391223732,478.00089246651675,539.0789325568034,542.6286943126602,jog
24.090150250417363,2.0266001008004983,1.1350041320359185,11.496939974592115,-1.37587421296834,-0.2000351807051526,0.0533652501492006,520.4496499274635,511.45587372292005,498.825779403743,jog
24.140233722871454,1.0609577163506196,1.3421259985691276,10.849275974983257,0.38730981081015625,-0.8546627720310923,-0.7651695706971304,497.1896034991049,490.7275037560075,450.9788949955009,jog
24.190317195325544,0.4078906112973643,-0.4474820045295847,8.665077187012747,-0.24116806041804542,-1.0310391019684115,-0.006465225060426166,498.00696715691043,526.5542238839366,572.2704358771215,jog
24.24040066777963,-0.5853820305842229,-1.14630475229228,7.9435466889222885,0.3557533651562727,0.07648736265813605,-0.7754308298003756,609.7769428769336,502.110606540485,554.1467239044846,jog
24.290484140233723,-1.7584220443932428,-1.2632360022783342,7.594003907368507,-0.29063325792785294,-0.3040641671525123,-0.7791243187245006,464.1515321557004,527.7168610694333,493.5435209389786,jog
24.340567612687813,-1.1988618036952579,-0.5129781651841627,9.132736170624652,0.46406880971581027,-0.7213915382631275,-0.13430024745840752,450.6973751463803,507.6008539643619,548.4467965874634,jog
24.390651085141904,-0.3376447869626329,0.5076141550655442,10.239202049467766,0.291690411497164,0.9116937599125715,0.46143319814339756,527.1167230908551,526.8447623630462,500.1835844583313,jog
24.440734557595995,0.8512971119593797,0.5188999559206665,11.341437812296764,0.34988829839655317,-1.4524017173101196,-0.5254087194788783,507.4602436787398,503.98912442791584,493.1591289426278,jog
24.490818030050082,1.5286720135558756,1.5203460524399133,11.54421432434967,0.05748940981563285,-0.09137639801087494,-0.6754894861990697,552.685753019392,487.19334080012624,522.6158012624305,jog
24.540901502504173,1.3628754132717051,1.1134206933108552,10.717515300080533,-0.6597083002933353,-0.6265993495245061,0.42819953478974365,479.1763638425215,499.6653519535566,563.3587971874213,jog
24.590984974958264,0.3328035882648879,0.13025300401400744,8.834794713454409,-0.0771533952889309,0.48716301321884525,0.12690332848078706,414.3082716128392,498.44759347891335,494.7656208710518,jog
24.641068447412355,-0.5738730632979274,-0.6483911491411023,7.407380949929734,-0.49335440390024315,0.07011785386369417,0.836406732390702,513.338195932698,556.5675175593307,518.3404674128412,jog
24.691151919866446,-1.7187748829351308,-1.1758365253366614,8.021492645603098,-0.11627017867868929,-0.8472277391324008,-0.01738164444007427,483.17092811552277,480.08818081424556,543.5533563351876,jog
24.741235392320533,-1.2992348135287304,-0.24774559592253403,8.827964912515295,0.050591413909282165,0.6792085312816311,-0.7966499782103788,468.9411955000952,465.28029654035424,483.3586832900085,jog
24.791318864774624,-0.4231485777161702,0.1314497581892065,10.627518327933018,-0.30906952342811517,0.6832233584990551,0.26212668569164144,490.7226811949451,526.5459931502097,527.7445992334406,jog
24.841402337228715,1.260428789455991,1.391845123592774,11.636975633417297,-0.08722155431750556,0.01964564326665399,2.1483441000172134,537.0357933616591,459.6982813569987,484.60017731103136,jog
24.891485809682806,1.682327404247785,0.966597897446738,11.61236034022973,-1.1537289510037976,-0.8056288004071259,-0.2513237456613496,490.4493146384711,524.11714185027,491.9913442510685,jog
24.941569282136896,1.7061697460691836,0.7606662812255491,10.608827134992938,0.5983651900231113,1.9591378013449163,0.36122977208525475,517.888346743213,447.5086381730288,456.01807120538325,jog
24.991652754590987,0.31534991340039803,0.14733238699617468,8.695493338242631,-0.402070888682861,-0.36732207430756675,0.5087284074510364,453.2312734982166,614.6464250750382,406.4494508433549,jog
25.041736227045075,-1.0082162533704535,-1.1771345935375215,7.909856476145216,0.7819633957676512,-0.3738481152912208,-0.46757216670407975,422.6407242874836,444.72304547687077,467.4382133712839,jog
25.091819699499165,-1.936696413893648,-0.7323493916555746,7.5315630378941885,-1.2818990419576555,0.04122043024880505,-0.3499128595913242,499.3172651529372,483.15378649785794,541.898829542399,jog
25.141903171953256,-1.3818443773236886,-0.45672551227467834,9.151995438950745,-0.19560583135800966,-1.5696628021765366,-2.1777738756985365,491.1409158925948,505.0705345974277,491.1711773524297,jog
25.191986644407347,-0.3707430610678751,0.3899799643971309,10.37525879836882,-0.31322416420576654,0.05747415437808341,-0.8219873700662357,470.974734582671,480.6971503459921,462.9534322210999,jog
25.242070116861438,1.159247056685607,0.8021707374038496,11.662981800626767,-0.7724502574839478,-0.10086927180291952,0.8307003109315757,477.11237804060374,544.5960615591182,457.50816310992866,jog
25.292153589315525,1.9601118589349622,1.3312321678218273,11.50458022540599,-0.7938714799787016,0.38250117660964533,-0.5549320343925171,498.4858263625767,475.5459033008762,473.3578222361257,jog
25.342237061769616,1.3118817359760018,0.4955213092463806,10.301121550679891,-0.5197724127582982,0.24141811055099063,-0.6703684786256585,456.28280008257457,530.4009320211401,508.8174295898103,jog
25.392320534223707,-0.05609657178895866,-0.4803574802449278,9.31535911591923,0.6688064961183734,0.3970925362067892,1.19911270745452,513.423150566023,508.6342897104617,559.7804339289097,jog
25.442404006677798,-1.2734454000190407,-1.1276392094624719,8.187647288825271,-0.027773729208344474,-0.9085301915906453,-1.2557928156075076,454.10713005679696,429.04359356193424,417.5908808878341,jog
25.49248747913189,-1.5744972132617567,-0.9762777607603776,7.465184163094389,1.5010518196345493,0.017707097141293027,-0.28036158569715386,476.90315903731675,439.65945507134927,492.5982739107771,jog
25.542570951585976,-1.3662173357037513,-1.1160308579388911,9.60349890212468,-0.054261191900466424,0.6908536457915809,-0.6480039159088918,474.2283763683033,551.6839392553637,490.6119924730981,jog
25.592654424040067,-0.01571922078074514,0.14525976619884562,10.904045961083535,0.6977102922832351,-1.0206707109621354,-0.6201659362875076,477.06973310789823,468.2557507366,494.3448441943294,jog
25.642737896494157,1.0497049583594662,1.3510426881030941,11.976579620490256,-0.49616345960538166,0.3731161404365036,-0.8737916068555611,494.67586074490725,534.8829139721954,457.0582807479719,jog
25.69282136894825,1.6691851623679737,1.1645091214860583,12.120274860851842,-0.6675025651600155,0.35977833959726374,-0.19140590839492586,501.6088223794293,512.8641193583671,472.13794930632054,jog
25.74290484140234,1.648532585939455,0.5156142224842182,10.59446414454701,0.7652592441372755,0.14401980489240454,0.4203248513470115,451.0227942135597,363.3316978633604,486.79345562065294,jog
25.792988313856426,0.22534532789867312,0.1057768316173836,8.752741922125761,-0.12393436408688702,0.8695022797462525,1.3408623153324115,417.78948486164546,429.2561754065736,500.3761913182483,jog
25.843071786310517,-0.9891437949779843,-0.7512713263717528,7.266145695370605,0.056087583552551085,0.4283744410050231,-0.9932844506894812,488.0169550140559,490.1457130492848,484.78722739491235,jog
25.893155258764608,-1.8226557788341509,-0.7180895282156969,8.168153287833443,-1.619801851892239,0.2634655174447314,-0.6059383983298974,474.6221201992041,545.7372556387573,615.5422336105895,jog
25.9432387312187,-1.3271716273134206,-0.47084329077684656,9.565438256012994,0.014700273086257256,0.24100476973466847,-0.8231646348599356,396.47408157662255,546.4948647907188,448.5432846055315,jog
25.99332220367279,-0.41994749493769923,0.5512528403419115,11.106860117397135,-0.6128202779825176,0.7441811920817298,1.2147002671283096,504.16389016837365,515.28885250171,513.5379875473302,jog
26.043405676126877,1.1121087909895115,1.128926571907858,11.93223110059872,0.13422065719200243,-0.025385709887342036,-1.3152466933269977,508.25411091150875,447.1283546490022,438.3968517355736,jog
26.093489148580968,2.006081952128937,0.9767078298398133,11.392678543281512,0.8220681585781718,1.1796241983149247,0.0001265366640580836,559.6888566613673,436.57385968575903,490.1774510675495,jog
26.14357262103506,0.978426776150861,0.6044751802955362,10.287160562306852,1.0352515558863156,-0.6316936335437251,-0.046666165927089075,569.6424313328779,542.8934777059285,486.8991189964261,jog
26.19365609348915,-0.02401621560747605,-0.599667995822232,8.89750343313995,0.8408313266984718,-1.0490887665799797,-0.347672380045477,516.712225583451,621.8490249705139,522.7944030529634,jog
26.24373956594324,-1.0160496127935155,-1.3553416425786287,7.589410327647612,0.4573232651556788,0.17729736742096866,0.3616169973855067,432.3666127910581,467.3672638592304,544.065185841785,jog
26.293823038397328,-1.8862799258461085,-0.9942382105963479,7.360632883455703,-0.08042490575879609,0.8068577581342299,-0.7302046312212608,484.309512449903,545.5950142235249,385.0825905151273,jog
26.34390651085142,-1.3110602697249722,-0.5510596626511459,8.944424642597362,0.6587503293030853,0.9093696483363222,0.5294254969652755,528.7682896260947,534.7573884513272,485.47124238018097,jog
26.39398998330551,-0.11343578667239448,0.2777031998718933,11.139403083245002,-0.6112072212512115,-0.33073089312889237,-0.6885233727552494,518.6208766245967,502.0287353348118,548.6261945465745,jog
26.4440734557596,0.7940305321976384,0.8139738112989241,12.31071703014676,0.11945473313913038,-0.25347907431998284,-0.8636649715575474,523.3633176406282,515.8399440084191,552.5147058822976,jog
26.49415692821369,2.292411762033936,1.3435388253375233,11.463780839359291,0.12168604420683624,-0.17739496100842286,0.21703518114600945,592.5663735096534,503.02651334986103,502.78271019855555,jog
26.544240400667782,1.5865084327010888,0.7731568590199251,10.277494943469627,-0.3045352942520694,-0.8206590082864113,0.39242548229790325,473.54329606430645,493.57453587801945,475.615578297509,jog
26.59432387312187,0.21185388579185344,-0.46926894541186465,8.244015345599466,-0.8076024555054963,0.04383702767894188,-0.21022288901590128,459.11503010331495,522.8512716358792,528.7284187674717,jog
26.64440734557596,-1.2066964595637457,-0.5989018749640227,7.599696735800058,-0.9985669617555363,-0.6264156749280947,0.11348090984594708,484.2976593497568,463.53766108868035,492.5394875646571,jog
26.69449081803005,-2.322597273778092,-1.5071370501243815,7.8958032705982495,-0.7767014595553082,0.6029385798224185,1.2809350494481329,485.94037469774617,499.8292334069256,493.2032695599335,jog
26.74457429048414,-0.9823348245717621,-0.46719088960654914,9.638856492004463,-1.122991309974325,0.013782667222230966,0.37214422575696393,490.7250445522208,460.7537751080945,539.854255426426,jog
26.794657762938233,-0.5497230160349018,0.25389874551902136,10.612676040138938,-1.2060288258916791,-0.7334842876318673,-0.9302803055941653,508.72936920739284,473.5852014556191,550.0806355975254,jog
26.84474123539232,0.7971345499545013,0.7984869433141475,11.92687458422585,-0.10161232162886846,-1.0229647331630618,0.023228782505566304,434.42674819737766,570.1875436609071,609.2947851128743,jog
26.89482470784641,2.305120237023031,0.9320154116382304,11.589805778886957,-0.8284027042855278,0.9930286255182332,-0.5475068848412848,542.349090539822,550.9754767997085,464.55297537716103,jog
26.9449081803005,1.313597432475349,0.41564454634507975,10.28078056916754,0.30049572611493797,-0.47061547996195063,0.40127654159272286,548.5085473688545,488.8498726206454,503.9119182167832,jog
26.994991652754592,0.4162251782470706,-0.3804943373425292,8.583555652028178,0.7189104736826162,0.5872147243492049,-0.5431430172232302,553.6794779130181,445.18173287436974,514.8823897732739,jog
27.045075125208683,-1.342068664275887,-1.177288325884771,7.432920929486709,-0.7615467656076886,0.10363851941519638,1.046515119356425,519.0354998439723,531.1791382721677,458.64765859542723,jog
27.09515859766277,-1.5373677244416484,-0.8719599885704983,7.683901338045004,-0.5711153601420692,1.5143004787792798,0.9394233742088206,579.4495666601076,505.288733133208,500.83256855944416,jog
27.14524207011686,-1.240511520672982,-0.6917583386526391,9.595209404901118,-0.42651790998983774,0.33047816145749115,0.36362573993859726,487.2619006933792,501.35717598920996,569.7282911526779,jog
27.195325542570952,0.12297039299021696,-0.11066041703979906,10.97687143982669,-0.14875107815339897,-0.11394985071805162,-0.19731204654118567,526.252492410247,484.84719133671706,443.8495333228373,jog
27.245409015025043,1.3948478695297144,1.4182268699696943,11.804891300358229,0.8760027128628345,0.6043594011288123,1.13442364480635,510.8067764423793,469.12800720153894,482.04822371901196,jog
27.295492487479134,1.8375152200250187,1.689719476625145,11.797011363455926,-1.0412562882498726,-0.2377837997500197,-1.0265355963811877,532.8885679769498,532.246785637768,490.6532187329454,jog
27.34557595993322,1.4598352503940901,0.8699837966553332,10.393779720150631,0.5509587828287235,0.7051051137777741,0.4751317123191106,562.866018406295,402.1539984631335,446.27658071876084,jog
27.395659432387312,0.7053581474570292,-0.22969543093630757,8.512463909424001,0.33818508244712253,0.20546412233369138,0.9428532719396323,511.0853029020693,449.19454002958844,436.5864661567397,jog
27.445742904841403,-1.2901000785897696,-0.939998343650317,7.702798711983579,-0.739105906145688,-1.3584622155571764,0.7905540520031165,477.287553221047,458.386803514405,482.0540852252638,jog
27.495826377295494,-1.7228509636675007,-0.9994121368561968,7.810012507307072,0.7295772558155951,0.8780280568498112,-1.4997540538437415,590.7681713203464,523.5310470578938,463.01204248141516,jog
27.545909849749584,-1.7436636967316745,-0.2843047656168168,9.276474231791209,0.2319466989317285,-0.5531362944591638,-0.547546173988477,483.1483312600875,549.0780654997088,485.47357542973765,jog
27.59599332220367,-0.07135562523071284,0.13076139385837585,10.596548202126344,-1.0716567383078506,-0.9279088423099394,0.672296101452876,535.5965661597087,450.5684940495639,484.0957533859186,jog
27.646076794657763,1.04109663554433,1.1426088811367956,11.979304298764212,1.418244642384465,-0.4821140493118376,-1.1251426567765657,510.0217646647081,488.94707340235817,495.9689995835722,jog
27.696160267111853,2.2043049189196506,1.1068744635010361,11.897883355040543,-0.7285014631275326,0.19896657522249234,-0.49827794484631244,522.1963660524559,548.7151879375497,457.89669805262884,jog
27.746243739565944,1.5431898888706608,0.8535589471030642,10.666216361349992,-0.6983225920065562,0.33635106966587025,0.5978441927042308,549.3659220323052,535.8148438199316,492.2184696354281,jog
27.796327212020035,-0.3593817833800789,-0.37556268727816544,8.25292790906589,-0.10810681329622453,0.9042074678713025,0.0008599534261801668,513.073437099012,447.87217415684466,490.06205997118326,jog
27.846410684474122,-1.5449346391233214,-1.011757555985717,7.907703928687691,0.4808351560549956,0.3037731884511067,-0.4678778733488909,515.3275737690429,504.8334831919052,563.4380245756246,jog
27.896494156928213,-2.1374541498811075,-1.2698939591882645,8.411648713254205,1.2453719084315986,0.42646636760106515,-0.00016069889739674028,515.1380134292011,439.8772384578325,543.099218998168,jog
27.946577629382304,-1.2612553867064191,-0.4649848035317444,9.730021322882145,0.6077482963224257,-0.2717245843601308,0.5078721950392074,540.5072804165367,521.5044656296307,520.4981514641744,jog
27.996661101836395,0.28472775946544326,0.6387809261138349,10.913827350366825,0.37918079466505605,0.7315064436375216,-0.2217243642829039,475.32984210681127,529.448662812949,557.9870779771798,jog
28.046744574290486,1.233366515377898,1.293684272023389,11.538808720948422,0.07875058156058126,0.024172798330299512,-0.7404607097838705,552.4064781975411,427.86295906634143,505.63351414010026,jog
28.096828046744577,1.706166477030543,1.8965698890199423,11.600329944013284,0.0629732653752639,0.2994657256446006,1.045619636093155,500.7554316106576,545.7844091402611,504.4879866774266,jog
28.146911519198664,1.3091872917006209,0.46664746256842404,10.506717596798556,0.48501122106009803,0.5078900213066,-1.2386163857303316,472.9221364510869,501.3742036837645,504.5787376552854,jog
28.196994991652755,-0.2019067346856176,-0.17664526885441326,8.460966358610996,1.5226864672212006,0.7515165076959637,0.37020969845933943,513.6276765015166,563.3312683322698,551.2593769053419,jog
28.247078464106846,-1.1808318556936903,-0.8184361660165222,7.569686709349548,-0.3017217027376679,0.2690226142110373,-0.35164530660694304,557.1649624964808,480.4495509199236,497.85095924439236,jog
28.297161936560936,-1.6985377839382982,-1.3371689828471582,8.029280505362998,-0.2998733876860064,0.8198401496495085,0.27722561064924506,446.35116976624033,500.14415181467757,521.4593115368874,jog
28.347245409015027,-1.3127372524245822,-0.6730600548220762,9.57256186857418,0.021963547337592874,-1.9379629555173612,-0.5949557673189977,528.4227256466404,441.79110183193063,501.1275798450564,jog
28.397328881469114,0.31014226971168163,0.6208173325216853,11.118161331730334,-0.009070797459907933,-0.1424331574055056,0.5736430988140707,507.32919580540056,518.3205790921609,533.2997117335423,jog
28.447412353923205,1.2019378414859794,1.32335323923793,12.024558055708766,-0.9595838680849508,0.07326938842831113,-0.03631850004991116,430.7121498719977,531.5066123467052,621.6083590830139,jog
28.497495826377296,1.5858281765000277,1.140419573878034,11.429735934075417,-1.0854215954957265,-0.09123727525010311,0.7012955247298097,498.03936520845537,597.0266053235323,504.0275376268834,jog
28.547579298831387,1.6256776512617872,0.5096909517325118,10.405464795755389,-0.4380708799178177,0.4526401463886705,2.0711542835052974,509.92777141635156,541.608159107802,480.18239403090814,jog
28.597662771285478,0.12788547431413905,-0.5477787262584308,8.999032199427594,-0.24883105506920397,0.7624362901327292,0.9631493950372613,540.6194469830612,513.78089892434,510.4896395764341,jog
28.647746243739565,-1.9094026651265188,-1.1008200966223383,7.5212464544600035,-0.13941245737560082,-1.043747640608158,0.6542963905636064,561.4484009934654,523.1857617563636,479.7187295141907,jog
28.697829716193656,-1.6058780480239212,-1.6133656098781195,7.688146230223336,-0.5692122463330579,-0.44800074657957295,0.15901643302062543,449.3926364679138,549.1610382087339,475.22197236584185,jog
28.747913188647747,-1.094985999328594,-0.44320338768984074,9.489453577959903,-0.08529615769292187,0.70532105963286,-0.41506295538935023,522.0599721576741,547.5637690644807,570.3575022070962,jog
28.797996661101838,-0.11352696667997372,0.3909760947071089,11.197827101448985,0.01639109670601423,0.04320567797467911,-0.0541407918796594,449.13426334521665,511.9621831299616,444.4043300254117,jog
28.84808013355593,1.159317721699843,1.1516938144685451,11.667580330682318,0.47968977261554585,0.7585804940920144,0.718457027356635,556.735350884733,459.67084016033454,507.327341550197,jog
28.898163606010016,1.2576391139995107,0.9642820631511448,11.46013728505621,-1.0839944226421492,-0.436512054065782,0.7417147178126896,533.8477121634476,516.3859734864308,445.4646832186156,jog
28.948247078464107,0.9864403712622635,1.037598828324578,10.358216040085804,0.8603482206373951,0.18617742819042857,-0.9954086214865453,546.4396366782124,470.9485868730102,473.74025326922333,jog
28.998330550918197,0.00840751063894564,-0.21993181981705184,8.464027380123154,-0.43598999798306676,0.27608361896193484,0.2358402296958538,525.5458143848513,487.0974618106316,460.9017205959709,jog
29.04841402337229,-1.1540387359549527,-0.9643297216388822,8.020050439159418,-0.3954447767372887,1.2525374009061663,0.2330027515791786,502.525773879887,438.7322879237297,468.3502802333154,jog
29.09849749582638,-1.7452144904835762,-1.0335494826140588,7.8505559689599655,0.5327460258899789,0.3580766303697525,0.032225332982263814,608.4819319767416,413.56300384434064,492.6169184851008,jog
29.148580968280466,-1.5577754750877837,-0.5788585792175596,9.391570263321963,0.9174256877193786,-0.11395024267992498,0.30483860730996165,497.88462625414724,500.3228062273166,542.1620178516916,jog
29.198664440734557,0.07227180906757898,0.2897577400283351,10.380524657308893,-0.09793854974598146,0.8359295457657359,-0.33482832155690523,475.82238555503363,515.2845336450869,493.57457203980096,jog
29.248747913188648,1.3189813117958593,1.045680338190148,11.968240548865793,0.2317953751910448,1.4569035814455702,0.766834742203221,452.02556084455244,486.5461017292501,533.9151675264956,jog
29.29883138564274,2.016277315046227,1.1101774152686683,11.810981331452876,-0.08076727936439988,-0.17646369821434646,0.07860751689136392,438.9587173762876,535.4521373053715,495.8847314326962,jog
29.34891485809683,1.3649238197350944,0.46547726573265696,10.634176102405576,-0.9881830450685376,-0.7972871548443455,-0.7053766891441765,495.0236752223242,457.84955502353864,466.8068398563798,jog
29.398998330550917,0.06826438071551484,-0.6210374986085754,8.913661452184797,-0.5955933725135877,-0.3177819788242404,-0.2834893088799698,459.6020082606082,500.0643917221694,605.1421287075024,jog
29.449081803005008,-1.2214068533161984,-1.1563858322572207,7.99106703677985,-0.21232439651224644,0.8806780376293148,-0.5240132570293282,465.18858857992205,478.9700243933768,546.4380534803475,jog
29.4991652754591,-1.7173644476868297,-0.59020408564933,7.930392108847378,-0.6469058387367649,-0.15810034108450663,-0.22971571594018422,522.6638492453873,539.4550209663435,492.96730124966564,jog
29.54924874791319,-1.5172011702785553,-0.6830258385714008,9.19418580687058,-0.6365276163640942,-0.9896073916559067,-0.3442037204018207,434.0335375742669,457.639428334876,568.884757249301,jog
29.59933222036728,-0.18795040959700587,0.009247041498777309,10.955322552229907,1.649335617552234,1.0641917446705231,-0.32351827663150273,473.62143941662055,491.84011973962606,449.54371334521477,jog
29.64941569282137,1.1509181987085344,1.0644119947065698,12.172045365269282,0.601868606182057,0.43524713436327317,-0.39544157258649587,525.4494369551671,500.2976020697994,496.80728988489074,jog
29.69949916527546,1.7478226792201708,1.1146210583010974,11.796995320021065,-0.9629069913479233,-0.44344075113452985,0.3629329086639052,541.5993157681867,496.7114635861683,486.9298982493792,jog
29.74958263772955,1.1053821375098154,0.6477220795320338,10.364235299549827,0.03220062317601902,-0.41066440091530687,0.10493670281896761,436.536919255127,518.6821042144048,541.3375550999407,jog
29.79966611018364,0.23803427651758086,-0.790990657091678,8.493044573154126,-1.0524746283261968,-0.1381006008307327,-0.3236772584041111,477.8897116077804,567.3160348292663,513.4239790751857,jog
29.84974958263773,-1.310981881619142,-1.0494113788444346,7.779436760496417,-0.44711874811455204,-1.072521164696577,-1.2271802531175084,514.3654303603391,510.7689545921736,468.45493985679923,jog
29.899833055091822,-1.9415425441794074,-1.0739863907999065,7.8075482427666145,1.0393933345728161,-0.31820564670813206,-0.1300973140661695,492.77323097022855,461.51964363224715,522.4608991446843,jog
29.94991652754591,-1.176347547644251,-0.7707040252618766,9.664482548071492,-0.4542641992673405,0.13668985994513413,0.8130776354111843,444.2164904657074,495.7925656298014,535.0773599945436,jog
30.0,0.02721964953860731,0.35260340255449907,10.842113573678896,0.11808081899669852,1.8050414043420042,1.2373256170421543,586.3366871362157,543.775455781443,452.8794358922166,jog
