ax,ay,az,gx,gy,gz,mx,my,mz
0.14463286718832433,0.03766732739135137,-0.2404212649189188,-0.5632639488249366,-2.802494953102798,0.06382256440631451,-58.84807891197258,-27.519999916470326,-93.22147783893767
0.15220122718832432,0.03717902739135137,-0.23700326491891888,-1.8915081488249368,-1.4818842531027978,-1.5544977355936855,-58.84807891197258,-27.519999916470326,-93.22147783893767
0.1568398971883243,0.03913222739135136,-0.23920056491891883,1.9710872511750632,0.7089557468972019,-0.6995357355936854,-58.84807891197258,-26.59999991647034,-93.22147783893767
0.15732817718832431,0.042306027391351364,-0.24017706491891888,-0.013645748824936632,-1.5353192531027977,-1.7300707355936855,-58.84807891197258,-26.59999991647034,-93.22147783893767
0.15366606718832432,0.029122427391351402,-0.24237436491891884,2.8871182511750635,2.3883447468972023,-2.676635735593685,-58.84807891197258,-27.519999916470326,-93.22147783893767
0.15049223718832433,0.03473762739135139,-0.24969856491891884,2.3833012511750633,1.7929247468972025,-1.2644217355936855,-58.84807891197258,-27.519999916470326,-93.22147783893767
0.15391020718832432,0.0415736273913514,-0.24896616491891888,1.7344462511750636,0.2814747468972021,0.23939506440631453,-58.84807891197258,-27.519999916470326,-93.22147783893767
0.15171294718832434,0.04206182739135139,-0.2352942649189188,-0.2502868488249367,-3.2223422531027976,-2.577398735593685,-58.84807891197258,-27.519999916470326,-93.22147783893767
0.15244536718832433,0.036446627391351405,-0.23431776491891887,0.04742325117506341,-0.6345562531027977,-1.8674747355936852,-58.84807891197258,-27.519999916470326,-93.22147783893767
0.15537505718832434,0.03571422739135138,-0.2472571649189188,-0.23501964882493664,0.11353574689720203,0.3462653244063145,-58.84807891197258,-27.519999916470326,-93.22147783893767
0.14707426718832434,0.04084112739135137,-0.2426184649189188,0.9023852511750632,-0.840663253102798,0.10962416440631456,-58.84807891197258,-26.59999991647034,-93.22147783893767
0.14634184718832433,0.02985482739135137,-0.24554816491891884,2.3145982511750636,1.7318557468972018,-0.027780535593685485,-58.84807891197258,-26.59999991647034,-93.22147783893767
0.14683012718832433,0.024483727391351406,-0.25384896491891884,-0.4258593488249366,1.0601007468972026,0.5905401644063145,-58.84807891197258,-26.59999991647034,-93.22147783893767
0.14487700718832433,0.030831427391351363,-0.25018686491891884,0.5817742511750634,1.1593377468972021,0.15542566440631453,-58.84807891197258,-26.59999991647034,-93.22147783893767
0.15732817718832431,0.02985482739135137,-0.23968886491891883,-0.08998174882493659,0.21277274689720205,0.43786837440631454,-58.84807891197258,-26.59999991647034,-93.22147783893767
0.15244536718832433,0.03131972739135136,-0.24530406491891887,1.2993312511750634,-0.5124182531027976,-1.2567877355936856,-57.928078911972584,-27.519999916470326,-93.22147783893767
0.15146880718832434,0.023751327391351384,-0.24652476491891884,1.2000952511750635,-0.27577725310279755,0.0027538644063145323,-57.928078911972584,-27.519999916470326,-93.22147783893767
0.1529336471883243,0.038155627391351365,-0.23724736491891885,-1.0441799488249366,-0.6650902531027976,0.17832636440631452,-57.928078911972584,-27.519999916470326,-93.22147783893767
0.1531777871883243,0.03302862739135137,-0.2394446649189188,0.25353025117506345,-0.31394525310279775,0.5447385644063145,-57.928078911972584,-26.59999991647034,-93.22147783893767
0.14731841718832434,0.0332728273913514,-0.24383916491891888,1.3374992511750632,-0.7185252531027979,-0.7758717355936854,-57.928078911972584,-26.59999991647034,-93.22147783893767
0.15342192718832431,0.040597027391351403,-0.24383916491891888,0.4214692511750633,0.6326197468972024,0.43786837440631454,-58.84807891197258,-26.59999991647034,-93.22147783893767
0.15879301718832434,0.03351692739135137,-0.24579236491891887,0.7039112511750634,2.1440697468972023,0.8500820644063145,-58.84807891197258,-26.59999991647034,-93.22147783893767
0.15488676718832434,0.036690727391351374,-0.23920056491891883,-1.1968516888249365,-0.04676925310279767,-0.07358203559368548,-58.84807891197258,-26.59999991647034,-93.22147783893767
0.15098051718832434,0.03498182739135136,-0.23700326491891888,-0.4640272488249366,1.113535746897202,-0.9667117355936855,-57.928078911972584,-27.519999916470326,-93.22147783893767
0.15122466718832434,0.036446627391351405,-0.24701306491891883,0.8031482511750634,1.5868177468972022,-0.9209107355936855,-57.928078911972584,-27.519999916470326,-93.22147783893767
0.15342192718832431,0.0369349273913514,-0.24505986491891885,-0.7083020488249366,0.3120087468972019,-0.2873224355936854,-57.928078911972584,-27.519999916470326,-93.22147783893767
0.15098051718832434,0.03302862739135137,-0.24652476491891884,0.5817742511750634,0.8921617468972021,0.33863173440631456,-57.928078911972584,-26.59999991647034,-93.22147783893767
0.14341216718832434,0.020821627391351405,-0.2435950649189188,-0.3724241488249367,2.289107746897202,0.4684027344063145,-57.928078911972584,-26.59999991647034,-93.22147783893767
0.14365630718832434,0.02692512739135139,-0.2445716649189188,-1.0594471088249366,-0.7795942531027977,0.20122716440631452,-57.928078911972584,-26.59999991647034,-93.22147783893767
0.14829497718832432,0.031563827391351384,-0.23700326491891888,-0.2579204488249366,0.49521474689720213,-0.05068123559368548,-58.84807891197258,-26.59999991647034,-93.22147783893767
0.14780669718832434,0.03424932739135139,-0.24798956491891888,0.4291022511750633,0.8539937468972023,0.8577156644063145,-58.84807891197258,-26.59999991647034,-93.22147783893767
0.14609770718832432,0.02765752739135141,-0.2482337649189188,1.5512402511750634,0.869260746897202,0.5676393644063146,-57.928078911972584,-26.59999991647034,-94.14147783893767
0.14878325718832433,0.032784527391351403,-0.24603646491891884,1.4596372511750633,0.9913977468972024,0.5294714644063145,-57.928078911972584,-26.59999991647034,-94.14147783893767
0.15366606718832432,0.04279432739135136,-0.2426184649189188,-0.06708074882493653,-0.45135025310279797,0.30046379440631454,-57.928078911972584,-26.59999991647034,-94.14147783893767
0.15561919718832434,0.03962042739135141,-0.23505016491891884,-0.5632639488249366,-1.8482962531027978,0.0027538644063145323,-57.928078911972584,-26.59999991647034,-93.22147783893767
0.15342192718832431,0.03400522739135137,-0.2467688649189188,0.9329192511750635,0.8539937468972023,0.01038746440631455,-57.928078911972584,-26.59999991647034,-93.22147783893767
0.14805083718832432,0.026436827391351392,-0.2582434649189188,0.2916982511750634,-0.39791425310279793,0.6592423644063146,-57.928078911972584,-26.59999991647034,-93.22147783893767
0.14609770718832432,0.02936652739135137,-0.24798956491891888,1.1848272511750633,0.2509397468972021,1.7737462644063147,-57.928078911972584,-26.59999991647034,-93.22147783893767
0.14634184718832433,0.03424932739135139,-0.23505016491891884,1.0550562511750634,-1.1536402531027976,0.3309981544063145,-57.928078911972584,-26.59999991647034,-93.22147783893767
0.14805083718832432,0.0337611273913514,-0.2440833649189188,1.0245222511750636,1.266207746897202,0.6363416644063145,-57.928078911972584,-26.59999991647034,-93.22147783893767
0.15635161718832433,0.0296107273913514,-0.25067516491891884,-0.4182257488249367,0.7089557468972019,1.4760362644063147,-57.928078911972584,-26.59999991647034,-93.22147783893767
0.15928130718832434,0.03424932739135139,-0.24652476491891884,-0.2197524488249366,2.021932746897202,1.7126772644063144,-57.928078911972584,-26.59999991647034,-93.22147783893767
0.16416411718832433,0.0374232273913514,-0.23749156491891887,1.0016212511750635,-2.382647253102798,-0.7377037355936854,-57.928078911972584,-26.59999991647034,-93.22147783893767
0.15586333718832432,0.03424932739135139,-0.2467688649189188,0.9558202511750635,-1.3750142531027976,-1.6461007355936852,-57.928078911972584,-26.59999991647034,-93.22147783893767
0.14951567718832431,0.035225927391351386,-0.2445716649189188,0.13139225117506337,-1.9398992531027979,-1.8598417355936854,-57.928078911972584,-26.59999991647034,-93.22147783893767
0.14975981718832432,0.035225927391351386,-0.24066536491891888,-0.021278748824936633,-2.474250253102798,-2.478161735593685,-57.928078911972584,-26.59999991647034,-94.14147783893767
0.14438872718832432,0.0337611273913514,-0.2399329649189188,2.5054382511750632,1.7700237468972024,-1.6995357355936855,-57.928078911972584,-26.59999991647034,-94.14147783893767
0.14731841718832434,0.03351692739135137,-0.24750136491891883,-0.11288174882493673,1.7089557468972019,-1.5239637355936853,-57.928078911972584,-26.59999991647034,-93.22147783893767
0.14975981718832432,0.03473762739135139,-0.2394446649189188,-0.7159356488249367,0.4265127468972021,0.17069286440631454,-57.928078911972584,-26.59999991647034,-93.22147783893767
0.13999419718832432,0.027901727391351383,-0.2426184649189188,0.05505625117506341,1.021932746897202,0.07908976440631454,-57.928078911972584,-26.59999991647034,-93.22147783893767
0.1492715371883243,0.02985482739135137,-0.23920056491891883,-0.2579204488249366,-1.3139452531027977,0.18595996440631454,-57.928078911972584,-26.59999991647034,-93.22147783893767
0.14194731718832432,0.03205212739135138,-0.24628066491891887,1.2611632511750632,0.18987174689720243,-2.0201467355936855,-57.928078911972584,-26.59999991647034,-93.22147783893767
0.14365630718832434,0.028634127391351405,-0.2426184649189188,0.6275762511750633,1.3272757468972025,-0.6079331355936854,-57.928078911972584,-26.59999991647034,-93.22147783893767
0.15146880718832434,0.03180792739135141,-0.24335096491891883,0.7115452511750633,1.4494137468972021,0.5218378644063145,-57.928078911972584,-26.59999991647034,-93.22147783893767
0.14390044718832434,0.03180792739135141,-0.2445716649189188,1.8031482511750632,1.0524667468972022,1.1630592644063147,-57.928078911972584,-26.59999991647034,-93.22147783893767
0.14975981718832432,0.03595832739135141,-0.24286266491891884,-0.8991417488249367,0.07536774689720227,0.5829065644063145,-57.928078911972584,-26.59999991647034,-93.22147783893767
0.15439848718832433,0.031075527391351387,-0.2409095649189188,0.07032425117506347,0.12880274689720217,-1.6766357355936852,-57.00807891197258,-26.59999991647034,-93.22147783893767
0.14878325718832433,0.034493527391351364,-0.24115366491891888,1.8413162511750634,-0.03150225310279797,0.09435686440631452,-57.00807891197258,-26.59999991647034,-93.22147783893767
0.13804106718832432,0.036690727391351374,-0.23553846491891883,-0.6777677488249366,-1.1460062531027977,0.21649436440631453,-57.00807891197258,-26.59999991647034,-93.22147783893767
0.14707426718832434,0.038155627391351365,-0.23749156491891887,1.3298662511750634,0.06773374689720235,-0.16518503559368547,-57.928078911972584,-27.519999916470326,-93.22147783893767
0.14853911718832433,0.030343127391351365,-0.24750136491891883,0.10085825117506331,1.8768947468972024,-0.7606047355936855,-57.928078911972584,-27.519999916470326,-93.22147783893767
0.15244536718832433,0.030343127391351365,-0.24530406491891887,-0.10524874882493673,0.8310927468972023,-1.6384677355936854,-57.928078911972584,-27.519999916470326,-93.22147783893767
0.15342192718832431,0.03400522739135137,-0.24554816491891884,-0.02891274882493655,-0.12310525310279763,0.12489126440631454,-57.928078911972584,-26.59999991647034,-93.22147783893767
0.14805083718832432,0.03205212739135138,-0.2467688649189188,1.5817742511750632,0.34254374689720235,-1.2186197355936854,-57.928078911972584,-26.59999991647034,-93.22147783893767
0.14683012718832433,0.03473762739135139,-0.24847786491891888,-0.5632639488249366,2.0601007468972026,-1.9209107355936852,-57.928078911972584,-26.59999991647034,-93.22147783893767
0.14975981718832432,0.0332728273913514,-0.2435950649189188,-1.3266226488249366,2.7013217468972024,-3.5392307355936854,-57.928078911972584,-26.59999991647034,-93.22147783893767
0.15049223718832433,0.029122427391351402,-0.22162236491891885,-1.0518135488249367,1.7700237468972024,-4.004879735593685,-57.928078911972584,-26.59999991647034,-93.22147783893767
0.14853911718832433,0.03351692739135137,-0.24115366491891888,-0.1510497488249367,0.7394897468972021,0.02565466440631453,-57.928078911972584,-27.519999916470326,-93.22147783893767
0.14121489718832433,0.036690727391351374,-0.23749156491891887,-0.7006684488249366,0.06773374689720235,-0.33312393559368547,-57.928078911972584,-27.519999916470326,-93.22147783893767
0.14975981718832432,0.030831427391351363,-0.2509192649189188,0.5665072511750633,1.0295657468972021,1.5447382644063143,-57.928078911972584,-27.519999916470326,-93.22147783893767
0.15098051718832434,0.0369349273913514,-0.24652476491891884,-2.6701337488249366,-0.1841742531027979,0.31573097440631454,-58.84807891197258,-26.59999991647034,-93.22147783893767
0.15220122718832432,0.03473762739135139,-0.23334116491891888,0.8107822511750633,0.5715507468972025,0.15542566440631453,-58.84807891197258,-26.59999991647034,-93.22147783893767
0.15268950718832433,0.0337611273913514,-0.24969856491891884,2.0245222511750636,-0.11547225310279785,-0.4476277355936855,-58.84807891197258,-26.59999991647034,-93.22147783893767
0.14634184718832433,0.03205212739135138,-0.23407356491891884,1.9023852511750632,1.312008746897202,0.47603631440631455,-58.84807891197258,-26.59999991647034,-93.22147783893767
0.14853911718832433,0.03888802739135139,-0.2509192649189188,-1.0518135488249367,1.197505746897202,1.3920672644063146,-58.84807891197258,-26.59999991647034,-93.22147783893767
0.1492715371883243,0.04181772739135137,-0.24017706491891888,1.5817742511750632,2.0142987468972025,0.5981736644063145,-57.928078911972584,-26.59999991647034,-93.22147783893767
0.15049223718832433,0.03620252739135138,-0.24115366491891888,0.4291022511750633,1.7700237468972024,-0.8064067355936854,-57.928078911972584,-26.59999991647034,-93.22147783893767
0.15342192718832431,0.032296227391351406,-0.24798956491891888,-0.021278748824936633,0.02956574689720215,0.39206685240631456,-57.928078911972584,-26.59999991647034,-93.22147783893767
0.14560942718832431,0.03766732739135137,-0.24652476491891884,-2.288454748824937,-2.3750142531027976,0.23939506440631453,-58.84807891197258,-26.59999991647034,-93.22147783893767
0.14805083718832432,0.04499152739135137,-0.23382946491891887,0.7268122511750634,-1.107838253102798,-0.05068123559368548,-58.84807891197258,-26.59999991647034,-93.22147783893767
0.15049223718832433,0.0332728273913514,-0.24066536491891888,0.6199422511750634,0.38834474689720233,-0.9819787355936854,-58.84807891197258,-27.519999916470326,-93.22147783893767
0.13779692718832431,0.026192727391351367,-0.2531165649189189,0.15429325117506343,-0.21470825310279773,0.5447385644063145,-58.84807891197258,-27.519999916470326,-93.22147783893767
0.14609770718832432,0.03351692739135137,-0.22967906491891887,1.5283392511750633,2.243306746897202,0.9569523644063145,-58.84807891197258,-27.519999916470326,-93.22147783893767
0.1492715371883243,0.03791142739135139,-0.24139776491891884,1.0550562511750634,1.5868177468972022,-0.8216737355936855,-58.84807891197258,-26.59999991647034,-93.22147783893767
0.14951567718832431,0.03498182739135136,-0.2467688649189188,0.024522251175063348,-2.649823253102798,-0.36365833559368543,-58.84807891197258,-26.59999991647034,-93.22147783893767
0.1490273971883243,0.036690727391351374,-0.2367591649189188,0.07795725117506347,1.9990317468972019,1.0409217644063147,-58.84807891197258,-26.59999991647034,-93.22147783893767
0.15659575718832433,0.03888802739135139,-0.23700326491891888,-0.5556302488249366,0.2814747468972021,0.08672336440631451,-57.928078911972584,-26.59999991647034,-93.22147783893767
0.15513091718832434,0.04084112739135137,-0.24188606491891884,0.49780525117506347,-1.8024952531027978,-0.4018263355936854,-57.928078911972584,-26.59999991647034,-93.22147783893767
0.1414590371883243,0.0374232273913514,-0.24603646491891884,1.1084922511750634,-0.35974725310279787,-0.004879735593685486,-57.928078911972584,-27.519999916470326,-93.22147783893767
0.13926176718832434,0.040597027391351403,-0.2389563649189188,-1.0823478688249366,-1.0162352531027978,-0.7377037355936854,-57.928078911972584,-27.519999916470326,-93.22147783893767
0.1414590371883243,0.03717902739135137,-0.2504309649189188,1.5436062511750634,1.380711746897202,-0.3254904355936855,-57.928078911972584,-27.519999916470326,-93.22147783893767
0.14560942718832431,0.03547002739135141,-0.2472571649189188,1.4443692511750634,0.579184746897202,1.3538988644063146,-57.928078911972584,-27.519999916470326,-93.22147783893767
0.14219145718832432,0.03058722739135139,-0.23236456491891888,1.0397892511750633,1.357810746897202,1.6592422644063145,-57.928078911972584,-27.519999916470326,-93.22147783893767
0.14756255718832434,0.03571422739135138,-0.24286266491891884,1.4443692511750634,1.1669707468972024,0.7966470644063146,-57.928078911972584,-27.519999916470326,-93.22147783893767
0.15049223718832433,0.03717902739135137,-0.24017706491891888,0.8489502511750633,0.5868177468972022,-0.5544980355936855,-57.928078911972584,-26.59999991647034,-93.22147783893767
0.14365630718832434,0.03302862739135137,-0.24579236491891887,0.32223225117506327,-1.8482962531027978,-1.1728187355936854,-57.928078911972584,-26.59999991647034,-93.22147783893767
0.14267973718832433,0.034493527391351364,-0.24432746491891888,0.5512402511750634,-0.9933342531027978,-1.2338877355936853,-57.928078911972584,-26.59999991647034,-93.22147783893767
0.14634184718832433,0.03498182739135136,-0.24554816491891884,1.5817742511750632,0.47231374689720207,-0.8293067355936855,-57.928078911972584,-26.59999991647034,-93.22147783893767
0.14585356718832432,0.03571422739135138,-0.2472571649189188,2.5512402511750634,0.5257497468972026,-0.5392308355936855,-57.928078911972584,-26.59999991647034,-93.22147783893767
0.14048247718832432,0.03498182739135136,-0.24213026491891887,-0.9449433488249366,-1.428449253102798,-0.5086964355936855,-57.928078911972584,-26.59999991647034,-93.22147783893767
0.14487700718832433,0.03351692739135137,-0.24066536491891888,2.0245222511750636,1.6784217468972025,1.1859599644063146,-57.928078911972584,-26.59999991647034,-93.22147783893767
0.14267973718832433,0.026192727391351367,-0.24945446491891887,3.3756672511750634,-0.8635632531027979,1.9264182644063146,-57.928078911972584,-26.59999991647034,-93.22147783893767
0.13633208718832432,0.02765752739135141,-0.25433726491891884,-1.2579203888249366,-3.894097953102798,1.1554255644063145,-57.928078911972584,-26.59999991647034,-93.22147783893767
0.09531645718832432,0.05280402739135137,-0.2628821649189188,1.8642172511750634,-2.588754253102798,-2.646100735593685,-57.928078911972584,-26.59999991647034,-94.14147783893767
0.13242583718832432,0.04328252739135141,-0.23334116491891888,1.9863542511750634,3.029565746897202,-0.6155667355936855,-57.928078911972584,-26.59999991647034,-94.14147783893767
0.15488676718832434,0.034493527391351364,-0.24164196491891887,1.9176522511750633,4.487581746897202,-0.5468644355936855,-57.928078911972584,-26.59999991647034,-94.14147783893767
0.15073637718832433,0.023263027391351387,-0.2521399649189189,-1.3876913488249367,-1.8177622531027977,0.36916608440631454,-57.00807891197258,-26.59999991647034,-94.14147783893767
0.13975005718832434,0.036446627391351405,-0.22674936491891884,-1.2350196288249367,0.9608637468972021,-0.04304763559368546,-57.00807891197258,-26.59999991647034,-94.14147783893767
0.13828520718832432,0.03791142739135139,-0.24554816491891884,1.3833012511750633,0.5028487468972025,-1.9972457355936855,-57.928078911972584,-26.59999991647034,-93.22147783893767
0.15049223718832433,0.028634127391351405,-0.2482337649189188,1.0779572511750635,0.4417797468972018,1.7813802644063146,-57.928078911972584,-26.59999991647034,-93.22147783893767
0.14072661718832433,0.028878227391351374,-0.23846816491891887,0.9710872511750632,2.266207746897202,1.8958832644063146,-57.928078911972584,-26.59999991647034,-93.22147783893767
0.14023833718832432,0.03595832739135141,-0.24286266491891884,0.2458962511750633,2.5257497468972026,0.6821431644063145,-57.928078911972584,-26.59999991647034,-93.22147783893767
0.15073637718832433,0.028634127391351405,-0.24921026491891884,0.40620225117506337,1.800558746897202,0.8653492644063145,-57.928078911972584,-26.59999991647034,-93.22147783893767
0.15610747718832432,0.035225927391351386,-0.2482337649189188,-0.9907448488249366,0.47231374689720207,0.46076914440631456,-57.928078911972584,-26.59999991647034,-93.22147783893767
0.15024809718832433,0.0332728273913514,-0.23968886491891883,2.337499251175063,0.5639177468972023,-1.9056427355936854,-57.928078911972584,-26.59999991647034,-93.22147783893767
0.13779692718832431,0.035225927391351386,-0.24530406491891887,1.8718502511750632,0.2814747468972021,-1.0583147355936853,-57.928078911972584,-26.59999991647034,-93.22147783893767
0.14219145718832432,0.03254042739135138,-0.24628066491891887,0.5741402511750633,2.334909746897202,1.6134412644063145,-57.928078911972584,-26.59999991647034,-94.14147783893767
0.14219145718832432,0.030098927391351393,-0.2409095649189188,0.6428432511750635,1.3730777468972026,0.17069286440631454,-57.928078911972584,-26.59999991647034,-94.14147783893767
0.14487700718832433,0.030831427391351363,-0.24066536491891888,-0.1815845488249367,-0.1994412531027976,-1.2873227355936856,-57.928078911972584,-26.59999991647034,-94.14147783893767
0.13877348718832433,0.03962042739135141,-0.24066536491891888,-0.7846379488249366,-0.22234225310279765,-0.33312393559368547,-57.928078911972584,-26.59999991647034,-93.22147783893767
0.1531777871883243,0.04377082739135141,-0.24139776491891884,-0.2960882488249367,1.0295657468972021,-0.7682387355936854,-57.928078911972584,-26.59999991647034,-93.22147783893767
0.14048247718832432,0.03547002739135141,-0.23846816491891887,0.3680342511750634,0.556283746897202,0.5523721644063145,-57.928078911972584,-26.59999991647034,-93.22147783893767
0.14463286718832433,0.03254042739135138,-0.24017706491891888,2.9558202511750635,3.3272757468972025,1.7508452644063146,-57.928078911972584,-26.59999991647034,-94.14147783893767
0.1414590371883243,0.03131972739135136,-0.2440833649189188,0.8413162511750634,2.8768947468972024,0.9722194644063146,-57.928078911972584,-26.59999991647034,-94.14147783893767
0.14609770718832432,0.026436827391351392,-0.24603646491891884,-0.12051574882493665,0.4417797468972018,0.43786837440631454,-57.928078911972584,-26.59999991647034,-94.14147783893767
0.13877348718832433,0.03595832739135141,-0.2435950649189188,-1.2502867988249367,-2.527685253102798,0.33863173440631456,-57.928078911972584,-26.59999991647034,-94.14147783893767
0.1453652871883243,0.0410853273913514,-0.2394446649189188,-0.5174624488249366,-0.12310525310279763,0.10199046440631454,-57.928078911972584,-26.59999991647034,-94.14147783893767
0.14292387718832433,0.03839972739135139,-0.24505986491891885,0.6581102511750634,1.2814747468972025,0.5065706644063145,-57.928078911972584,-26.59999991647034,-94.14147783893767
0.14756255718832434,0.03473762739135139,-0.24335096491891883,2.4214692511750635,3.228039746897202,0.6821431644063145,-57.928078911972584,-26.59999991647034,-94.14147783893767
0.14438872718832432,0.026681027391351364,-0.24969856491891884,2.5359722511750635,0.25857374689720203,0.5294714644063145,-57.928078911972584,-26.59999991647034,-94.14147783893767
0.14243559718832433,0.0374232273913514,-0.24481576491891888,0.8871182511750635,0.9303297468972018,0.5523721644063145,-57.928078911972584,-26.59999991647034,-93.22147783893767
0.14365630718832434,0.03595832739135141,-0.24286266491891884,1.7115452511750635,2.0371997468972025,0.07145616440631453,-57.928078911972584,-26.59999991647034,-93.22147783893767
0.14683012718832433,0.03131972739135136,-0.24335096491891883,1.4520032511750633,0.5868177468972022,-0.05831483559368544,-57.928078911972584,-26.59999991647034,-93.22147783893767
0.14292387718832433,0.0296107273913514,-0.23968886491891883,1.5436062511750634,0.6020857468972021,0.3997004444063145,-57.928078911972584,-26.59999991647034,-93.22147783893767
0.14609770718832432,0.036690727391351374,-0.24286266491891884,-0.7083020488249366,0.47994774689720243,0.5371050644063146,-57.928078911972584,-26.59999991647034,-93.22147783893767
0.14707426718832434,0.03424932739135139,-0.2477454649189188,-0.2884547488249366,2.1898717468972024,-0.8445747355936856,-57.928078911972584,-26.59999991647034,-94.14147783893767
0.1490273971883243,0.038155627391351365,-0.23651496491891888,0.07032425117506347,0.556283746897202,-1.0430477355936856,-57.928078911972584,-26.59999991647034,-94.14147783893767
0.14658598718832433,0.040597027391351403,-0.24969856491891884,1.6275762511750633,0.3272757468972025,1.1859599644063146,-57.928078911972584,-26.59999991647034,-94.14147783893767
0.14243559718832433,0.040108727391351406,-0.24530406491891887,-0.7770043488249366,-0.6650902531027976,0.7279447644063146,-57.928078911972584,-26.59999991647034,-94.14147783893767
0.14316801718832434,0.0369349273913514,-0.24164196491891887,0.15429325117506343,0.10590174689720211,-0.035414035593685445,-57.928078911972584,-26.59999991647034,-94.14147783893767
0.14634184718832433,0.02936652739135137,-0.23700326491891888,-0.11288174882493673,2.5486497468972025,-0.1804522355936855,-57.928078911972584,-26.59999991647034,-93.22147783893767
0.14658598718832433,0.03180792739135141,-0.25067516491891884,0.7191792511750634,1.602085746897202,-0.4628950355936855,-57.928078911972584,-26.59999991647034,-93.22147783893767
0.14560942718832431,0.034493527391351364,-0.24603646491891884,-0.1892181488249366,-1.3444792531027976,0.14015846440631455,-57.928078911972584,-26.59999991647034,-93.22147783893767
0.13657622718832432,0.034493527391351364,-0.24505986491891885,0.6810112511750634,0.5333827468972019,-0.7682387355936854,-57.928078911972584,-26.59999991647034,-93.22147783893767
0.14390044718832434,0.02936652739135137,-0.2504309649189188,1.2611632511750632,3.228039746897202,-0.3560247355936854,-57.928078911972584,-26.59999991647034,-93.22147783893767
0.14097075718832433,0.03839972739135139,-0.2514075649189188,-0.2731875488249367,-1.039136253102798,0.10199046440631454,-57.928078911972584,-26.59999991647034,-93.22147783893767
0.13926176718832434,0.04084112739135137,-0.24164196491891887,-0.3647906488249366,1.0371997468972025,1.2088607644063145,-57.928078911972584,-26.59999991647034,-94.14147783893767
0.13682036718832433,0.038155627391351365,-0.24432746491891888,0.27643025117506337,-0.8177622531027979,0.17832636440631452,-57.928078911972584,-26.59999991647034,-94.14147783893767
0.13999419718832432,0.0337611273913514,-0.24530406491891887,1.2000952511750635,2.159337746897202,0.5218378644063145,-57.928078911972584,-26.59999991647034,-93.22147783893767
0.15024809718832433,0.02765752739135141,-0.2431067649189188,1.4443692511750634,1.5257497468972026,0.08672336440631451,-57.928078911972584,-26.59999991647034,-93.22147783893767
0.14097075718832433,0.0374232273913514,-0.24335096491891883,0.8642172511750634,0.6173527468972027,0.11725766440631452,-57.928078911972584,-26.59999991647034,-93.22147783893767
0.14707426718832434,0.0296107273913514,-0.24286266491891884,1.1619272511750633,2.113535746897202,0.28519662440631455,-57.928078911972584,-26.59999991647034,-93.22147783893767
0.15073637718832433,0.028145827391351408,-0.24603646491891884,0.3451332511750633,-0.6956242531027979,-0.1880858355936854,-58.84807891197258,-26.59999991647034,-93.22147783893767
0.1490273971883243,0.03131972739135136,-0.23700326491891888,-1.0441799488249366,0.3272757468972025,-0.43999423559368545,-58.84807891197258,-26.59999991647034,-93.22147783893767
0.14658598718832433,0.03791142739135139,-0.24652476491891884,0.8565832511750635,3.312008746897202,-0.3483911355936855,-58.84807891197258,-26.59999991647034,-93.22147783893767
0.14756255718832434,0.03424932739135139,-0.2445716649189188,0.30696525117506335,1.1211697468972024,-0.1728186355936855,-58.84807891197258,-26.59999991647034,-94.14147783893767
0.15439848718832433,0.03058722739135139,-0.24213026491891887,1.2611632511750632,2.647886746897202,0.18595996440631454,-58.84807891197258,-26.59999991647034,-94.14147783893767
0.14853911718832433,0.03839972739135139,-0.24579236491891887,1.0474232511750632,1.8616277468972027,0.8882500644063145,-58.84807891197258,-26.59999991647034,-94.14147783893767
0.15366606718832432,0.03351692739135137,-0.24530406491891887,1.1161252511750632,1.556283746897202,1.0561889644063145,-58.84807891197258,-26.59999991647034,-94.14147783893767
0.14878325718832433,0.03595832739135141,-0.23334116491891888,0.06269025117506333,0.06010074689720213,-0.012513335593685448,-58.84807891197258,-26.59999991647034,-94.14147783893767
0.1453652871883243,0.035225927391351386,-0.24652476491891884,-0.05944674882493661,-1.1231052531027976,-0.020146935593685467,-57.928078911972584,-26.59999991647034,-94.14147783893767
0.14463286718832433,0.0332728273913514,-0.2362708649189188,1.0016212511750635,-0.1536402531027976,-0.004879735593685486,-57.928078911972584,-26.59999991647034,-94.14147783893767
0.14780669718832434,0.03424932739135139,-0.25409316491891887,1.6123082511750635,1.403611746897202,0.3767996764063145,-57.928078911972584,-26.59999991647034,-94.14147783893767
0.14756255718832434,0.03571422739135138,-0.24432746491891888,-0.12814974882493657,1.4112457468972024,0.8577156644063145,-58.84807891197258,-26.59999991647034,-94.14147783893767
0.1451211471883243,0.03571422739135138,-0.24017706491891888,-0.05944674882493661,0.5868177468972022,-0.5697652355936854,-58.84807891197258,-26.59999991647034,-94.14147783893767
0.14463286718832433,0.03962042739135141,-0.23382946491891887,1.1161252511750632,0.5181157468972022,0.46076914440631456,-58.84807891197258,-26.59999991647034,-94.14147783893767
0.14756255718832434,0.04084112739135137,-0.23822396491891884,-0.3495234488249366,1.0295657468972021,-1.1957197355936855,-57.928078911972584,-26.59999991647034,-93.22147783893767
0.14878325718832433,0.03131972739135136,-0.24286266491891884,1.7497132511750633,-0.9093652531027976,-0.027780535593685485,-57.928078911972584,-26.59999991647034,-93.22147783893767
0.14585356718832432,0.03131972739135136,-0.25287236491891885,1.0168892511750633,0.03719974689720207,0.4989370644063145,-57.928078911972584,-26.59999991647034,-94.14147783893767
0.14463286718832433,0.034493527391351364,-0.2472571649189188,1.2153622511750632,3.334909746897202,0.6210744644063145,-57.928078911972584,-26.59999991647034,-94.14147783893767
0.15586333718832432,0.028145827391351408,-0.24213026491891887,-0.7464699488249367,0.8081917468972022,-0.10411633559368544,-57.928078911972584,-26.59999991647034,-94.14147783893767
0.1492715371883243,0.02839002739135138,-0.2326087649189188,1.4520032511750633,0.4875817468972019,0.6668760644063145,-57.928078911972584,-26.59999991647034,-93.22147783893767
0.14609770718832432,0.03498182739135136,-0.24237436491891884,0.20772825117506333,-1.352113253102798,0.13252486440631456,-57.928078911972584,-26.59999991647034,-93.22147783893767
0.14853911718832433,0.03864392739135136,-0.2389563649189188,-1.1434165688249367,-1.2757772531027975,0.4989370644063145,-57.928078911972584,-26.59999991647034,-93.22147783893767
0.1414590371883243,0.032296227391351406,-0.24505986491891885,2.1390262511750633,1.136435746897202,0.5829065644063145,-57.928078911972584,-26.59999991647034,-93.22147783893767
0.13950591718832434,0.03547002739135141,-0.2518958649189188,-0.9220425488249366,0.16697074689720237,-0.11174993559368546,-57.928078911972584,-26.59999991647034,-93.22147783893767
0.14560942718832431,0.03547002739135141,-0.2487220649189188,1.4825372511750632,-0.22997625310279757,-0.19571943559368543,-57.928078911972584,-26.59999991647034,-93.22147783893767
0.14853911718832433,0.038155627391351365,-0.2399329649189188,-0.05181374882493661,0.2891077468972023,0.10962416440631456,-57.928078911972584,-26.59999991647034,-93.22147783893767
0.14097075718832433,0.038155627391351365,-0.24383916491891888,-0.12051574882493665,-0.6956242531027979,0.3309981544063145,-57.928078911972584,-26.59999991647034,-93.22147783893767
0.14487700718832433,0.03571422739135138,-0.24164196491891887,0.4749042511750634,0.9455967468972024,0.9264179644063145,-57.928078911972584,-26.59999991647034,-93.22147783893767
0.13926176718832434,0.03351692739135137,-0.2504309649189188,-0.09761474882493659,0.006665746897202229,0.33863173440631456,-57.928078911972584,-26.59999991647034,-93.22147783893767
0.14097075718832433,0.031563827391351384,-0.24554816491891884,-0.2502868488249367,0.4417797468972018,0.8653492644063145,-57.928078911972584,-26.59999991647034,-93.22147783893767
0.13877348718832433,0.034493527391351364,-0.2404212649189188,0.8565832511750635,0.7242227468972025,-0.6232007355936854,-57.928078911972584,-26.59999991647034,-94.14147783893767
0.14194731718832432,0.032296227391351406,-0.23968886491891883,0.2382632511750633,0.556283746897202,-0.36365833559368543,-57.928078911972584,-26.59999991647034,-94.14147783893767
0.15537505718832434,0.03254042739135138,-0.24286266491891884,1.1084922511750634,1.334909746897202,0.5752729644063146,-58.84807891197258,-26.59999991647034,-94.14147783893767
0.14414458718832432,0.03571422739135138,-0.2440833649189188,1.1390262511750633,-0.3292122531027979,0.20122716440631452,-58.84807891197258,-26.59999991647034,-94.14147783893767
0.14463286718832433,0.032296227391351406,-0.24481576491891888,-0.8686073488249366,-1.1689072531027977,0.22412796440631452,-58.84807891197258,-26.59999991647034,-94.14147783893767
0.14292387718832433,0.03254042739135138,-0.2404212649189188,-0.7159356488249367,0.12880274689720217,0.02565466440631453,-57.928078911972584,-26.59999991647034,-94.14147783893767
0.14707426718832434,0.0337611273913514,-0.24432746491891888,0.39856825117506345,0.6326197468972024,0.18595996440631454,-57.928078911972584,-26.59999991647034,-94.14147783893767
0.15000395718832432,0.030098927391351393,-0.24432746491891888,0.08559125117506339,-0.741426253102798,1.0256545644063144,-57.928078911972584,-26.59999991647034,-94.14147783893767
0.14292387718832433,0.03498182739135136,-0.24066536491891888,0.8642172511750634,-0.642189253102798,1.7737462644063147,-57.928078911972584,-26.59999991647034,-93.22147783893767
0.14560942718832431,0.03766732739135137,-0.2394446649189188,0.10085825117506331,-0.9017312531027977,0.6821431644063145,-57.928078911972584,-26.59999991647034,-93.22147783893767
0.14683012718832433,0.031563827391351384,-0.2426184649189188,1.7191792511750634,0.6402537468972018,0.7508454644063145,-57.928078911972584,-26.59999991647034,-93.22147783893767
0.14560942718832431,0.03058722739135139,-0.23700326491891888,-0.9144089488249366,-0.48951825310279773,-0.22625373559368545,-57.928078911972584,-26.59999991647034,-93.22147783893767
0.14463286718832433,0.040597027391351403,-0.24188606491891884,1.2000952511750635,0.6020857468972021,0.5218378644063145,-57.928078911972584,-26.59999991647034,-93.22147783893767
0.14438872718832432,0.04206182739135139,-0.23920056491891883,0.40620225117506337,-0.09257125310279779,-1.0735817355936854,-57.928078911972584,-26.59999991647034,-93.22147783893767
0.14097075718832433,0.030831427391351363,-0.24481576491891888,0.9787212511750636,0.647886746897202,-0.9361777355936854,-57.928078911972584,-26.59999991647034,-93.22147783893767
0.14951567718832431,0.023018927391351363,-0.24896616491891888,-0.9449433488249366,-0.36738025310279765,0.4684027344063145,-57.928078911972584,-26.59999991647034,-93.22147783893767
0.14023833718832432,0.03302862739135137,-0.24237436491891884,0.05505625117506341,0.1364367468972021,0.35389891440631455,-57.928078911972584,-26.59999991647034,-93.22147783893767
0.13804106718832432,0.02985482739135137,-0.2399329649189188,1.0397892511750633,0.09826874689720233,-0.9361777355936854,-57.928078911972584,-26.59999991647034,-93.22147783893767
0.14731841718832434,0.03595832739135141,-0.23846816491891887,0.8031482511750634,-0.642189253102798,0.5752729644063146,-57.928078911972584,-26.59999991647034,-93.22147783893767
0.14487700718832433,0.035225927391351386,-0.23822396491891884,1.4138352511750631,-0.3368462531027978,0.4684027344063145,-57.928078911972584,-26.59999991647034,-93.22147783893767
0.14292387718832433,0.03400522739135137,-0.24579236491891887,2.8489502511750637,1.9990317468972019,0.5981736644063145,-57.00807891197258,-26.59999991647034,-93.22147783893767
0.13901762718832433,0.03424932739135139,-0.24554816491891884,-0.3647906488249366,0.556283746897202,0.03328826440631455,-57.00807891197258,-26.59999991647034,-93.22147783893767
0.13975005718832434,0.04035292739135138,-0.24554816491891884,-0.9373096488249366,-0.5200522531027976,0.2622958644063145,-57.928078911972584,-26.59999991647034,-93.22147783893767
0.14390044718832434,0.03913222739135136,-0.24554816491891884,0.31459825117506335,-0.8253952531027977,-0.08884913559368546,-57.928078911972584,-26.59999991647034,-93.22147783893767
0.14365630718832434,0.0332728273913514,-0.24432746491891888,0.45963725117506327,1.3272757468972025,-0.3560247355936854,-57.928078911972584,-26.59999991647034,-93.22147783893767
0.14170317718832431,0.02936652739135137,-0.2526282649189189,3.322232251175063,3.716588746897202,0.07145616440631453,-57.928078911972584,-26.59999991647034,-93.22147783893767
0.14023833718832432,0.032296227391351406,-0.2594641649189189,0.26879725117506337,0.2356727468972024,1.4836702644063147,-57.928078911972584,-26.59999991647034,-93.22147783893767
0.14023833718832432,0.04621222739135139,-0.2362708649189188,0.18482725117506327,0.7852917468972023,1.6516092644063147,-57.928078911972584,-26.59999991647034,-93.22147783893767
0.14609770718832432,0.036446627391351405,-0.23846816491891887,1.5588732511750631,-0.3826472531027978,-0.16518503559368547,-57.928078911972584,-26.59999991647034,-93.22147783893767
0.14341216718832434,0.030343127391351365,-0.2435950649189188,2.658110251175063,2.3959777468972026,-0.09648273559368548,-57.928078911972584,-26.59999991647034,-93.22147783893767
0.14438872718832432,0.02399542739135141,-0.2523841649189188,2.0703242511750632,-0.5200522531027976,-0.37892553559368547,-57.928078911972584,-26.59999991647034,-93.22147783893767
0.1492715371883243,0.03180792739135141,-0.2477454649189188,-0.12814974882493657,-0.8940982531027979,0.20122716440631452,-57.928078911972584,-26.59999991647034,-93.22147783893767
0.14072661718832433,0.031563827391351384,-0.24481576491891888,3.032156251175063,-1.1231052531027976,-1.4705287355936854,-57.928078911972584,-26.59999991647034,-93.22147783893767
0.1414590371883243,0.02765752739135141,-0.24017706491891888,0.6886442511750634,-0.8559302531027977,-2.6232007355936853,-57.00807891197258,-26.59999991647034,-93.22147783893767
0.14023833718832432,0.03498182739135136,-0.23822396491891884,-0.6243325488249366,-1.8406632531027978,-2.5392307355936854,-57.00807891197258,-26.59999991647034,-93.22147783893767
0.14121489718832433,0.03547002739135141,-0.24188606491891884,-0.6701341488249366,-3.0086017531027975,-1.6308337355936855,-57.00807891197258,-26.59999991647034,-93.22147783893767
0.13950591718832434,0.0410853273913514,-0.24335096491891883,-0.5327295488249366,-2.207075253102798,-0.21098653559368552,-57.00807891197258,-26.59999991647034,-94.14147783893767
0.14097075718832433,0.03791142739135139,-0.23724736491891885,1.5207052511750634,-0.40554825310279785,0.33863173440631456,-57.00807891197258,-26.59999991647034,-94.14147783893767
0.13511137718832433,0.030098927391351393,-0.2445716649189188,0.032156251175063266,2.5028487468972025,0.07145616440631453,-57.00807891197258,-26.59999991647034,-93.22147783893767
0.13584380718832434,0.03571422739135138,-0.24798956491891888,0.6046752511750633,2.869260746897202,1.6439752644063144,-57.00807891197258,-26.59999991647034,-93.22147783893767
0.14390044718832434,0.04352672739135138,-0.2389563649189188,-1.2426532188249366,0.915061746897202,1.9569522644063144,-57.00807891197258,-26.59999991647034,-93.22147783893767
0.13559966718832434,0.043038427391351386,-0.2348059649189188,-0.9831112488249366,0.02956574689720215,2.2622962644063147,-57.00807891197258,-26.59999991647034,-93.22147783893767
0.13535551718832434,0.03254042739135138,-0.2399329649189188,0.04742325117506341,1.670787746897202,0.6821431644063145,-57.00807891197258,-26.59999991647034,-93.22147783893767
0.1297402871883243,0.023018927391351363,-0.24798956491891888,1.1466602511750632,1.9074287468972027,0.8042805644063145,-57.00807891197258,-26.59999991647034,-93.22147783893767
0.13266997718832432,0.018380227391351367,-0.26166146491891884,0.43673625117506343,3.5410167468972022,2.6974102644063147,-57.00807891197258,-26.59999991647034,-94.14147783893767
0.13730864718832433,0.02936652739135137,-0.24481576491891888,0.009255251175063428,0.03719974689720207,1.0867233644063146,-57.00807891197258,-26.59999991647034,-94.14147783893767
0.13315825718832433,0.022530627391351365,-0.24066536491891888,0.5054382511750635,-0.787227253102798,-0.3102232355936855,-57.00807891197258,-26.59999991647034,-93.22147783893767
0.13291411718832433,0.027413427391351386,-0.25799936491891884,1.2458962511750635,2.243306746897202,1.1783263644063147,-57.00807891197258,-26.59999991647034,-93.22147783893767
0.14023833718832432,0.03571422739135138,-0.2409095649189188,-0.3266227488249366,0.4570477468972025,2.3004642644063145,-57.00807891197258,-26.59999991647034,-93.22147783893767
0.13852934718832433,0.036446627391351405,-0.23797986491891887,0.6428432511750635,-0.6345562531027977,0.8119141644063146,-57.00807891197258,-26.59999991647034,-93.22147783893767
0.13804106718832432,0.04279432739135136,-0.24213026491891887,-0.11288174882493673,-2.672724253102798,-0.9056427355936855,-57.00807891197258,-26.59999991647034,-93.22147783893767
0.13047270718832432,0.03498182739135136,-0.24066536491891888,1.1237592511750636,0.9379637468972022,-1.6766357355936852,-57.00807891197258,-26.59999991647034,-93.22147783893767
0.1375527871883243,0.03205212739135138,-0.2431067649189188,1.8794842511750636,0.9455967468972024,0.3767996764063145,-57.00807891197258,-26.59999991647034,-93.22147783893767
0.14560942718832431,0.035225927391351386,-0.24432746491891888,2.2611632511750632,-0.20707525310279795,0.17069286440631454,-57.00807891197258,-26.59999991647034,-93.22147783893767
0.13682036718832433,0.03791142739135139,-0.2509192649189188,-1.2884547488249367,-1.7185252531027977,0.15542566440631453,-57.00807891197258,-26.59999991647034,-93.22147783893767
0.13852934718832433,0.03571422739135138,-0.2440833649189188,-0.13578274882493657,0.9913977468972024,2.2393952644063146,-57.00807891197258,-26.59999991647034,-93.22147783893767
0.1492715371883243,0.027413427391351386,-0.2445716649189188,-0.09761474882493659,1.8845277468972026,2.811914264406315,-57.00807891197258,-26.59999991647034,-93.22147783893767
0.14609770718832432,0.02155402739135137,-0.2445716649189188,0.8565832511750635,0.9608637468972021,2.7966472644063147,-57.00807891197258,-26.59999991647034,-93.22147783893767
0.15342192718832431,0.03424932739135139,-0.24603646491891884,0.4825372511750634,0.846359746897202,0.09435686440631452,-57.00807891197258,-26.59999991647034,-93.22147783893767
0.15073637718832433,0.03131972739135136,-0.2526282649189189,1.2382632511750633,-0.36738025310279765,0.24702866440631455,-57.00807891197258,-26.59999991647034,-93.22147783893767
0.14219145718832432,0.028878227391351374,-0.24994276491891887,0.3680342511750634,0.693687746897202,-0.04304763559368546,-57.00807891197258,-26.59999991647034,-93.22147783893767
0.13706450718832433,0.030831427391351363,-0.24383916491891888,1.9939882511750633,1.250939746897202,-1.3178567355936854,-57.00807891197258,-26.59999991647034,-93.22147783893767
0.13999419718832432,0.0337611273913514,-0.24164196491891887,1.1313922511750634,-0.26051025310279785,-1.8751087355936855,-57.00807891197258,-26.59999991647034,-93.22147783893767
0.1414590371883243,0.03498182739135136,-0.2399329649189188,3.810782251175063,2.289107746897202,-1.6079327355936854,-57.00807891197258,-26.59999991647034,-93.22147783893767
0.13437895718832432,0.030098927391351393,-0.2592200649189188,3.3069652511750633,0.556283746897202,-3.0201467355936855,-57.00807891197258,-26.59999991647034,-93.22147783893767
0.12705473718832433,0.02692512739135139,-0.2567786649189189,2.558873251175063,0.9074287468972027,-1.0354137355936857,-57.00807891197258,-26.59999991647034,-94.14147783893767
0.13022856718832432,0.029122427391351402,-0.23871226491891884,0.9329192511750635,-1.4589832531027978,-1.1193837355936855,-57.00807891197258,-26.59999991647034,-94.14147783893767
0.13071684718832433,0.028634127391351405,-0.24432746491891888,-0.3189890488249366,-1.3673802531027976,-0.7224367355936855,-57.00807891197258,-26.59999991647034,-94.14147783893767
0.14341216718832434,0.023263027391351387,-0.2487220649189188,2.1237592511750636,1.5181157468972022,2.4607692644063146,-56.08807891197259,-26.59999991647034,-94.14147783893767
0.14707426718832434,0.01691542739135138,-0.2467688649189188,0.4901712511750633,-1.2147082531027977,-0.08121553559368544,-57.00807891197258,-25.679999916470322,-93.22147783893767
0.13950591718832434,0.020089227391351383,-0.25360486491891887,1.2153622511750632,0.16697074689720237,-1.1193837355936855,-57.00807891197258,-25.679999916470322,-93.22147783893767
0.14194731718832432,0.031075527391351387,-0.24628066491891887,0.5588732511750634,-0.9017312531027977,-0.23388733559368546,-56.08807891197259,-25.679999916470322,-94.14147783893767
0.15122466718832434,0.03180792739135141,-0.24237436491891884,-0.10524874882493673,1.579184746897202,-0.05831483559368544,-56.08807891197259,-25.679999916470322,-94.14147783893767
0.14560942718832431,0.028878227391351374,-0.24579236491891887,0.5512402511750634,0.05246674689720221,-0.9361777355936854,-56.08807891197259,-25.679999916470322,-94.14147783893767
0.13071684718832433,0.028145827391351408,-0.24921026491891884,0.7878812511750635,2.915061746897202,-0.5850323355936855,-56.08807891197259,-26.59999991647034,-93.22147783893767
0.13413481718832432,0.0296107273913514,-0.24505986491891885,0.9634532511750633,2.686054746897202,-0.08884913559368546,-56.08807891197259,-26.59999991647034,-93.22147783893767
0.14731841718832434,0.02204232739135137,-0.2504309649189188,0.9329192511750635,1.4417797468972018,-0.21862023559368549,-56.08807891197259,-26.59999991647034,-93.22147783893767
0.13462309718832433,0.023263027391351387,-0.2518958649189188,-1.5479967488249367,-1.7490602531027977,-1.9590777355936853,-56.08807891197259,-25.679999916470322,-94.14147783893767
0.12754301718832434,0.027413427391351386,-0.24945446491891887,0.6504762511750635,-0.6803572531027977,-0.8598417355936855,-56.08807891197259,-25.679999916470322,-94.14147783893767
0.12632231718832432,0.030343127391351365,-0.2431067649189188,0.8642172511750634,2.1211697468972024,-0.13465073559368546,-56.08807891197259,-25.679999916470322,-94.14147783893767
0.13657622718832432,0.02936652739135137,-0.25336066491891884,-0.3113554488249366,1.4417797468972018,0.4836699044063145,-56.08807891197259,-25.679999916470322,-94.14147783893767
0.13901762718832433,0.0254603273913514,-0.25409316491891887,-0.6625005488249367,2.5410167468972022,1.7737462644063147,-56.08807891197259,-25.679999916470322,-94.14147783893767
0.13584380718832434,0.02716932739135136,-0.24652476491891884,-1.5174623488249366,0.09063474689720241,1.6897772644063145,-56.08807891197259,-25.679999916470322,-94.14147783893767
0.1492715371883243,0.03351692739135137,-0.24066536491891888,0.3909342511750633,-0.45135025310279797,0.5218378644063145,-56.08807891197259,-25.679999916470322,-94.14147783893767
0.13071684718832433,0.02716932739135136,-0.2477454649189188,1.4672702511750635,0.7852917468972023,-0.9743457355936854,-56.08807891197259,-25.679999916470322,-94.14147783893767
0.13169341718832434,0.02423962739135138,-0.25336066491891884,-0.7464699488249367,-0.7108922531027977,-0.38655903559368543,-56.08807891197259,-25.679999916470322,-94.14147783893767
0.1375527871883243,0.02472792739135138,-0.24432746491891888,0.5054382511750635,0.6631537468972026,0.14779206440631454,-56.08807891197259,-25.679999916470322,-94.14147783893767
0.13559966718832434,0.02423962739135138,-0.2409095649189188,0.6962782511750634,-1.0009682531027977,-0.3407575355936855,-56.08807891197259,-25.679999916470322,-94.14147783893767
0.13682036718832433,0.02350722739135136,-0.2467688649189188,0.20772825117506333,-1.1460062531027977,-0.5392308355936855,-57.00807891197258,-26.59999991647034,-93.22147783893767
0.13926176718832434,0.026192727391351367,-0.2435950649189188,0.45200325117506335,-0.10783825310279793,0.5218378644063145,-57.00807891197258,-26.59999991647034,-93.22147783893767
0.13975005718832434,0.01935682739135136,-0.2555579649189188,-0.1510497488249367,0.35781074689720205,1.1935935644063145,-57.00807891197258,-25.679999916470322,-94.14147783893767
0.13877348718832433,0.02716932739135136,-0.24530406491891887,-1.2426532188249366,0.579184746897202,1.1477920644063144,-57.00807891197258,-25.679999916470322,-94.14147783893767
0.14219145718832432,0.032296227391351406,-0.2482337649189188,-0.6472333488249367,2.976130746897202,1.8806162644063145,-57.00807891197258,-25.679999916470322,-94.14147783893767
0.1492715371883243,0.02399542739135141,-0.23846816491891887,0.45963725117506327,-0.5276852531027978,-1.1422847355936856,-57.00807891197258,-25.679999916470322,-94.14147783893767
0.14609770718832432,0.018624327391351392,-0.24847786491891888,4.245896251175063,0.5257497468972026,-2.035413735593685,-57.00807891197258,-25.679999916470322,-94.14147783893767
0.13657622718832432,0.025948627391351398,-0.25433726491891884,0.9176522511750633,-0.02386925310279775,-1.4170937355936855,-57.00807891197258,-25.679999916470322,-94.14147783893767
0.13340239718832433,0.02936652739135137,-0.2550696649189188,-0.9754776488249366,1.4494137468972021,0.8653492644063145,-57.00807891197258,-26.59999991647034,-94.14147783893767
0.14390044718832434,0.032296227391351406,-0.24481576491891888,-0.5403631488249366,3.0066657468972022,0.9111508644063145,-57.00807891197258,-26.59999991647034,-94.14147783893767
0.14756255718832434,0.03400522739135137,-0.24432746491891888,-1.9983784488249365,1.3730777468972026,-0.012513335593685448,-57.00807891197258,-25.679999916470322,-94.14147783893767
0.14414458718832432,0.03473762739135139,-0.24481576491891888,-1.9602104488249368,2.0371997468972025,-0.5315972355936854,-57.00807891197258,-25.679999916470322,-94.14147783893767
0.14267973718832433,0.030098927391351393,-0.23797986491891887,0.25353025117506345,-0.9551662531027976,-0.3407575355936855,-57.00807891197258,-25.679999916470322,-94.14147783893767
0.13779692718832431,0.02839002739135138,-0.24383916491891888,2.6657432511750634,1.579184746897202,0.40733402440631455,-57.00807891197258,-26.59999991647034,-94.14147783893767
0.13950591718832434,0.0337611273913514,-0.2477454649189188,-0.16631734882493665,3.357810746897202,0.8882500644063145,-57.00807891197258,-26.59999991647034,-94.14147783893767
0.14048247718832432,0.018624327391351392,-0.25018686491891884,-1.4182257488249366,1.0830017468972026,0.6516088644063145,-57.00807891197258,-26.59999991647034,-94.14147783893767
0.13852934718832433,0.02204232739135137,-0.24164196491891887,-1.9907447488249366,0.38834474689720233,1.4913032644063144,-57.00807891197258,-26.59999991647034,-94.14147783893767
0.1453652871883243,0.03571422739135138,-0.24188606491891884,0.016889251175063347,0.7165887468972021,1.5065702644063146,-57.00807891197258,-26.59999991647034,-94.14147783893767
0.14756255718832434,0.03254042739135138,-0.23749156491891887,-0.6472333488249367,-0.12310525310279763,0.8119141644063146,-57.00807891197258,-26.59999991647034,-93.22147783893767
0.14390044718832434,0.01911262739135139,-0.24481576491891888,1.7191792511750634,1.357810746897202,1.3615324644063145,-57.00807891197258,-26.59999991647034,-93.22147783893767
0.13877348718832433,0.025216127391351373,-0.24603646491891884,0.25353025117506345,2.3425437468972024,1.0943569644063147,-57.00807891197258,-26.59999991647034,-93.22147783893767
0.14023833718832432,0.0415736273913514,-0.25116346491891883,-1.5021952488249366,0.2814747468972021,0.7813798644063146,-57.928078911972584,-26.59999991647034,-94.14147783893767
0.14121489718832433,0.030343127391351365,-0.23846816491891887,-1.0823478688249366,0.2509397468972021,-0.21862023559368549,-57.928078911972584,-26.59999991647034,-94.14147783893767
0.13682036718832433,0.03351692739135137,-0.2504309649189188,-0.6777677488249366,1.113535746897202,0.13252486440631456,-57.928078911972584,-26.59999991647034,-94.14147783893767
0.14756255718832434,0.03620252739135138,-0.24921026491891884,-1.3418898488249367,0.915061746897202,1.5447382644063143,-57.928078911972584,-26.59999991647034,-93.22147783893767
0.14609770718832432,0.030831427391351363,-0.23651496491891888,-1.0594471088249366,0.5868177468972022,0.5447385644063145,-57.928078911972584,-26.59999991647034,-93.22147783893767
0.1531777871883243,0.027901727391351383,-0.2394446649189188,-0.33425624882493665,2.289107746897202,-0.37892553559368547,-57.928078911972584,-26.59999991647034,-93.22147783893767
0.15366606718832432,0.026681027391351364,-0.2633704649189188,-0.05181374882493661,0.06010074689720213,0.46076914440631456,-57.928078911972584,-26.59999991647034,-93.22147783893767
0.14853911718832433,0.026681027391351364,-0.24066536491891888,-0.6166990488249366,-1.9398992531027979,-0.012513335593685448,-57.928078911972584,-26.59999991647034,-93.22147783893767
0.14463286718832433,0.030098927391351393,-0.2399329649189188,0.8565832511750635,-1.7795942531027977,-0.04304763559368546,-57.928078911972584,-26.59999991647034,-93.22147783893767
0.14390044718832434,0.02985482739135137,-0.2487220649189188,-0.17395094882493667,0.39597774689720255,0.11725766440631452,-57.928078911972584,-26.59999991647034,-94.14147783893767
0.14560942718832431,0.02985482739135137,-0.24750136491891883,-0.5174624488249366,-0.36738025310279765,0.3615325044063145,-57.928078911972584,-26.59999991647034,-94.14147783893767
0.14634184718832433,0.031563827391351384,-0.24139776491891884,0.1924612511750634,1.5181157468972022,0.6516088644063145,-57.928078911972584,-26.59999991647034,-94.14147783893767
0.14853911718832433,0.030098927391351393,-0.23456186491891884,-0.39532494882493663,0.579184746897202,-0.2491545355936855,-57.00807891197258,-26.59999991647034,-93.22147783893767
0.14487700718832433,0.02570442739135137,-0.24554816491891884,2.1619272511750633,-0.5887542531027976,0.7355782644063145,-57.00807891197258,-26.59999991647034,-93.22147783893767
0.1375527871883243,0.031075527391351387,-0.24921026491891884,-0.16631734882493665,1.2585737468972025,1.9035172644063145,-57.00807891197258,-26.59999991647034,-93.22147783893767
0.13706450718832433,0.039376327391351384,-0.24847786491891888,-1.8151722488249367,1.1898717468972024,2.3233642644063144,-57.928078911972584,-26.59999991647034,-93.22147783893767
0.14683012718832433,0.032296227391351406,-0.2404212649189188,-1.4029585488249365,1.846359746897202,1.9874862644063147,-57.928078911972584,-26.59999991647034,-93.22147783893767
0.14975981718832432,0.025216127391351373,-0.24066536491891888,-0.03654674882493669,-1.1231052531027976,0.23939506440631453,-57.928078911972584,-26.59999991647034,-93.22147783893767
0.14658598718832433,0.03131972739135136,-0.2426184649189188,2.2611632511750632,-0.9475332531027978,-1.2262537355936853,-57.928078911972584,-26.59999991647034,-93.22147783893767
0.14097075718832433,0.032784527391351403,-0.24066536491891888,3.055056251175063,0.9303297468972018,-0.4781622355936854,-57.928078911972584,-26.59999991647034,-93.22147783893767
0.14170317718832431,0.02985482739135137,-0.2509192649189188,0.5207052511750634,0.334909746897202,0.21649436440631453,-57.928078911972584,-26.59999991647034,-93.22147783893767
0.15366606718832432,0.0337611273913514,-0.24335096491891883,0.25353025117506345,0.4112457468972024,0.9187844644063146,-57.928078911972584,-26.59999991647034,-93.22147783893767
0.15171294718832434,0.020333327391351408,-0.2399329649189188,1.6275762511750633,-3.7948613031027976,0.7890134644063145,-57.928078911972584,-26.59999991647034,-93.22147783893767
0.1336465371883243,0.02423962739135138,-0.24994276491891887,0.3298662511750634,-0.9093652531027976,-0.7377037355936854,-57.928078911972584,-26.59999991647034,-93.22147783893767
0.14341216718832434,0.036446627391351405,-0.2482337649189188,0.2382632511750633,-0.3826472531027978,-0.12701713559368544,-57.928078911972584,-26.59999991647034,-93.22147783893767
0.14658598718832433,0.03913222739135136,-0.24286266491891884,0.4291022511750633,-2.520052253102798,-0.21098653559368552,-57.928078911972584,-26.59999991647034,-93.22147783893767
0.14072661718832433,0.030343127391351365,-0.2472571649189188,0.7420792511750633,-1.0849372531027979,0.5600057644063146,-57.928078911972584,-26.59999991647034,-93.22147783893767
0.13584380718832434,0.03717902739135137,-0.24530406491891887,0.9023852511750632,-0.48951825310279773,-0.3560247355936854,-57.928078911972584,-26.59999991647034,-93.22147783893767
0.13975005718832434,0.032784527391351403,-0.23920056491891883,0.7344462511750633,-1.8559302531027977,0.10199046440631454,-57.00807891197258,-26.59999991647034,-93.22147783893767
0.14316801718832434,0.02839002739135138,-0.24945446491891887,2.0703242511750632,1.2127717468972024,0.9264179644063145,-57.00807891197258,-26.59999991647034,-93.22147783893767
0.14316801718832434,0.025216127391351373,-0.24432746491891888,1.3298662511750634,-0.45898325310279775,0.8653492644063145,-57.00807891197258,-26.59999991647034,-93.22147783893767
0.13291411718832433,0.026192727391351367,-0.24896616491891888,0.4901712511750633,-0.6498232531027979,0.35389891440631455,-57.00807891197258,-26.59999991647034,-93.22147783893767
0.13852934718832433,0.031075527391351387,-0.24017706491891888,1.8031482511750632,-0.27577725310279755,0.26992946440631455,-57.00807891197258,-26.59999991647034,-93.22147783893767
0.14585356718832432,0.02570442739135137,-0.2487220649189188,-0.24265324882493666,-0.5429532531027976,-0.43999423559368545,-57.00807891197258,-26.59999991647034,-93.22147783893767
0.14023833718832432,0.0254603273913514,-0.24432746491891888,-0.9449433488249366,0.8158257468972026,0.5447385644063145,-57.00807891197258,-26.59999991647034,-93.22147783893767
0.14243559718832433,0.03254042739135138,-0.24701306491891883,0.6352092511750633,0.1975047468972022,0.24702866440631455,-57.00807891197258,-26.59999991647034,-93.22147783893767
0.1451211471883243,0.028878227391351374,-0.2431067649189188,0.10085825117506331,0.09826874689720233,-1.4399947355936855,-57.00807891197258,-26.59999991647034,-93.22147783893767
0.13828520718832432,0.027413427391351386,-0.2431067649189188,0.6886442511750634,2.846359746897202,-0.6079331355936854,-57.00807891197258,-26.59999991647034,-93.22147783893767
0.14170317718832431,0.03180792739135141,-0.2550696649189188,0.17719425117506327,0.3807117468972021,0.20886076440631454,-57.00807891197258,-26.59999991647034,-93.22147783893767
0.14170317718832431,0.02423962739135138,-0.23382946491891887,0.7191792511750634,1.1517037468972027,0.19359356440631453,-57.00807891197258,-26.59999991647034,-93.22147783893767
0.13779692718832431,0.027413427391351386,-0.2440833649189188,-0.2121188488249366,-0.45898325310279775,-1.1880857355936856,-57.00807891197258,-26.59999991647034,-93.22147783893767
0.13291411718832433,0.03180792739135141,-0.24115366491891888,-0.5250959488249366,0.006665746897202229,-1.4934297355936854,-57.00807891197258,-26.59999991647034,-93.22147783893767
0.14072661718832433,0.025948627391351398,-0.24847786491891888,1.5665072511750635,0.7165887468972021,0.7584790644063145,-57.00807891197258,-26.59999991647034,-93.22147783893767
0.13682036718832433,0.031075527391351387,-0.24798956491891888,0.4749042511750634,0.8845277468972026,1.3233645644063146,-57.00807891197258,-26.59999991647034,-93.22147783893767
0.14267973718832433,0.02839002739135138,-0.2526282649189189,-0.9449433488249366,0.41887974689720187,0.2928302144063145,-57.00807891197258,-26.59999991647034,-93.22147783893767
0.14267973718832433,0.02716932739135136,-0.25116346491891883,-1.3113555488249367,-2.1689072531027977,0.11725766440631452,-57.00807891197258,-26.59999991647034,-93.22147783893767
0.14365630718832434,0.03180792739135141,-0.25116346491891883,-0.5098287488249367,1.1440697468972023,0.7126775644063146,-57.00807891197258,-26.59999991647034,-93.22147783893767
0.13950591718832434,0.03131972739135136,-0.24530406491891887,0.6657442511750633,1.800558746897202,0.5600057644063146,-57.00807891197258,-26.59999991647034,-93.22147783893767
0.14048247718832432,0.02936652739135137,-0.2426184649189188,1.0855912511750634,2.6326197468972024,-1.8598417355936854,-57.00807891197258,-26.59999991647034,-93.22147783893767
0.14487700718832433,0.024483727391351406,-0.2472571649189188,0.7115452511750633,-0.5124182531027976,0.38443326440631453,-57.928078911972584,-26.59999991647034,-93.22147783893767
0.14463286718832433,0.026192727391351367,-0.25287236491891885,-0.9525768488249367,-0.3292122531027979,0.03328826440631455,-57.928078911972584,-26.59999991647034,-93.22147783893767
0.14756255718832434,0.02936652739135137,-0.24432746491891888,0.9710872511750632,-0.26051025310279785,-1.2873227355936856,-57.928078911972584,-26.59999991647034,-93.22147783893767
0.13926176718832434,0.028634127391351405,-0.2389563649189188,1.3069652511750633,0.3120087468972019,-0.9972457355936856,-57.928078911972584,-26.59999991647034,-93.22147783893767
0.15146880718832434,0.03351692739135137,-0.24701306491891883,1.1695602511750636,0.1746047468972023,1.1935935644063145,-57.928078911972584,-26.59999991647034,-93.22147783893767
0.14365630718832434,0.0332728273913514,-0.2472571649189188,1.2993312511750634,1.2204057468972018,-0.8216737355936855,-57.928078911972584,-26.59999991647034,-93.22147783893767
0.13950591718832434,0.028878227391351374,-0.24017706491891888,0.8947512511750633,0.9608637468972021,-0.9590777355936854,-57.00807891197258,-26.59999991647034,-93.22147783893767
0.13633208718832432,0.032296227391351406,-0.24969856491891884,1.3222322511750635,0.3120087468972019,0.8195477644063145,-57.00807891197258,-26.59999991647034,-93.22147783893767
0.14316801718832434,0.03302862739135137,-0.24286266491891884,2.1161252511750632,1.7089557468972019,0.33863173440631456,-57.00807891197258,-27.519999916470326,-93.22147783893767
0.14048247718832432,0.026436827391351392,-0.2440833649189188,-0.6395997488249366,0.44941374689720215,-0.6919027355936854,-57.00807891197258,-27.519999916470326,-93.22147783893767
0.14170317718832431,0.031563827391351384,-0.24652476491891884,-0.4411265488249366,0.7776577468972019,-0.5773987355936855,-57.00807891197258,-26.59999991647034,-93.22147783893767
0.14243559718832433,0.023263027391351387,-0.2531165649189189,-0.7922715488249366,-0.01623525310279783,0.6592423644063146,-57.00807891197258,-26.59999991647034,-93.22147783893767
0.1375527871883243,0.028634127391351405,-0.2431067649189188,0.6504762511750635,0.9226957468972024,2.3462652644063144,-57.00807891197258,-26.59999991647034,-93.22147783893767
0.1451211471883243,0.03473762739135139,-0.24603646491891884,0.6046752511750633,1.487581746897202,0.39206685240631456,-57.00807891197258,-26.59999991647034,-93.22147783893767
0.14390044718832434,0.02839002739135138,-0.2558020649189189,-0.7312028488249367,0.5639177468972023,-0.37129193559368545,-57.00807891197258,-26.59999991647034,-93.22147783893767
0.14219145718832432,0.028878227391351374,-0.24994276491891887,0.5817742511750634,0.6402537468972018,0.33863173440631456,-57.00807891197258,-26.59999991647034,-93.22147783893767
0.14267973718832433,0.03620252739135138,-0.23407356491891884,2.9252862511750632,1.823459746897202,0.018021064406314513,-57.00807891197258,-26.59999991647034,-93.22147783893767
0.14219145718832432,0.027413427391351386,-0.2472571649189188,2.2000952511750635,1.0295657468972021,-1.1117497355936856,-57.00807891197258,-26.59999991647034,-93.22147783893767
0.13828520718832432,0.03058722739135139,-0.24628066491891887,0.7802472511750633,-0.6498232531027979,-1.2873227355936856,-57.00807891197258,-26.59999991647034,-93.22147783893767
0.13657622718832432,0.03058722739135139,-0.24652476491891884,0.7802472511750633,0.21277274689720205,-0.5163300355936855,-57.00807891197258,-26.59999991647034,-93.22147783893767
0.1375527871883243,0.03400522739135137,-0.24481576491891888,0.3374992511750634,1.670787746897202,0.17832636440631452,-57.00807891197258,-25.679999916470322,-93.22147783893767
0.13999419718832432,0.027901727391351383,-0.24750136491891883,-0.3571570488249366,0.5333827468972019,-0.5926659355936854,-57.00807891197258,-25.679999916470322,-93.22147783893767
0.1375527871883243,0.026681027391351364,-0.2445716649189188,1.1237592511750636,0.2356727468972024,1.1859599644063146,-57.00807891197258,-25.679999916470322,-93.22147783893767
0.13999419718832432,0.0332728273913514,-0.24505986491891885,0.09322425117506339,1.915061746897202,1.3615324644063145,-57.00807891197258,-26.59999991647034,-94.14147783893767
0.14048247718832432,0.03547002739135141,-0.24213026491891887,-1.0136455488249365,0.07536774689720227,0.24702866440631455,-57.00807891197258,-26.59999991647034,-94.14147783893767
0.13877348718832433,0.023018927391351363,-0.25067516491891884,-1.2121188588249365,0.556283746897202,0.5829065644063145,-57.00807891197258,-26.59999991647034,-93.22147783893767
0.13706450718832433,0.026192727391351367,-0.2472571649189188,-0.6777677488249366,1.2051387468972021,1.1172576644063146,-57.00807891197258,-26.59999991647034,-93.22147783893767
0.1490273971883243,0.03400522739135137,-0.24652476491891884,0.16956025117506335,1.647886746897202,0.8806164644063146,-57.00807891197258,-26.59999991647034,-93.22147783893767
0.15098051718832434,0.0296107273913514,-0.2404212649189188,0.13139225117506337,0.07536774689720227,-1.0430477355936856,-57.00807891197258,-26.59999991647034,-93.22147783893767
0.14243559718832433,0.02765752739135141,-0.24286266491891884,0.8413162511750634,-0.26814325310279763,0.19359356440631453,-57.00807891197258,-26.59999991647034,-93.22147783893767
0.14267973718832433,0.031563827391351384,-0.2394446649189188,0.5665072511750633,0.5639177468972023,0.18595996440631454,-57.00807891197258,-26.59999991647034,-93.22147783893767
0.15073637718832433,0.030343127391351365,-0.24237436491891884,0.8107822511750633,1.3730777468972026,-0.05831483559368544,-57.00807891197258,-26.59999991647034,-94.14147783893767
0.14097075718832433,0.02277472739135139,-0.24701306491891883,1.4520032511750633,-0.6956242531027979,0.5065706644063145,-57.00807891197258,-26.59999991647034,-94.14147783893767
0.14072661718832433,0.03131972739135136,-0.24603646491891884,0.1390262511750633,-1.2986782531027976,0.17832636440631452,-57.00807891197258,-26.59999991647034,-93.22147783893767
0.14560942718832431,0.0369349273913514,-0.24335096491891883,1.2077282511750633,-1.6574562531027976,-0.5239636355936854,-57.00807891197258,-26.59999991647034,-93.22147783893767
0.14316801718832434,0.03058722739135139,-0.24383916491891888,1.2916982511750632,0.46468074689720185,-1.1499177355936854,-57.00807891197258,-26.59999991647034,-93.22147783893767
0.13999419718832432,0.03058722739135139,-0.24847786491891888,0.8413162511750634,1.4570477468972025,-0.19571943559368543,-57.00807891197258,-26.59999991647034,-93.22147783893767
0.13706450718832433,0.03058722739135139,-0.24188606491891884,-0.9602104488249367,0.7700237468972024,0.04855536440631453,-57.00807891197258,-26.59999991647034,-93.22147783893767
0.14585356718832432,0.029122427391351402,-0.24579236491891887,1.1771942511750635,2.495214746897202,0.01038746440631455,-57.00807891197258,-26.59999991647034,-93.22147783893767
0.14829497718832432,0.028634127391351405,-0.2389563649189188,0.9710872511750632,1.4417797468972018,-0.5086964355936855,-57.928078911972584,-26.59999991647034,-93.22147783893767
0.13877348718832433,0.026192727391351367,-0.24969856491891884,1.2535302511750634,0.5486497468972025,0.6363416644063145,-57.928078911972584,-26.59999991647034,-93.22147783893767
0.13779692718832431,0.03547002739135141,-0.24798956491891888,-0.4182257488249367,-0.4360822531027977,-0.06594843559368546,-57.00807891197258,-26.59999991647034,-93.22147783893767
0.14219145718832432,0.03571422739135138,-0.2399329649189188,-0.15868374882493663,1.0524667468972022,-0.1728186355936855,-57.00807891197258,-26.59999991647034,-93.22147783893767
0.14658598718832433,0.029122427391351402,-0.24798956491891888,1.5970412511750633,0.4112457468972024,0.6592423644063146,-57.00807891197258,-26.59999991647034,-93.22147783893767
0.14243559718832433,0.02716932739135136,-0.24554816491891884,0.2382632511750633,-0.03913625310279789,0.20122716440631452,-57.00807891197258,-26.59999991647034,-93.22147783893767
0.14072661718832433,0.032784527391351403,-0.24481576491891888,1.5359722511750635,-0.20707525310279795,-0.05831483559368544,-57.00807891197258,-26.59999991647034,-93.22147783893767
0.1492715371883243,0.030343127391351365,-0.24139776491891884,-0.15868374882493663,-0.8711972531027978,-1.0201467355936855,-57.00807891197258,-26.59999991647034,-93.22147783893767
0.13975005718832434,0.03058722739135139,-0.24335096491891883,-0.6930349488249367,0.02193274689720237,-0.8140397355936854,-57.00807891197258,-26.59999991647034,-93.22147783893767
0.13975005718832434,0.030831427391351363,-0.25067516491891884,-0.2502868488249367,-0.26814325310279763,0.19359356440631453,-57.00807891197258,-26.59999991647034,-93.22147783893767
0.13901762718832433,0.032784527391351403,-0.24213026491891887,-0.2731875488249367,0.09826874689720233,-0.5468644355936855,-57.00807891197258,-26.59999991647034,-93.22147783893767
0.13950591718832434,0.02936652739135137,-0.25067516491891884,-0.6930349488249367,-0.25287625310279793,-0.14228433559368547,-57.00807891197258,-26.59999991647034,-93.22147783893767
0.13486723718832433,0.028634127391351405,-0.2472571649189188,0.3756672511750634,-0.08493725310279787,1.3997002644063143,-57.00807891197258,-26.59999991647034,-93.22147783893767
0.13315825718832433,0.0337611273913514,-0.24579236491891887,0.5665072511750633,2.9532297468972026,1.5905402644063145,-57.00807891197258,-26.59999991647034,-93.22147783893767
0.14609770718832432,0.035225927391351386,-0.25336066491891884,0.06269025117506333,2.739489746897202,1.6363412644063144,-57.00807891197258,-26.59999991647034,-93.22147783893767
0.14951567718832431,0.029122427391351402,-0.23968886491891883,0.5588732511750634,0.7089557468972019,0.21649436440631453,-57.00807891197258,-26.59999991647034,-93.22147783893767
0.14438872718832432,0.028145827391351408,-0.24798956491891888,1.2077282511750633,1.3272757468972025,0.30046379440631454,-57.00807891197258,-26.59999991647034,-93.22147783893767
0.13852934718832433,0.031563827391351384,-0.2523841649189188,-0.5174624488249366,0.2662077468972024,0.6439752644063146,-57.00807891197258,-26.59999991647034,-93.22147783893767
0.13633208718832432,0.03547002739135141,-0.24286266491891884,-0.5250959488249366,-0.8559302531027977,0.16305916440631454,-57.00807891197258,-26.59999991647034,-93.22147783893767
0.14243559718832433,0.022530627391351365,-0.25116346491891883,-0.2731875488249367,-0.6116552531027977,-0.2033529355936855,-57.00807891197258,-26.59999991647034,-93.22147783893767
0.14121489718832433,0.036446627391351405,-0.24481576491891888,-0.6014318488249366,-1.6574562531027976,0.17832636440631452,-57.00807891197258,-26.59999991647034,-93.22147783893767
0.14267973718832433,0.02155402739135137,-0.25067516491891884,0.44436925117506343,-1.0467692531027977,0.19359356440631453,-57.00807891197258,-26.59999991647034,-93.22147783893767
0.14170317718832431,0.0332728273913514,-0.24481576491891888,0.9252852511750636,0.8768947468972024,0.0027538644063145323,-57.928078911972584,-26.59999991647034,-93.22147783893767
0.14560942718832431,0.03424932739135139,-0.2472571649189188,-0.1510497488249367,-0.1383732531027979,-0.1880858355936854,-57.928078911972584,-26.59999991647034,-93.22147783893767
0.13730864718832433,0.030098927391351393,-0.2435950649189188,0.46727025117506327,0.4875817468972019,0.4302347944063145,-57.928078911972584,-26.59999991647034,-93.22147783893767
0.13804106718832432,0.02692512739135139,-0.24603646491891884,-1.2350196288249367,-0.27577725310279755,0.5981736644063145,-57.00807891197258,-26.59999991647034,-93.22147783893767
0.14609770718832432,0.0369349273913514,-0.24945446491891887,-1.5556303488249366,0.556283746897202,0.15542566440631453,-57.00807891197258,-26.59999991647034,-93.22147783893767
0.13706450718832433,0.02985482739135137,-0.2394446649189188,0.6504762511750635,-1.3215792531027977,-0.8827427355936855,-57.00807891197258,-26.59999991647034,-93.22147783893767
0.13486723718832433,0.024972027391351403,-0.24701306491891883,0.1390262511750633,1.915061746897202,-1.0583147355936853,-57.928078911972584,-26.59999991647034,-93.22147783893767
0.13926176718832434,0.026436827391351392,-0.24432746491891888,-0.2884547488249366,1.3654437468972023,0.3997004444063145,-57.928078911972584,-26.59999991647034,-93.22147783893767
0.14438872718832432,0.02985482739135137,-0.2487220649189188,0.6962782511750634,1.4646807468972018,0.5294714644063145,-57.928078911972584,-26.59999991647034,-93.22147783893767
0.1414590371883243,0.027901727391351383,-0.2477454649189188,0.40620225117506337,-2.016235253102798,0.24702866440631455,-57.928078911972584,-26.59999991647034,-93.22147783893767
0.1414590371883243,0.031563827391351384,-0.24701306491891883,2.1084922511750634,0.34254374689720235,0.20886076440631454,-57.928078911972584,-26.59999991647034,-93.22147783893767
0.14219145718832432,0.031075527391351387,-0.24286266491891884,-0.7388364488249366,0.8845277468972026,0.02565466440631453,-57.00807891197258,-26.59999991647034,-93.22147783893767
0.14438872718832432,0.027413427391351386,-0.24188606491891884,-0.8686073488249366,1.6784217468972025,-0.004879735593685486,-57.00807891197258,-26.59999991647034,-93.22147783893767
0.14585356718832432,0.03131972739135136,-0.2514075649189188,1.8489502511750633,-0.1536402531027976,-0.13465073559368546,-57.00807891197258,-26.59999991647034,-93.22147783893767
0.14292387718832433,0.027901727391351383,-0.24237436491891884,0.2382632511750633,-0.5811212531027978,-1.0659487355936856,-57.00807891197258,-26.59999991647034,-94.14147783893767
0.13266997718832432,0.024483727391351406,-0.24286266491891884,2.1619272511750633,1.021932746897202,-0.9209107355936855,-57.00807891197258,-26.59999991647034,-94.14147783893767
0.13779692718832431,0.026436827391351392,-0.2477454649189188,-0.8838746488249367,0.15170374689720223,-0.020146935593685467,-57.00807891197258,-26.59999991647034,-93.22147783893767
0.14097075718832433,0.02839002739135138,-0.24896616491891888,0.07795725117506347,0.9303297468972018,0.5600057644063146,-57.00807891197258,-26.59999991647034,-93.22147783893767
0.13926176718832434,0.02765752739135141,-0.2399329649189188,0.2382632511750633,0.3501767468972026,-0.4247270355936855,-57.00807891197258,-26.59999991647034,-93.22147783893767
0.13901762718832433,0.02765752739135141,-0.24750136491891883,0.49780525117506347,-0.6040212531027978,-1.2415207355936855,-57.928078911972584,-26.59999991647034,-93.22147783893767
0.14194731718832432,0.027901727391351383,-0.2472571649189188,2.1848272511750633,-0.46661725310279767,-0.06594843559368546,-57.928078911972584,-26.59999991647034,-93.22147783893767
0.14194731718832432,0.028145827391351408,-0.2518958649189188,1.6581102511750632,3.686054746897202,1.1859599644063146,-57.928078911972584,-26.59999991647034,-93.22147783893767
0.14194731718832432,0.02839002739135138,-0.24921026491891884,1.4214692511750635,0.4341457468972023,0.7661126644063145,-57.00807891197258,-26.59999991647034,-94.14147783893767
0.14267973718832433,0.02692512739135139,-0.2389563649189188,-0.9907448488249366,-3.298678053102798,-1.5239637355936853,-57.00807891197258,-26.59999991647034,-94.14147783893767
0.14951567718832431,0.03400522739135137,-0.24383916491891888,3.2077282511750638,-1.3368462531027978,-1.9667117355936852,-57.928078911972584,-26.59999991647034,-93.22147783893767
0.14316801718832434,0.0296107273913514,-0.2523841649189188,2.703911251175063,-1.6345562531027977,-3.6079327355936854,-57.928078911972584,-26.59999991647034,-93.22147783893767
0.12119536718832433,0.024483727391351406,-0.25751106491891884,1.4367362511750632,-3.054403253102798,-1.3865587355936855,-57.928078911972584,-26.59999991647034,-93.22147783893767
0.12803130718832434,0.03205212739135138,-0.24335096491891883,2.5512402511750634,0.800558746897202,-0.6384677355936855,-57.00807891197258,-26.59999991647034,-94.14147783893767
0.13047270718832432,0.020333327391351408,-0.2550696649189188,-0.6166990488249366,1.8310927468972023,-1.8903757355936852,-57.00807891197258,-26.59999991647034,-94.14147783893767
0.13291411718832433,0.01984502739135141,-0.2592200649189188,-0.8609738488249365,3.7700237468972024,-0.43999423559368545,-57.00807891197258,-26.59999991647034,-94.14147783893767
0.14585356718832432,0.015938827391351384,-0.2399329649189188,0.11612525117506345,0.5181157468972022,-0.19571943559368543,-57.00807891197258,-26.59999991647034,-94.14147783893767
0.15635161718832433,0.025948627391351398,-0.2311438649189188,0.7649802511750634,-3.2681437531027977,-2.333123735593685,-57.00807891197258,-26.59999991647034,-94.14147783893767
0.13511137718832433,0.022530627391351365,-0.24115366491891888,1.2458962511750635,-2.871197253102798,-3.875108735593685,-57.00807891197258,-25.679999916470322,-94.14147783893767
0.12241606718832432,0.02472792739135138,-0.24798956491891888,1.3680342511750632,0.5257497468972026,0.9111508644063145,-57.00807891197258,-25.679999916470322,-94.14147783893767
0.11533598718832433,0.026192727391351367,-0.2531165649189189,0.10085825117506331,2.0753677468972023,3.1554252644063148,-57.00807891197258,-25.679999916470322,-94.14147783893767
0.13389067718832431,0.02277472739135139,-0.24921026491891884,-0.05181374882493661,2.113535746897202,2.8271812644063146,-56.08807891197259,-25.679999916470322,-94.14147783893767
0.13877348718832433,0.02057752739135138,-0.24994276491891887,-0.6854013488249366,-0.7643272531027976,2.5142042644063145,-56.08807891197259,-25.679999916470322,-94.14147783893767
0.13633208718832432,0.03498182739135136,-0.24505986491891885,-1.2731875488249367,0.5104817468972018,2.934051264406315,-56.08807891197259,-25.679999916470322,-94.14147783893767
0.14170317718832431,0.0374232273913514,-0.24628066491891887,0.3909342511750633,1.8845277468972026,2.1172572644063146,-57.00807891197258,-25.679999916470322,-93.22147783893767
0.14414458718832432,0.023018927391351363,-0.23920056491891883,0.26116325117506345,2.8158257468972026,1.6668762644063144,-57.00807891197258,-25.679999916470322,-93.22147783893767
0.13975005718832434,0.02277472739135139,-0.2472571649189188,1.6657432511750634,2.1288027468972026,0.40733402440631455,-56.08807891197259,-25.679999916470322,-93.22147783893767
0.1336465371883243,0.025948627391351398,-0.2526282649189189,-0.5327295488249366,-0.3444792531027976,-0.004879735593685486,-56.08807891197259,-25.679999916470322,-93.22147783893767
0.13779692718832431,0.029122427391351402,-0.24994276491891887,0.05505625117506341,0.05246674689720221,-1.2109867355936856,-56.08807891197259,-25.679999916470322,-93.22147783893767
0.13804106718832432,0.02155402739135137,-0.25384896491891884,-0.5632639488249366,0.02193274689720237,-0.6690017355936854,-56.08807891197259,-25.679999916470322,-94.14147783893767
0.13511137718832433,0.03205212739135138,-0.24213026491891887,-0.9373096488249366,0.624985746897202,1.6058072644063146,-56.08807891197259,-25.679999916470322,-94.14147783893767
0.13901762718832433,0.03254042739135138,-0.23651496491891888,-1.1510501608249366,1.5028487468972025,1.3538988644063146,-56.08807891197259,-25.679999916470322,-94.14147783893767
0.13437895718832432,0.026681027391351364,-0.25360486491891887,-0.7083020488249366,2.731855746897202,0.8424485644063145,-57.00807891197258,-25.679999916470322,-94.14147783893767
0.14023833718832432,0.015938827391351384,-0.25433726491891884,1.1771942511750635,4.8463607468972025,3.468402264406315,-57.00807891197258,-25.679999916470322,-94.14147783893767
0.15171294718832434,0.02155402739135137,-0.25067516491891884,-1.5098287488249367,0.2891077468972023,1.3997002644063143,-57.00807891197258,-25.679999916470322,-94.14147783893767
0.14658598718832433,0.028878227391351374,-0.2555579649189188,-1.8380730488249366,0.7547567468972018,1.2241279644063146,-57.00807891197258,-25.679999916470322,-94.14147783893767
0.14756255718832434,0.027413427391351386,-0.24798956491891888,1.2077282511750633,3.823459746897202,0.9493187644063146,-57.928078911972584,-26.59999991647034,-94.14147783893767
0.14683012718832433,0.02472792739135138,-0.23553846491891883,0.11612525117506345,3.0830017468972026,0.9951202644063145,-57.928078911972584,-26.59999991647034,-94.14147783893767
0.15024809718832433,0.024972027391351403,-0.23773566491891884,0.10849225117506345,-0.10020525310279771,0.17069286440631454,-57.928078911972584,-26.59999991647034,-94.14147783893767
0.15049223718832433,0.02985482739135137,-0.2601966649189188,1.0321562511750635,-0.6345562531027977,-0.035414035593685445,-57.928078911972584,-26.59999991647034,-94.14147783893767
0.13486723718832433,0.024972027391351403,-0.2482337649189188,0.06269025117506333,-1.4818842531027978,-0.012513335593685448,-57.928078911972584,-26.59999991647034,-94.14147783893767
0.14341216718832434,0.03498182739135136,-0.23456186491891884,0.9558202511750635,1.1593377468972021,1.2241279644063146,-57.928078911972584,-26.59999991647034,-93.22147783893767
0.14365630718832434,0.03547002739135141,-0.24896616491891888,1.6275762511750633,0.1975047468972022,0.6668760644063145,-57.928078911972584,-26.59999991647034,-93.22147783893767
0.1451211471883243,0.02204232739135137,-0.2521399649189189,0.6199422511750634,1.8310927468972023,1.4378682644063145,-57.928078911972584,-26.59999991647034,-93.22147783893767
0.1451211471883243,0.02716932739135136,-0.2399329649189188,-0.8609738488249365,-2.092571253102798,0.21649436440631453,-57.928078911972584,-26.59999991647034,-94.14147783893767
0.14585356718832432,0.025948627391351398,-0.24969856491891884,1.8031482511750632,-1.7566932531027977,-1.2644217355936855,-57.928078911972584,-26.59999991647034,-94.14147783893767
0.15415434718832433,0.030098927391351393,-0.25433726491891884,-0.6625005488249367,-2.6421892531027975,-1.4857957355936855,-57.928078911972584,-25.679999916470322,-94.14147783893767
0.15391020718832432,0.02277472739135139,-0.23700326491891888,-0.9144089488249366,-3.000968153102798,-1.6461007355936852,-57.928078911972584,-25.679999916470322,-94.14147783893767
0.14560942718832431,0.02985482739135137,-0.24554816491891884,1.1390262511750633,0.9074287468972027,-1.6461007355936852,-57.928078911972584,-25.679999916470322,-94.14147783893767
0.14414458718832432,0.028878227391351374,-0.24554816491891884,1.9481862511750632,1.1593377468972021,-2.0506817355936855,-57.928078911972584,-26.59999991647034,-94.14147783893767
0.14951567718832431,0.0217982273913514,-0.2440833649189188,0.8947512511750633,-0.26051025310279785,-3.3865587355936855,-57.928078911972584,-26.59999991647034,-94.14147783893767
0.1453652871883243,0.028634127391351405,-0.24164196491891887,1.4978052511750635,-1.6574562531027976,-3.3178567355936854,-57.928078911972584,-26.59999991647034,-94.14147783893767
0.14267973718832433,0.03547002739135141,-0.2477454649189188,2.3909342511750635,2.426512746897202,-2.0812157355936853,-57.928078911972584,-25.679999916470322,-94.14147783893767
0.14121489718832433,0.028145827391351408,-0.2435950649189188,1.2382632511750633,0.06010074689720213,-0.7835057355936855,-57.928078911972584,-25.679999916470322,-94.14147783893767
0.1375527871883243,0.02765752739135141,-0.24628066491891887,0.8107822511750633,2.9226957468972024,-0.5468644355936855,-57.928078911972584,-26.59999991647034,-94.14147783893767
0.13559966718832434,0.03254042739135138,-0.2560462649189188,-0.08234774882493667,2.5486497468972025,-1.1041167355936854,-57.928078911972584,-26.59999991647034,-94.14147783893767
0.13852934718832433,0.018380227391351367,-0.2472571649189188,0.6504762511750635,1.0753677468972023,0.6592423644063146,-57.928078911972584,-26.59999991647034,-94.14147783893767
0.13706450718832433,0.023263027391351387,-0.24554816491891884,-0.3189890488249366,-1.107838253102798,1.0638225644063146,-57.00807891197258,-26.59999991647034,-94.14147783893767
0.13462309718832433,0.04181772739135137,-0.2482337649189188,-2.0594470488249366,0.6326197468972024,-0.04304763559368546,-57.00807891197258,-26.59999991647034,-94.14147783893767
0.13828520718832432,0.03205212739135138,-0.2399329649189188,-0.04417974882493669,0.5181157468972022,-1.2338877355936853,-57.00807891197258,-26.59999991647034,-94.14147783893767
0.13706450718832433,0.018868527391351364,-0.22967906491891887,1.9100182511750634,0.647886746897202,-1.6384677355936854,-57.928078911972584,-26.59999991647034,-94.14147783893767
0.13852934718832433,0.023263027391351387,-0.2526282649189189,1.5207052511750634,2.8387267468972026,-0.2644217355936854,-57.928078911972584,-26.59999991647034,-94.14147783893767
0.1375527871883243,0.036446627391351405,-0.2565345649189188,-1.0365463488249367,-0.7261592531027978,0.6516088644063145,-57.928078911972584,-25.679999916470322,-94.14147783893767
0.13657622718832432,0.02472792739135138,-0.23797986491891887,-1.9831112488249367,-2.0467692531027977,-0.09648273559368548,-57.928078911972584,-25.679999916470322,-94.14147783893767
0.13828520718832432,0.030831427391351363,-0.24335096491891883,0.5588732511750634,-0.9780672531027976,-0.7453377355936855,-57.928078911972584,-25.679999916470322,-94.14147783893767
0.13657622718832432,0.032784527391351403,-0.25751106491891884,-0.1815845488249367,2.3043757468972026,0.11725766440631452,-57.928078911972584,-25.679999916470322,-94.14147783893767
0.14390044718832434,0.027901727391351383,-0.2389563649189188,0.11612525117506345,0.47231374689720207,0.6974103644063145,-57.928078911972584,-25.679999916470322,-94.14147783893767
0.14560942718832431,0.025948627391351398,-0.24652476491891884,1.0092552511750634,-0.30631125310279783,0.0027538644063145323,-57.928078911972584,-25.679999916470322,-94.14147783893767
0.14170317718832431,0.03131972739135136,-0.2516516649189189,0.43673625117506343,0.08300174689720219,-0.5621316355936855,-57.928078911972584,-25.679999916470322,-94.14147783893767
0.14097075718832433,0.0296107273913514,-0.24164196491891887,-1.0594471088249366,0.18223774689720207,-0.5544980355936855,-57.928078911972584,-25.679999916470322,-94.14147783893767
0.14683012718832433,0.027413427391351386,-0.24115366491891888,0.4214692511750633,-0.2910442531027977,0.07908976440631454,-57.928078911972584,-26.59999991647034,-94.14147783893767
0.1375527871883243,0.02765752739135141,-0.2523841649189188,0.6046752511750633,-0.6879912531027976,0.5905401644063145,-57.928078911972584,-26.59999991647034,-94.14147783893767
0.14170317718832431,0.030831427391351363,-0.23871226491891884,-0.5861646488249367,0.9455967468972024,1.1401584644063145,-57.928078911972584,-26.59999991647034,-94.14147783893767
0.14878325718832433,0.0337611273913514,-0.23700326491891888,-0.4411265488249366,1.250939746897202,0.14779206440631454,-57.00807891197258,-25.679999916470322,-94.14147783893767
0.14707426718832434,0.023263027391351387,-0.2509192649189188,1.2077282511750633,1.823459746897202,0.43786837440631454,-57.00807891197258,-25.679999916470322,-94.14147783893767
0.13779692718832431,0.03058722739135139,-0.24164196491891887,-0.5785310488249367,-0.41318225310279777,0.06382256440631451,-57.00807891197258,-25.679999916470322,-94.14147783893767
0.14463286718832433,0.03254042739135138,-0.24554816491891884,1.6046752511750633,1.2356727468972024,0.3080973844063145,-57.00807891197258,-26.59999991647034,-94.14147783893767
0.14267973718832433,0.030098927391351393,-0.25336066491891884,0.6199422511750634,0.7852917468972023,-0.6079331355936854,-57.00807891197258,-26.59999991647034,-94.14147783893767
0.14390044718832434,0.02204232739135137,-0.24628066491891887,0.4825372511750634,-1.2605102531027979,-0.3178568355936855,-57.928078911972584,-25.679999916470322,-94.14147783893767
0.13413481718832432,0.028634127391351405,-0.23065566491891887,2.902385251175063,-1.8788302531027978,-0.6842687355936855,-57.928078911972584,-25.679999916470322,-94.14147783893767
0.1297402871883243,0.03400522739135137,-0.2482337649189188,1.5283392511750633,1.4494137468972021,0.3615325044063145,-57.928078911972584,-25.679999916470322,-94.14147783893767
0.13291411718832433,0.03254042739135138,-0.24628066491891887,0.26116325117506345,3.9074287468972027,0.8500820644063145,-57.00807891197258,-25.679999916470322,-94.14147783893767
0.13804106718832432,0.021065727391351374,-0.2389563649189188,-0.8915081488249366,1.647886746897202,1.9111512644063144,-57.00807891197258,-25.679999916470322,-94.14147783893767
0.14365630718832434,0.020089227391351383,-0.24969856491891884,1.3145982511750636,1.426512746897202,2.4531352644063147,-57.00807891197258,-25.679999916470322,-94.14147783893767
0.14951567718832431,0.03180792739135141,-0.25360486491891887,-2.2121187488249365,-1.2681432531027976,0.3767996764063145,-57.00807891197258,-25.679999916470322,-94.14147783893767
0.14683012718832433,0.030098927391351393,-0.24603646491891884,4.238262251175064,1.8845277468972026,-0.1499179355936855,-57.00807891197258,-25.679999916470322,-93.22147783893767
0.13682036718832433,0.030098927391351393,-0.2504309649189188,0.8413162511750634,0.9913977468972024,-0.12701713559368544,-57.00807891197258,-25.679999916470322,-93.22147783893767
0.13804106718832432,0.024972027391351403,-0.2435950649189188,0.15429325117506343,-0.9246322531027977,0.21649436440631453,-57.00807891197258,-25.679999916470322,-93.22147783893767
0.13926176718832434,0.032784527391351403,-0.25018686491891884,0.8642172511750634,0.6555197468972023,0.13252486440631456,-57.00807891197258,-26.59999991647034,-94.14147783893767
0.14878325718832433,0.02716932739135136,-0.2521399649189189,-0.1892181488249366,0.44941374689720215,0.4149676144063145,-57.00807891197258,-26.59999991647034,-94.14147783893767
0.14707426718832434,0.031563827391351384,-0.2467688649189188,0.7497132511750633,2.067733746897202,0.17069286440631454,-57.928078911972584,-25.679999916470322,-94.14147783893767
0.13047270718832432,0.036446627391351405,-0.2509192649189188,-0.1815845488249367,1.5028487468972025,0.40733402440631455,-57.928078911972584,-25.679999916470322,-94.14147783893767
0.14414458718832432,0.028634127391351405,-0.2404212649189188,0.46727025117506327,3.273840746897202,0.10199046440631454,-57.928078911972584,-25.679999916470322,-94.14147783893767
0.14414458718832432,0.02839002739135138,-0.23358526491891884,1.3527662511750633,-1.0238692531027977,1.1630592644063147,-57.00807891197258,-25.679999916470322,-94.14147783893767
0.13730864718832433,0.031563827391351384,-0.25287236491891885,-0.8533402488249366,-2.9093651531027978,-0.08884913559368546,-57.00807891197258,-25.679999916470322,-94.14147783893767
0.13315825718832433,0.03131972739135136,-0.2487220649189188,0.6962782511750634,0.2891077468972023,0.17069286440631454,-57.00807891197258,-25.679999916470322,-94.14147783893767
0.13559966718832434,0.02472792739135138,-0.24383916491891888,0.8871182511750635,2.067733746897202,1.1630592644063147,-57.928078911972584,-26.59999991647034,-94.14147783893767
0.14438872718832432,0.02277472739135139,-0.24969856491891884,0.3833012511750633,2.640253746897202,0.9187844644063146,-57.928078911972584,-26.59999991647034,-94.14147783893767
0.1453652871883243,0.026681027391351364,-0.25531386491891883,-0.1968517488249366,-1.1612732531027978,0.43786837440631454,-57.928078911972584,-26.59999991647034,-94.14147783893767
0.14365630718832434,0.02716932739135136,-0.24750136491891883,-0.3189890488249366,0.35781074689720205,0.46076914440631456,-57.928078911972584,-26.59999991647034,-94.14147783893767
0.14780669718832434,0.03131972739135136,-0.2431067649189188,0.08559125117506339,1.3730777468972026,-0.7148037355936855,-57.928078911972584,-26.59999991647034,-94.14147783893767
0.1375527871883243,0.030831427391351363,-0.24335096491891883,0.7649802511750634,0.49521474689720213,0.8119141644063146,-57.928078911972584,-26.59999991647034,-94.14147783893767
0.14048247718832432,0.02839002739135138,-0.23700326491891888,0.08559125117506339,-1.1689072531027977,-0.07358203559368548,-57.928078911972584,-26.59999991647034,-94.14147783893767
0.13511137718832433,0.032784527391351403,-0.24750136491891883,1.1542932511750634,-0.01623525310279783,0.38443326440631453,-57.928078911972584,-26.59999991647034,-94.14147783893767
0.13901762718832433,0.032784527391351403,-0.2509192649189188,-0.8686073488249366,0.18223774689720207,0.40733402440631455,-57.00807891197258,-26.59999991647034,-94.14147783893767
0.14487700718832433,0.02472792739135138,-0.2357825649189188,-0.4182257488249367,0.6020857468972021,0.8119141644063146,-57.00807891197258,-26.59999991647034,-94.14147783893767
0.14170317718832431,0.028145827391351408,-0.2487220649189188,1.8794842511750636,1.9455967468972024,0.8424485644063145,-57.928078911972584,-25.679999916470322,-94.14147783893767
0.13950591718832434,0.02765752739135141,-0.2518958649189188,0.03978925117506327,0.7852917468972023,0.7279447644063146,-57.928078911972584,-25.679999916470322,-94.14147783893767
0.1414590371883243,0.027901727391351383,-0.2348059649189188,1.0397892511750633,1.716588746897202,-0.1880858355936854,-57.928078911972584,-25.679999916470322,-94.14147783893767
0.13804106718832432,0.032296227391351406,-0.24530406491891887,1.0245222511750636,-0.42081525310279755,0.07908976440631454,-57.928078911972584,-26.59999991647034,-94.14147783893767
0.13975005718832434,0.0296107273913514,-0.2582434649189188,-0.013645748824936632,0.6784217468972025,-1.3789257355936853,-57.928078911972584,-26.59999991647034,-94.14147783893767
0.13975005718832434,0.025216127391351373,-0.23749156491891887,-0.4182257488249367,-2.3215792531027977,-0.09648273559368548,-57.928078911972584,-26.59999991647034,-94.14147783893767
0.14267973718832433,0.031563827391351384,-0.24286266491891884,1.9100182511750634,-0.26814325310279763,-0.5392308355936855,-57.00807891197258,-26.59999991647034,-94.14147783893767
0.14023833718832432,0.030343127391351365,-0.2555579649189188,-0.3189890488249366,-0.07730425310279765,-0.9132767355936854,-57.00807891197258,-26.59999991647034,-94.14147783893767
0.14072661718832433,0.02936652739135137,-0.2435950649189188,0.016889251175063347,0.5868177468972022,1.0332882644063144,-57.928078911972584,-25.679999916470322,-94.14147783893767
0.14292387718832433,0.028145827391351408,-0.24530406491891887,0.7039112511750634,0.1975047468972022,0.5905401644063145,-57.928078911972584,-25.679999916470322,-94.14147783893767
0.14292387718832433,0.02765752739135141,-0.25336066491891884,0.22299525117506347,1.0066657468972022,-0.9209107355936855,-57.928078911972584,-25.679999916470322,-94.14147783893767
0.13804106718832432,0.02570442739135137,-0.2445716649189188,-0.13578274882493657,-1.283411253102798,-0.035414035593685445,-57.928078911972584,-26.59999991647034,-94.14147783893767
0.14683012718832433,0.0296107273913514,-0.23968886491891883,1.1237592511750636,-0.8635632531027979,-1.8369407355936853,-57.928078911972584,-26.59999991647034,-94.14147783893767
0.14243559718832433,0.026681027391351364,-0.2472571649189188,2.2077282511750633,0.6173527468972027,-1.2567877355936856,-57.928078911972584,-26.59999991647034,-94.14147783893767
0.13535551718832434,0.026192727391351367,-0.26166146491891884,0.6810112511750634,-0.03913625310279789,-0.15755143559368545,-57.00807891197258,-25.679999916470322,-93.22147783893767
0.13926176718832434,0.03131972739135136,-0.24652476491891884,1.4291022511750633,0.07536774689720227,0.46076914440631456,-57.00807891197258,-25.679999916470322,-93.22147783893767
0.14194731718832432,0.03302862739135137,-0.2521399649189189,-0.6090654488249366,0.6631537468972026,0.47603631440631455,-57.00807891197258,-25.679999916470322,-93.22147783893767
0.13877348718832433,0.029122427391351402,-0.2467688649189188,0.3833012511750633,0.49521474689720213,0.5676393644063146,-57.00807891197258,-25.679999916470322,-93.22147783893767
0.13999419718832432,0.027901727391351383,-0.24213026491891887,0.20772825117506333,-0.1994412531027976,-0.8674747355936855,-57.00807891197258,-25.679999916470322,-93.22147783893767
0.14072661718832433,0.02985482739135137,-0.25067516491891884,1.3527662511750633,-1.474250253102798,-1.4476277355936853,-57.00807891197258,-25.679999916470322,-94.14147783893767
0.14243559718832433,0.0254603273913514,-0.25384896491891884,-0.6930349488249367,-1.2681432531027976,0.20122716440631452,-57.00807891197258,-25.679999916470322,-94.14147783893767
0.14805083718832432,0.02399542739135141,-0.2357825649189188,-0.4487600488249366,-0.3826472531027978,1.0790897644063144,-57.00807891197258,-25.679999916470322,-94.14147783893767
0.14170317718832431,0.0176478273913514,-0.24945446491891887,3.0932242511750636,1.6173527468972027,-1.4476277355936853,-57.00807891197258,-26.59999991647034,-93.22147783893767
0.1375527871883243,0.018868527391351364,-0.25751106491891884,0.21536225117506347,-0.02386925310279775,0.3309981544063145,-57.00807891197258,-26.59999991647034,-93.22147783893767
0.13779692718832431,0.03351692739135137,-0.24213026491891887,0.5054382511750635,-0.25287625310279793,0.23176146440631454,-57.00807891197258,-25.679999916470322,-93.22147783893767
0.14072661718832433,0.03205212739135138,-0.24164196491891887,2.2382632511750633,0.18987174689720243,0.4149676144063145,-57.00807891197258,-25.679999916470322,-93.22147783893767
0.13584380718832434,0.028145827391351408,-0.24847786491891888,0.46727025117506327,0.9532297468972026,0.18595996440631454,-57.00807891197258,-25.679999916470322,-93.22147783893767
0.13047270718832432,0.027901727391351383,-0.24579236491891887,1.2306292511750634,2.8387267468972026,1.1706928644063144,-57.00807891197258,-25.679999916470322,-93.22147783893767
0.13901762718832433,0.02765752739135141,-0.24383916491891888,1.2687972511750636,1.2738407468972022,0.4684027344063145,-57.00807891197258,-25.679999916470322,-93.22147783893767
0.13950591718832434,0.026192727391351367,-0.2550696649189188,0.7955142511750635,-0.6803572531027977,-0.2873224355936854,-57.00807891197258,-25.679999916470322,-93.22147783893767
0.13779692718832431,0.024483727391351406,-0.24921026491891884,-1.2502867988249367,-0.7032582531027978,0.26992946440631455,-57.00807891197258,-25.679999916470322,-94.14147783893767
0.14170317718832431,0.02399542739135141,-0.2504309649189188,-0.47166084882493664,0.9684977468972025,0.4684027344063145,-57.00807891197258,-25.679999916470322,-94.14147783893767
0.14072661718832433,0.026436827391351392,-0.2426184649189188,-0.5098287488249367,-1.207075253102798,0.09435686440631452,-57.00807891197258,-25.679999916470322,-94.14147783893767
0.13193755718832434,0.03205212739135138,-0.2445716649189188,0.4825372511750634,0.7547567468972018,-0.3560247355936854,-57.00807891197258,-25.679999916470322,-94.14147783893767
0.1375527871883243,0.023263027391351387,-0.2521399649189189,-1.4029585488249365,-0.10020525310279771,0.19359356440631453,-57.00807891197258,-25.679999916470322,-94.14147783893767
0.13804106718832432,0.025948627391351398,-0.24921026491891884,-0.7159356488249367,-0.7032582531027978,-0.05068123559368548,-57.00807891197258,-25.679999916470322,-94.14147783893767
0.14194731718832432,0.030831427391351363,-0.2404212649189188,-0.8151722488249367,0.2280397468972022,0.2775630644063145,-57.00807891197258,-25.679999916470322,-93.22147783893767
0.14023833718832432,0.03302862739135137,-0.24750136491891883,1.0932242511750632,-0.25287625310279793,0.23939506440631453,-57.00807891197258,-25.679999916470322,-93.22147783893767
0.13852934718832433,0.02765752739135141,-0.23358526491891884,0.15429325117506343,0.624985746897202,-0.7758717355936854,-57.00807891197258,-25.679999916470322,-93.22147783893767
0.14292387718832433,0.022530627391351365,-0.23822396491891884,0.6657442511750633,-0.7337922531027976,-1.3407577355936855,-57.00807891197258,-26.59999991647034,-93.22147783893767
0.13242583718832432,0.022286427391351393,-0.24701306491891883,0.5054382511750635,0.1440697468972023,0.04855536440631453,-57.00807891197258,-26.59999991647034,-93.22147783893767
0.12803130718832434,0.0296107273913514,-0.25336066491891884,0.14666025117506343,-0.10020525310279771,0.8806164644063146,-57.00807891197258,-26.59999991647034,-93.22147783893767
0.1297402871883243,0.0254603273913514,-0.2487220649189188,0.5359722511750633,1.2204057468972018,0.8119141644063146,-57.00807891197258,-26.59999991647034,-94.14147783893767
0.13901762718832433,0.02277472739135139,-0.25067516491891884,-1.3876913488249367,-0.985701253102798,-0.09648273559368548,-57.00807891197258,-26.59999991647034,-94.14147783893767
0.14219145718832432,0.02472792739135138,-0.2518958649189188,0.4291022511750633,-0.16127325310279783,0.22412796440631452,-57.00807891197258,-26.59999991647034,-94.14147783893767
0.14121489718832433,0.02399542739135141,-0.24628066491891887,-0.6090654488249366,1.5257497468972026,0.5447385644063145,-57.00807891197258,-26.59999991647034,-94.14147783893767
0.13975005718832434,0.031563827391351384,-0.2399329649189188,-0.04417974882493669,-0.008602253102797608,0.8042805644063145,-57.00807891197258,-26.59999991647034,-94.14147783893767
0.13608794718832432,0.03205212739135138,-0.24994276491891887,0.2382632511750633,0.5333827468972019,0.5371050644063146,-57.00807891197258,-26.59999991647034,-93.22147783893767
0.14072661718832433,0.027901727391351383,-0.24798956491891888,-0.5174624488249366,-0.12310525310279763,0.6745096644063145,-57.00807891197258,-26.59999991647034,-93.22147783893767
0.13682036718832433,0.021309927391351402,-0.24164196491891887,-1.4945616488249367,0.15170374689720223,0.6210744644063145,-57.00807891197258,-26.59999991647034,-93.22147783893767
0.14048247718832432,0.027413427391351386,-0.24750136491891883,0.6199422511750634,2.3425437468972024,0.8119141644063146,-57.00807891197258,-25.679999916470322,-94.14147783893767
0.14023833718832432,0.0254603273913514,-0.2472571649189188,0.11612525117506345,-0.2376092531027978,0.7050439644063146,-57.00807891197258,-25.679999916470322,-94.14147783893767
0.14365630718832434,0.02399542739135141,-0.24798956491891888,-0.9373096488249366,0.36544374689720227,0.4149676144063145,-57.00807891197258,-25.679999916470322,-93.22147783893767
0.14438872718832432,0.023751327391351384,-0.2516516649189189,-0.17395094882493667,-3.497151353102798,-0.8064067355936854,-57.00807891197258,-25.679999916470322,-93.22147783893767
0.13559966718832434,0.027413427391351386,-0.24188606491891884,0.6199422511750634,-0.45898325310279775,-0.1728186355936855,-57.00807891197258,-25.679999916470322,-93.22147783893767
0.13315825718832433,0.03254042739135138,-0.24164196491891887,1.3298662511750634,-0.1841742531027979,0.19359356440631453,-57.00807891197258,-26.59999991647034,-93.22147783893767
0.13413481718832432,0.03547002739135141,-0.24969856491891884,1.9023852511750632,-0.11547225310279785,-0.027780535593685485,-57.00807891197258,-26.59999991647034,-93.22147783893767
0.13340239718832433,0.025216127391351373,-0.2599524649189189,0.41383525117506337,2.4341457468972023,0.07908976440631454,-57.00807891197258,-26.59999991647034,-93.22147783893767
0.13975005718832434,0.01935682739135136,-0.24505986491891885,0.30696525117506335,1.250939746897202,0.8577156644063145,-57.00807891197258,-26.59999991647034,-93.22147783893767
0.13950591718832434,0.03473762739135139,-0.24139776491891884,-2.2121187488249365,-3.0620369531027976,0.30046379440631454,-57.00807891197258,-26.59999991647034,-93.22147783893767
0.13877348718832433,0.04377082739135141,-0.23773566491891884,0.10849225117506345,-1.2452432531027977,-0.6079331355936854,-57.00807891197258,-25.679999916470322,-93.22147783893767
0.13511137718832433,0.029122427391351402,-0.25482556491891883,-0.3571570488249366,1.0066657468972022,-0.7758717355936854,-57.00807891197258,-25.679999916470322,-93.22147783893767
0.13608794718832432,0.020333327391351408,-0.24481576491891888,-0.8991417488249367,1.1593377468972021,0.8577156644063145,-57.00807891197258,-25.679999916470322,-93.22147783893767
0.13926176718832434,0.028634127391351405,-0.2509192649189188,-1.0823478688249366,2.090634746897202,1.0561889644063145,-57.00807891197258,-26.59999991647034,-93.22147783893767
0.14219145718832432,0.036446627391351405,-0.2445716649189188,-2.9220427488249365,-0.3826472531027978,-0.027780535593685485,-57.00807891197258,-26.59999991647034,-93.22147783893767
0.15195708718832432,0.026681027391351364,-0.23773566491891884,-1.5861646488249366,0.05246674689720221,-0.8293067355936855,-57.00807891197258,-26.59999991647034,-93.22147783893767
0.1490273971883243,0.02716932739135136,-0.2352942649189188,0.3374992511750634,-1.207075253102798,-1.1270167355936853,-57.00807891197258,-26.59999991647034,-93.22147783893767
0.13682036718832433,0.034493527391351364,-0.2477454649189188,1.7802472511750635,2.1746037468972026,-0.2720552355936855,-57.00807891197258,-26.59999991647034,-93.22147783893767
0.13291411718832433,0.03473762739135139,-0.2394446649189188,0.6886442511750634,2.2814747468972025,0.06382256440631451,-57.00807891197258,-26.59999991647034,-93.22147783893767
0.14463286718832433,0.032296227391351406,-0.23553846491891883,1.0321562511750635,0.9074287468972027,-0.8598417355936855,-57.00807891197258,-26.59999991647034,-93.22147783893767
0.13511137718832433,0.0332728273913514,-0.2467688649189188,1.6199422511750634,-0.6040212531027978,-3.7529707355936854,-57.00807891197258,-26.59999991647034,-93.22147783893767
0.12558989718832433,0.028878227391351374,-0.2477454649189188,1.3909342511750635,0.1364367468972021,-1.6690017355936853,-57.928078911972584,-26.59999991647034,-94.14147783893767
0.13511137718832433,0.03302862739135137,-0.24066536491891888,0.22299525117506347,-2.7948613531027977,-1.4247267355936857,-57.928078911972584,-26.59999991647034,-94.14147783893767
0.13779692718832431,0.02423962739135138,-0.23602666491891888,0.3374992511750634,-2.191808253102798,-0.9056427355936855,-57.928078911972584,-26.59999991647034,-94.14147783893767
0.13901762718832433,0.031563827391351384,-0.24750136491891883,1.5283392511750633,-0.5505862531027979,0.17069286440631454,-57.00807891197258,-25.679999916470322,-93.22147783893767
0.12632231718832432,0.027413427391351386,-0.2526282649189189,0.5130722511750634,0.15170374689720223,0.3615325044063145,-57.00807891197258,-25.679999916470322,-93.22147783893767
0.1297402871883243,0.02936652739135137,-0.2409095649189188,-0.3113554488249366,3.0066657468972022,2.0409222644063147,-57.00807891197258,-26.59999991647034,-94.14147783893767
0.15464262718832433,0.02692512739135139,-0.24188606491891884,-0.8457066488249366,-0.26814325310279763,1.8042802644063145,-57.00807891197258,-26.59999991647034,-94.14147783893767
0.14463286718832433,0.02472792739135138,-0.24237436491891884,0.9710872511750632,-0.9628002531027979,0.22412796440631452,-57.00807891197258,-26.59999991647034,-94.14147783893767
0.13633208718832432,0.02570442739135137,-0.24896616491891888,0.26879725117506337,-1.0238692531027977,0.04855536440631453,-57.00807891197258,-26.59999991647034,-93.22147783893767
0.14731841718832434,0.0217982273913514,-0.24579236491891887,3.764980251175063,1.6402537468972018,-0.4476277355936855,-57.00807891197258,-25.679999916470322,-93.22147783893767
0.13559966718832434,0.01911262739135139,-0.25018686491891884,2.146660251175063,1.6097187468972023,0.2928302144063145,-57.00807891197258,-25.679999916470322,-93.22147783893767
0.13706450718832433,0.03205212739135138,-0.24969856491891884,0.5970412511750633,1.334909746897202,2.0638222644063147,-57.00807891197258,-25.679999916470322,-93.22147783893767
0.13535551718832434,0.030831427391351363,-0.24481576491891888,-0.09761474882493659,0.35781074689720205,0.7890134644063145,-57.00807891197258,-25.679999916470322,-94.14147783893767
0.13511137718832433,0.036446627391351405,-0.24628066491891887,-0.7083020488249366,-0.6498232531027979,-0.027780535593685485,-57.00807891197258,-25.679999916470322,-94.14147783893767
0.1375527871883243,0.03473762739135139,-0.24798956491891888,-0.09761474882493659,3.067733746897202,-0.5773987355936855,-57.00807891197258,-26.59999991647034,-94.14147783893767
0.13633208718832432,0.022286427391351393,-0.23846816491891887,1.0550562511750634,1.2280397468972022,-1.0812157355936853,-57.00807891197258,-26.59999991647034,-94.14147783893767
0.13193755718832434,0.025216127391351373,-0.2472571649189188,-0.7770043488249366,1.8616277468972027,0.10962416440631456,-57.00807891197258,-26.59999991647034,-94.14147783893767
0.13486723718832433,0.02985482739135137,-0.2482337649189188,0.05505625117506341,0.12116874689720225,-1.0812157355936853,-57.00807891197258,-25.679999916470322,-94.14147783893767
0.12925200718832433,0.031075527391351387,-0.24335096491891883,1.1848272511750633,-0.8482962531027978,-1.2262537355936853,-57.00807891197258,-25.679999916470322,-94.14147783893767
0.13926176718832434,0.029122427391351402,-0.2487220649189188,-0.07471474882493667,1.716588746897202,0.3615325044063145,-57.00807891197258,-25.679999916470322,-94.14147783893767
0.13804106718832432,0.024972027391351403,-0.24701306491891883,-1.7770043488249367,1.0142987468972025,1.8577152644063144,-57.00807891197258,-25.679999916470322,-94.14147783893767
0.13633208718832432,0.030098927391351393,-0.24628066491891887,0.032156251175063266,2.4341457468972023,2.2851962644063146,-57.00807891197258,-25.679999916470322,-94.14147783893767
0.14048247718832432,0.032296227391351406,-0.2477454649189188,0.3909342511750633,0.39597774689720255,1.0790897644063144,-57.00807891197258,-25.679999916470322,-93.22147783893767
0.14048247718832432,0.02936652739135137,-0.24579236491891887,0.7802472511750633,-0.2986782531027976,1.0790897644063144,-57.00807891197258,-25.679999916470322,-93.22147783893767
0.13071684718832433,0.03180792739135141,-0.25848766491891884,1.5283392511750633,2.8616277468972027,1.3615324644063145,-57.00807891197258,-25.679999916470322,-93.22147783893767
0.13804106718832432,0.027413427391351386,-0.24554816491891884,0.41383525117506337,3.556283746897202,1.6134412644063145,-57.00807891197258,-26.59999991647034,-94.14147783893767
0.14609770718832432,0.025948627391351398,-0.2477454649189188,0.7344462511750633,0.9379637468972022,0.8424485644063145,-57.00807891197258,-26.59999991647034,-94.14147783893767
0.14634184718832433,0.029122427391351402,-0.24383916491891888,-0.9296761488249367,0.47994774689720243,0.9798530644063146,-57.00807891197258,-26.59999991647034,-94.14147783893767
0.15049223718832433,0.03058722739135139,-0.2357825649189188,-0.5632639488249366,0.9532297468972026,0.5829065644063145,-57.00807891197258,-26.59999991647034,-93.22147783893767
0.1490273971883243,0.027901727391351383,-0.24383916491891888,0.9634532511750633,-0.35974725310279787,0.14779206440631454,-57.00807891197258,-26.59999991647034,-93.22147783893767
0.13975005718832434,0.026436827391351392,-0.24505986491891885,1.3451332511750635,1.1440697468972023,0.07908976440631454,-57.00807891197258,-26.59999991647034,-94.14147783893767
0.13682036718832433,0.03205212739135138,-0.25433726491891884,0.2840642511750633,2.1746037468972026,2.2393952644063146,-57.00807891197258,-26.59999991647034,-94.14147783893767
0.13682036718832433,0.039376327391351384,-0.24164196491891887,-0.7083020488249366,3.3043757468972026,0.6668760644063145,-57.00807891197258,-26.59999991647034,-94.14147783893767
0.14780669718832434,0.03400522739135137,-0.2514075649189188,-1.7846379488249366,0.9913977468972024,1.7203112644063143,-57.00807891197258,-26.59999991647034,-93.22147783893767
0.14560942718832431,0.024972027391351403,-0.24139776491891884,-1.2121188588249365,1.1746037468972026,0.38443326440631453,-57.00807891197258,-26.59999991647034,-93.22147783893767
0.14121489718832433,0.0369349273913514,-0.24432746491891888,-1.9983784488249365,-0.7032582531027978,0.16305916440631454,-57.00807891197258,-26.59999991647034,-93.22147783893767
0.1375527871883243,0.036690727391351374,-0.2389563649189188,-0.7693707488249366,0.05246674689720221,-0.6002995355936854,-57.928078911972584,-26.59999991647034,-93.22147783893767
0.14658598718832433,0.027901727391351383,-0.24847786491891888,1.6046752511750633,4.2509397468972026,-0.6155667355936855,-57.928078911972584,-26.59999991647034,-93.22147783893767
0.14560942718832431,0.023751327391351384,-0.24945446491891887,1.1084922511750634,0.22040574689720227,0.12489126440631454,-57.928078911972584,-26.59999991647034,-93.22147783893767
0.14438872718832432,0.0176478273913514,-0.25433726491891884,0.6352092511750633,-1.6650902531027976,-0.9209107355936855,-57.928078911972584,-26.59999991647034,-94.14147783893767
0.14463286718832433,0.03351692739135137,-0.24554816491891884,0.6810112511750634,0.8158257468972026,0.8271813644063145,-57.928078911972584,-26.59999991647034,-94.14147783893767
0.14853911718832433,0.0374232273913514,-0.23797986491891887,-0.1815845488249367,1.0142987468972025,0.19359356440631453,-57.928078911972584,-26.59999991647034,-94.14147783893767
0.14707426718832434,0.03400522739135137,-0.24505986491891885,0.35276625117506333,0.800558746897202,0.3462653244063145,-57.928078911972584,-26.59999991647034,-94.14147783893767
0.14390044718832434,0.0296107273913514,-0.2426184649189188,1.6046752511750633,1.4417797468972018,1.0485554644063146,-57.928078911972584,-26.59999991647034,-94.14147783893767
0.14243559718832433,0.03131972739135136,-0.2445716649189188,1.0474232511750632,3.472313746897202,1.9416852644063147,-57.928078911972584,-26.59999991647034,-93.22147783893767
0.14390044718832434,0.03254042739135138,-0.2472571649189188,1.0932242511750632,2.289107746897202,1.5676392644063144,-57.928078911972584,-26.59999991647034,-93.22147783893767
0.14585356718832432,0.030831427391351363,-0.2394446649189188,0.5054382511750635,0.5486497468972025,0.49130346440631456,-57.928078911972584,-26.59999991647034,-93.22147783893767
0.14292387718832433,0.03205212739135138,-0.24701306491891883,1.2840642511750633,1.0601007468972026,0.5371050644063146,-57.928078911972584,-26.59999991647034,-94.14147783893767
0.14658598718832433,0.0332728273913514,-0.2472571649189188,-0.39532494882493663,1.136435746897202,0.06382256440631451,-57.928078911972584,-26.59999991647034,-94.14147783893767
0.15024809718832433,0.027901727391351383,-0.2518958649189188,0.14666025117506343,-0.2376092531027978,0.08672336440631451,-57.928078911972584,-26.59999991647034,-93.22147783893767
0.14756255718832434,0.029122427391351402,-0.2477454649189188,2.581774251175063,1.915061746897202,0.23176146440631454,-57.928078911972584,-26.59999991647034,-93.22147783893767
0.14341216718832434,0.0332728273913514,-0.24969856491891884,0.4749042511750634,0.3501767468972026,0.25466226440631456,-57.928078911972584,-26.59999991647034,-93.22147783893767
0.14658598718832433,0.03400522739135137,-0.2426184649189188,1.9939882511750633,1.136435746897202,0.6439752644063146,-57.928078911972584,-26.59999991647034,-94.14147783893767
0.15220122718832432,0.027901727391351383,-0.24530406491891887,1.1313922511750634,0.7700237468972024,-0.47052853559368546,-57.928078911972584,-26.59999991647034,-94.14147783893767
0.14097075718832433,0.031563827391351384,-0.24701306491891883,0.9405532511750634,-0.2452432531027977,0.32336456440631456,-57.928078911972584,-26.59999991647034,-94.14147783893767
0.13779692718832431,0.032296227391351406,-0.2467688649189188,0.4214692511750633,0.6173527468972027,-0.4781622355936854,-57.928078911972584,-26.59999991647034,-93.22147783893767
0.1453652871883243,0.02716932739135136,-0.24383916491891888,-0.4411265488249366,-0.07730425310279765,0.5294714644063145,-57.928078911972584,-26.59999991647034,-93.22147783893767
0.14219145718832432,0.029122427391351402,-0.24383916491891888,0.6733772511750633,-0.5353192531027977,-0.9209107355936855,-57.928078911972584,-26.59999991647034,-93.22147783893767
0.14243559718832433,0.025948627391351398,-0.23797986491891887,0.6657442511750633,-0.02386925310279775,-0.29495603559368544,-57.928078911972584,-26.59999991647034,-93.22147783893767
0.14341216718832434,0.03498182739135136,-0.24505986491891885,1.3069652511750633,1.7242227468972025,1.0180210644063146,-57.928078911972584,-26.59999991647034,-93.22147783893767
0.14267973718832433,0.027413427391351386,-0.2472571649189188,1.7039112511750631,2.0371997468972025,1.5447382644063143,-57.928078911972584,-26.59999991647034,-93.22147783893767
0.14316801718832434,0.0332728273913514,-0.24213026491891887,-0.12814974882493657,-0.22997625310279757,0.6287080644063145,-57.928078911972584,-26.59999991647034,-93.22147783893767
0.13999419718832432,0.03058722739135139,-0.23602666491891888,1.7115452511750635,-0.741426253102798,-0.23388733559368546,-57.928078911972584,-26.59999991647034,-93.22147783893767
0.14414458718832432,0.025216127391351373,-0.2526282649189189,1.0855912511750634,0.8845277468972026,0.10199046440631454,-57.928078911972584,-26.59999991647034,-93.22147783893767
0.14829497718832432,0.02399542739135141,-0.24798956491891888,-0.33425624882493665,1.1746037468972026,0.7050439644063146,-57.00807891197258,-25.679999916470322,-93.22147783893767
0.14316801718832434,0.03302862739135137,-0.23871226491891884,0.41383525117506337,0.27384074689720217,0.5752729644063146,-57.00807891197258,-25.679999916470322,-93.22147783893767
0.14951567718832431,0.026681027391351364,-0.2431067649189188,-0.9296761488249367,-3.6956246651027977,-0.9896127355936856,-57.928078911972584,-26.59999991647034,-93.22147783893767
0.13804106718832432,0.028878227391351374,-0.2426184649189188,0.3451332511750633,1.2280397468972022,-0.9819787355936854,-57.928078911972584,-26.59999991647034,-93.22147783893767
0.14658598718832433,0.032784527391351403,-0.24213026491891887,1.0016212511750635,2.4341457468972023,0.9645859644063145,-57.928078911972584,-26.59999991647034,-93.22147783893767
0.14438872718832432,0.032784527391351403,-0.24628066491891887,1.8184152511750633,1.4799477468972024,0.7737462644063146,-57.928078911972584,-26.59999991647034,-93.22147783893767
0.14072661718832433,0.02839002739135138,-0.24115366491891888,0.7115452511750633,-0.10020525310279771,-1.1957197355936855,-57.928078911972584,-26.59999991647034,-93.22147783893767
0.14292387718832433,0.024972027391351403,-0.24481576491891888,0.9023852511750632,1.0982687468972023,0.3615325044063145,-57.928078911972584,-26.59999991647034,-93.22147783893767
0.13633208718832432,0.02985482739135137,-0.24335096491891883,1.3604002511750632,0.7242227468972025,0.11725766440631452,-57.00807891197258,-25.679999916470322,-93.22147783893767
0.14390044718832434,0.032784527391351403,-0.2399329649189188,1.0550562511750634,1.136435746897202,0.45313555440631453,-57.00807891197258,-25.679999916470322,-93.22147783893767
0.14292387718832433,0.030831427391351363,-0.24432746491891888,1.4596372511750633,0.3120087468972019,0.5829065644063145,-57.00807891197258,-25.679999916470322,-93.22147783893767
0.13950591718832434,0.025948627391351398,-0.24750136491891883,-0.12814974882493657,0.24330674689720233,0.5294714644063145,-57.928078911972584,-25.679999916470322,-94.14147783893767
0.13779692718832431,0.0296107273913514,-0.24921026491891884,0.5283392511750633,1.4188797468972019,0.5294714644063145,-57.928078911972584,-25.679999916470322,-94.14147783893767
0.14438872718832432,0.028878227391351374,-0.2440833649189188,0.3451332511750633,1.3196427468972023,0.7584790644063145,-57.928078911972584,-26.59999991647034,-93.22147783893767
0.14731841718832434,0.03400522739135137,-0.24750136491891883,1.7878812511750635,0.9608637468972021,-0.7606047355936855,-57.928078911972584,-26.59999991647034,-93.22147783893767
0.14170317718832431,0.03424932739135139,-0.23871226491891884,0.6657442511750633,0.556283746897202,0.07908976440631454,-57.928078911972584,-26.59999991647034,-93.22147783893767
0.14365630718832434,0.031563827391351384,-0.24603646491891884,1.9634532511750633,2.197505746897202,-0.15755143559368545,-57.00807891197258,-26.59999991647034,-94.14147783893767
0.13877348718832433,0.028634127391351405,-0.24115366491891888,-0.16631734882493665,-0.12310525310279763,0.09435686440631452,-57.00807891197258,-26.59999991647034,-94.14147783893767
0.14414458718832432,0.026681027391351364,-0.25482556491891883,-0.8380730488249366,0.18987174689720243,0.17832636440631452,-57.00807891197258,-26.59999991647034,-94.14147783893767
0.13828520718832432,0.02716932739135136,-0.2472571649189188,1.0016212511750635,-0.2834112531027979,-0.2033529355936855,-57.00807891197258,-26.59999991647034,-94.14147783893767
