timestamp,ax,ay,az,gx,gy,gz,mx,my,mz,label
0.0,0.5071753405292936,0.0024745096284187196,9.018486504216483,0.3396003178558955,0.03709065035331921,-0.5415033709956952,557.371833672055,482.72456107819835,488.7647525582076,downstairs
0.05008347245409015,0.33502272660139065,0.2402440341443487,8.444453554493721,-1.2599085677971897,0.3649094377063947,0.39359514160028597,497.18391721919403,497.04178972412046,496.98512313279645,downstairs
0.1001669449081803,0.48266227940634104,0.9951321208354558,8.140224039412884,-0.6214647221644037,0.6699914222346601,-1.6781674485646152,486.20785555817247,435.0816969239536,526.7163083938887,downstairs
0.15025041736227046,1.0444448133329935,0.5628852101504103,8.37454240085958,-0.7567241971373009,0.2535987667327636,-0.03835579852047158,533.5759225374193,503.7800091859083,491.05499412459517,downstairs
0.2003338898163606,0.6660941203034616,0.4867519168643219,8.909059252661622,1.1470265430575488,0.653120205289113,0.6306715694231187,466.4579067872975,428.74647038546425,558.5318483043729,downstairs
0.25041736227045075,0.9911615488616144,0.1711527495730649,9.525772008643111,-0.37067252705251325,-0.04540028336601637,0.7110642071840392,441.3821678540368,473.67382518762247,485.27923228933764,downstairs
0.3005008347245409,0.5282263303437008,-0.3699453048893399,9.974077839130205,-0.3554816137954827,0.4456169969969297,-0.7068631405014241,464.2890015186196,523.7055351456157,504.5457402263214,downstairs
0.35058430717863104,0.08042739373403408,-0.6008751127897587,10.746009235367822,-0.2831841537378085,1.005283496141118,-0.1060446894419551,480.8892158257704,507.96679173703734,410.34741375497214,downstairs
0.4006677796327212,-0.28389723244614423,-0.21874163814504288,11.563926673064271,0.8507614856284235,-0.27763926690144936,0.9142436515324158,450.438359834215,521.6280275496209,490.85328781615493,downstairs
0.4507512520868114,-0.41680276232006724,-0.7556091621617382,11.195833662666468,0.25158812051385676,-1.0999216581709026,0.6572028486335555,479.8971346149331,549.8365071701854,507.9477094917205,downstairs
0.5008347245409015,-0.3901275011286966,-0.34833511397913264,10.697427240465629,-0.2758423064157532,-0.14806672765857742,-0.02827145430232097,503.7131736841198,489.3760344306478,529.8955153434658,downstairs
0.5509181969949917,-0.8319880025009692,-0.8336028207821964,10.576585162182692,0.8669030561078193,1.5174254419170492,0.4342611163273671,499.16690520221175,521.0954344630068,457.91109689690563,downstairs
0.6010016694490818,-0.9592910865579922,-0.3742416366535056,9.98704760936331,-0.8915235182815563,0.8425414174668618,0.8662742507920919,455.2235881477431,476.01727139944427,529.4295874458361,downstairs
0.651085141903172,-0.4073487240582443,0.05736261640356485,9.662234882628104,-0.4831254121142334,-0.7640404408896213,-0.1141178298927542,414.6881191150955,496.0902887158652,474.2095137022265,downstairs
0.7011686143572621,-0.03879014110509975,0.2552087553301645,9.045479135690181,0.23979270149299248,-0.4946340751969994,-0.5220188250742991,559.9265748865607,530.3554231214738,530.8438450743529,downstairs
0.7512520868113522,0.3208377725455233,0.3528841895680123,8.797060575244766,0.8938442957805023,-1.0224658309007528,0.13084361482872336,496.3039758502264,482.40314991015714,555.6953797222621,downstairs
0.8013355592654424,0.7782092140382102,0.605920696699437,8.399684025071318,-1.2073218748016692,0.05806930103519935,0.38467043241820187,509.872168946241,510.8976232468588,496.22725488122546,downstairs
0.8514190317195326,0.7853159191682875,0.7003792587373767,8.674983140419878,0.506643626216479,1.1538349378180206,0.5267785511063122,590.8756857131388,552.9184095957058,471.6396706327139,downstairs
0.9015025041736228,0.9254221432204358,0.3147288233137724,9.142889100568402,-0.6671829752510245,-1.1072481287239415,-0.4313021461338324,494.2291908354308,509.1024874189172,479.6863539482321,downstairs
0.9515859766277128,0.9552519808986853,0.25840841259641234,9.672285467567786,1.0613927497047775,-1.179076573043027,0.1839995933257397,525.1137656609665,507.2709281074109,526.8493323469097,downstairs
1.001669449081803,0.3250375065671245,0.14351479594858585,10.113250279281937,-0.5532747726198393,0.0783351147419954,0.660822537670732,494.4937200123291,470.3179529094389,467.32947963412175,downstairs
1.0517529215358932,0.2547393644358304,-0.06410437548195289,10.491386292910164,-0.47496649024453885,0.9425976685482111,-0.49641154765642975,441.4185883679957,471.12097527063986,539.1210974331668,downstairs
1.1018363939899833,-0.03176318183267288,-0.34706687026819977,10.768404687246834,0.3824037769978326,0.3021558900803579,0.14258245145235127,460.25011977756975,551.7346679184709,504.57161559871406,downstairs
1.1519198664440735,-0.7212276307141041,-0.31879210697102167,11.089380097208585,0.1868423615895649,0.6024233736174985,0.9430015912036218,483.1789837875479,489.61246138655423,492.6830875247394,downstairs
1.2020033388981637,-1.1256996468889697,-0.5687175870445265,10.954100452794545,0.08105338706027257,0.15115561400360047,0.08069062909992561,478.5434012236823,466.5586101803341,471.55020208174324,downstairs
1.2520868113522539,-0.49183709579914237,-0.6261400370700545,10.878031852778388,0.1474051106548304,0.6351491122324427,0.16672591757465932,504.9372678576505,433.9828340668626,579.4975728289742,downstairs
1.302170283806344,-0.6946017182809388,-0.4522969555083716,10.344055211944246,0.34323894919332404,0.920023730288523,0.25506143701112993,511.802031991586,461.0610994930599,532.5988770215073,downstairs
1.352253756260434,-0.7342003359100457,-0.5065919402782804,9.506583518221724,0.558311066712726,0.0054531121006453935,2.00275150404336,435.4188133293673,540.1431934352379,519.6585635430795,downstairs
1.4023372287145242,-0.1442485542630083,0.11321075759704963,9.086281394595932,-0.9646660353599701,-0.6381013185178839,-0.5969034046648133,517.8672472685167,462.1308718942722,513.2776568220063,downstairs
1.4524207011686143,-0.3155549761056908,0.4719881950012964,8.69863640378244,-0.7768726835963864,0.36949171807183173,0.5694635785816334,518.401180375011,522.9761096863866,485.46042404137114,downstairs
1.5025041736227045,0.41984425879129883,0.40438542117596704,8.409431265328273,-0.0987300982567109,-0.8366828034148498,0.29644168494811945,465.26695497592584,540.6333971750058,424.0306931846371,downstairs
1.5525876460767947,0.5951361492226708,0.7211173626153784,8.264216532304214,-0.46286304856431393,0.1934146872559272,0.7234358227721118,526.3196211206077,487.21777951153217,421.4136806375393,downstairs
1.6026711185308848,0.6395524373213,0.8507449341208291,8.565382338596601,0.1783922949126501,-0.63213281332456,-0.745301136759783,527.3610969822306,493.70994597320424,471.79933883081816,downstairs
1.652754590984975,0.6685693565702195,0.681437364199758,9.291388518723547,0.10746529850453612,0.3011479327770236,0.024753343901944152,467.53774569095316,511.6551079032386,468.74141445855605,downstairs
1.7028380634390652,0.7803302560838495,0.24724602032593415,9.901644648439134,0.28417427962371,0.42613117836136494,-0.6443341532950915,507.71976863342786,503.04611249851683,494.75085230548285,downstairs
1.7529215358931554,-0.08290438770788483,-0.3249554174574919,10.726521607785042,0.4044053529850692,0.1579428296745158,-0.02926885734477215,479.2369991350927,481.2838373446748,548.0794423666572,downstairs
1.8030050083472455,0.03772366409776645,-0.1138902659270433,10.715686805563541,-1.3670475372003061,-0.8117556127899077,1.774630752021732,500.58256325527196,491.6762826206947,502.5449047527073,downstairs
1.8530884808013357,-0.27105518014701246,-0.5450781440991497,10.786606077740187,0.664626559913181,0.7751280809478661,-0.325990839490996,548.1896704614926,555.2640015940905,508.8930326638638,downstairs
1.9031719532554257,-0.9517993111986985,-0.5815334835127604,11.056478317386109,0.1512596753437727,-0.11813009594187183,-0.4272911942541505,523.2242800995716,503.9712517388916,505.4985300242634,downstairs
1.9532554257095158,-0.8021685713935056,-0.49995955037208756,10.834726358309881,-0.9260793379724893,-0.46666282340931026,0.16013584635764921,455.24549307616957,471.6182361950975,533.638256025379,downstairs
2.003338898163606,-0.6179614434735166,0.024934917556617697,10.690076582777401,0.33142707895497825,-0.8316229494753752,0.23915531035024892,488.2676053892384,503.72189912106785,510.60835317780936,downstairs
2.0534223706176964,-0.7440258650945303,-0.13494641434232119,10.180200688211963,-0.21841156633483386,-0.6716513044280307,-0.1589838940079861,444.04849307662494,540.7080072428373,553.8924056630967,downstairs
2.1035058430717863,-0.09354943559708784,0.1431929444631889,8.742258077049383,0.7551748923136924,-0.47918886824349594,0.547183205842295,447.08510377706284,473.99109785118486,517.9708354320455,downstairs
2.1535893155258763,-0.06324524574401107,0.4471462279842614,8.973572449094023,-0.4920195782682641,1.0277159044226465,0.47070616667328474,543.9014778614534,502.6434255473362,564.340441802959,downstairs
2.2036727879799667,0.081537927111781,0.30143233337526015,8.376006530051228,-1.6846179545042868,-0.49053343998016397,0.3253121152286571,439.97901191239964,515.4250678108169,490.8395730813347,downstairs
2.2537562604340566,0.4867253891621129,0.7087242714743205,8.35293429622784,-1.1972294467486646,-0.8046300044122461,-0.1652446662772093,534.6795773804107,482.7047352746101,500.5693273645788,downstairs
2.303839732888147,1.0815738324277682,0.6979914706960244,8.339806884128595,-0.6611193930568303,1.1027818494504864,0.8260048232387697,494.4942840312486,523.8346081553893,547.3335031239847,downstairs
2.353923205342237,1.052073535275551,0.2481244827778855,8.800904530614687,-0.30546449972130596,-0.28051372893495,-1.0674730953356935,489.10449801995884,480.4366297074377,519.7541680272916,downstairs
2.4040066777963274,0.8502872501047052,0.01561705303111377,9.32546463807887,0.4534910446314599,0.8830877765146445,0.3904034231984415,484.68754553069243,543.4620197144121,470.4007491890169,downstairs
2.4540901502504173,0.34010722978774865,-0.08608061631940012,10.395819906704448,-1.3252844463518316,1.0429715689255723,0.8360739963512972,501.40150914884595,547.8113680764169,557.5108610277315,downstairs
2.5041736227045077,0.025544218015695744,-0.24621905341198952,10.596908170609352,0.3533815117300752,-0.6705790109024562,-0.32455015416037347,468.4967808111823,473.4930592057663,474.5545846803793,downstairs
2.5542570951585977,-0.6509694359571508,-0.18757679196543248,11.061030367999269,-0.8160036688283827,-0.2209547495916639,0.36677370841938406,478.5718215073325,534.9013643369118,472.14206213669587,downstairs
2.604340567612688,-0.8114037417894127,-0.4513953957801167,11.126561276499467,1.3650951161553102,0.9155992826619559,-1.0241802117820349,480.1133085534251,507.68363848114393,572.3257111047443,downstairs
2.654424040066778,-1.050193647094671,-0.9682770256261803,10.88031019483039,0.7228896441140404,-0.6772743780564132,-0.3559966771910734,553.8679524950945,500.6497348795816,488.0398098232569,downstairs
2.704507512520868,-0.8828554101935926,-0.5743996230644974,10.421602947266688,-0.14677974863948215,-0.5072647519574427,-0.05291037695958982,480.51985778697673,453.6624467045652,510.5219032622807,downstairs
2.7545909849749584,-0.5193311660023355,0.31104839369726667,9.932295570097132,0.21340245077086648,0.081729299848164,0.6083458704803,553.6076440700684,519.1665619473167,535.1244193846392,downstairs
2.8046744574290483,-0.6286088127493835,-0.06694548318407148,9.507766372940749,0.5259065514621103,0.5689255308470014,0.8548036771720374,431.34551887106073,439.9583561310301,479.72886538013705,downstairs
2.8547579298831387,-0.0019701668955888624,0.12891270833665264,8.779263780286788,-0.4486130359019543,-0.47422065180947703,0.8337771752353602,488.2143214672486,437.2999081949737,453.25052384872816,downstairs
2.9048414023372287,0.33999776477964455,0.5957119518510419,8.732816800790241,-0.43459230989582764,-0.5739259609767516,0.294791885325436,493.7921622763097,510.69453714314824,470.28409048755753,downstairs
2.954924874791319,0.5310524103847115,0.42561537372007957,8.652598979889481,-0.40025084937126676,0.41326027108677726,-0.1261805058125737,523.9048404230595,460.2621982024649,495.8954004471568,downstairs
3.005008347245409,1.132998098106125,1.006353679090342,8.883458265239986,-1.316269348214496,-0.4887290560228816,0.6050727013535797,445.16849734173235,463.8448292223921,598.7150418656513,downstairs
3.0550918196994994,1.2293008073210436,0.27103266519865915,9.152610197586263,-0.52154614182123,0.37531772099028204,0.45993416820101907,453.4612044111477,523.0260683004066,522.3829527182598,downstairs
3.1051752921535893,0.5697194491201556,0.5707445685442056,9.53985532454875,0.3403579901116371,-0.3390257757476867,-1.1460473056947675,480.89100245261875,513.9102990258915,467.52604961186427,downstairs
3.1552587646076797,0.1767837599546272,-0.02116534202184528,10.113403430929454,-0.8204145939918015,1.475113681261501,0.2834028612644458,501.7032741675041,564.9675603736459,489.162675272008,downstairs
3.2053422370617697,0.2437383677808762,0.03447333723370399,10.393981979615914,0.3231882576481325,-1.2429889355962072,0.5931350779776527,495.2399230649707,578.942148011922,541.3257898226226,downstairs
3.2554257095158596,0.17293818995914267,-0.4327941200625253,11.128101246476204,0.760017978522031,-0.5765390715107799,-1.0707333696975647,560.4223740296219,527.3408159400212,420.31404030347335,downstairs
3.30550918196995,-0.7210297434871881,-0.6281964120907557,11.20146372061513,0.44426119426638583,-0.07583596389210678,1.5640924531061584,601.9570492918816,561.716776955239,423.2971971935155,downstairs
3.35559265442404,-0.8379251216373528,-0.8233252476622077,10.895535916305066,0.22034560996741498,-1.8590756618055726,0.886122063266799,503.45493729803735,437.86070683464453,546.4570384513675,downstairs
3.4056761268781304,-0.9008142412553306,-0.5821762761968954,10.889379745952594,0.269237731851359,-1.1407744510573674,-0.5886530248279249,539.2377567409476,530.1842135357878,459.2172084815104,downstairs
3.4557595993322203,-0.5054351159586852,0.09579284050380338,10.19889644279233,0.6213153405435798,1.3725760841727772,-1.0663227859068867,428.9308485532436,455.75565922848205,531.9723476746323,downstairs
3.5058430717863107,-0.8126368366021379,-0.3947060955341988,9.703813640070901,0.021403710170356974,-0.0335939697301449,1.560518558222864,543.4470678710172,558.7086748391007,510.78139693682584,downstairs
3.5559265442404007,0.1743969055171813,0.18103237304343947,8.677416793523172,-0.11784767042213239,0.9130941201547098,-0.8079854600672682,544.244954032393,544.3750071691088,547.3794962380606,downstairs
3.606010016694491,0.39914039406760526,0.35534201662407183,8.732706560634824,1.7907081175703272,-0.8952059990438733,0.02986197448235775,511.75165806916743,466.56263717499905,506.7448696240755,downstairs
3.656093489148581,1.1344868320984947,0.639834950178072,8.370097385118582,-0.8494147967448415,0.20814042747138112,0.17022170160762584,400.86451319843474,501.57869794678527,471.887249512116,downstairs
3.7061769616026714,0.7113365858778803,0.7211764533281178,8.586715830463055,-0.3431080105876084,0.5238556358143993,0.1340862191096713,512.0021511299989,500.6636441594314,490.21674231684307,downstairs
3.7562604340567614,0.9706450940848067,0.5708922644059828,8.551695930847686,-0.5974800890089362,-0.06504955845130811,0.808518507003249,532.9370431345527,506.3988453470229,447.7827289861984,downstairs
3.8063439065108513,0.845363373162229,0.2945574222607141,9.026222497803948,-0.055600620552809385,-1.4335819483620205,0.7166769376384841,501.7315551580441,568.9223384385275,472.0726939022864,downstairs
3.8564273789649417,0.4132550946819856,0.17486772893905844,9.867718510343243,-0.30332985589921974,-0.11763387796882907,0.48611862153101093,507.3127081388238,543.631879578693,436.3263342552054,downstairs
3.9065108514190316,0.13911133933279768,0.0013580445119821122,10.344066063380032,0.29464500658786835,-0.6815822256210375,-0.5251472553538392,540.6750170198095,527.9809038370192,519.3951820749681,downstairs
3.956594323873122,-0.17183552518627776,-0.23821660193684163,10.831666197893968,0.28965801061322105,0.30899794492537286,-0.37688188010707985,465.2917416736725,547.8813883070403,504.1429817000108,downstairs
4.006677796327212,-0.613755234164844,-0.3226540219296198,11.186361503479233,0.19874738744735274,-0.16465039332313908,0.9190946914356564,514.0766282843629,469.2215835925522,470.28154439625547,downstairs
4.056761268781302,-0.8720309907753573,-1.012459782560477,10.86426858814404,-0.8947428123695768,-0.3791117458811175,0.15311599138842524,460.0779173244532,529.888415678814,487.4300088093425,downstairs
4.106844741235393,-0.8787785473742852,-0.7939893787019063,10.77964838424252,-0.07647611404522153,0.3599382778249711,0.029963046643191354,536.6401230307865,521.0197114507498,483.82493405579606,downstairs
4.156928213689483,-0.7588100984262078,-0.19371468520191265,10.259023000018448,-0.4551221681822965,0.08642063062893383,-0.02037181850616304,553.8069986643719,400.6206479882273,469.2766330848429,downstairs
4.207011686143573,-0.4275676804598797,-0.37614493198071397,9.796767377640185,-0.04862797549118588,0.3405425029898204,-0.5802250034404239,503.29215777120237,503.40474074365017,483.4591704619458,downstairs
4.257095158597663,-0.35143967734754716,0.17067253925204057,9.30381973132942,-0.2316888277801135,-1.0591709029648657,0.28050567879292476,479.2186668909789,486.3217464006463,497.26198223837196,downstairs
4.307178631051753,0.23109846665463457,0.7100072396010915,8.705655684646466,-0.289031018817037,0.36330762531418453,-1.0820898401742778,563.3049974101696,473.94608849124904,472.0850142479481,downstairs
4.357262103505843,0.48769661350091104,0.4160329303723559,8.50643303860986,0.9220357740716403,0.5189355595253335,0.5576668125714026,546.4566782814205,479.9671243249565,489.0708787110536,downstairs
4.407345575959933,1.0432714994464334,0.7238246581472563,8.614241610995604,-0.7354125431272067,0.057471278072484436,0.3486261717470013,481.41396855802265,491.0795447663813,563.5269225468533,downstairs
4.457429048414023,0.8331159287342115,0.6520695630239597,8.70942136685481,0.2932859390900179,1.6402965374487797,1.6638482910526113,457.3415140356106,544.5315624031481,492.3072351630832,downstairs
4.507512520868113,0.8416470071928419,0.36918324210643505,8.943903376565409,0.32627480905481065,0.6254866312874321,0.5256706694654673,488.0901227985932,509.2509725758227,536.5793622318146,downstairs
4.557595993322204,0.45228144956062105,0.30298970792752145,9.978286337033715,-0.5227014784796692,2.0202692213707,-1.4797405467727462,529.7425570356908,540.0381886997808,477.4251855035006,downstairs
4.607679465776294,0.3803497065769035,-0.3097138628370204,10.457046910419187,0.2147157171149122,0.23431926467180242,0.20219133285771512,480.9154334921904,420.7501309520245,528.0427785864703,downstairs
4.657762938230384,0.09712109088359101,-0.30094161652151175,10.738081496252873,0.016694677250152952,0.007420094010599838,-0.169889693640219,482.13733079871156,449.76921134087047,442.666099819374,downstairs
4.707846410684474,-0.47983304777381997,-0.3667256794867786,10.78442916860881,-0.522490804717344,0.07965207138183522,0.07484553953851632,524.6886235012444,512.5936427660174,509.18834362408,downstairs
4.757929883138565,-0.8274981621217037,-0.32862570124380125,11.62658822935403,-0.04470635810284796,0.5854435910899104,-0.7325490643252429,487.8292454950211,518.951488579019,446.99773854550165,downstairs
4.808013355592655,-0.9085423468503497,-0.6700777500537751,11.38974313146207,0.5385768011122031,-0.5080819332062512,-0.04632529824487945,481.02721934742635,495.77440213249935,481.9370599454744,downstairs
4.858096828046745,-0.9499356410574021,-0.3599576831245912,10.54325625956576,0.25650856408476846,-0.2317477573740064,0.44046360594648454,576.5962189305833,519.6371547082211,516.7240561709974,downstairs
4.908180300500835,-0.352201991334902,0.35645108208983095,9.473299419325897,-1.2412258933608076,0.39604689477990523,-0.0014151251579373502,452.25660229840065,475.64618337131077,421.27783364873056,downstairs
4.958263772954925,-0.16152900758369954,0.17628497793136289,9.215885623931948,-0.9794060371448838,-0.26331866025848777,-0.35943774809169626,551.0427809069064,492.8181168013891,483.4461867107171,downstairs
5.008347245409015,0.2179314428729054,0.20611093823646714,8.728085388405098,0.36821769172834984,-0.08976842186023061,1.1850448424551139,552.5185253440987,507.0840572227913,504.5695611087598,downstairs
5.058430717863105,0.7537179779580918,0.5958246931933002,8.749169548787378,-0.9754725549931295,0.44674598979709057,0.160391899024536,517.1616677215823,483.7154024534198,570.7830433159098,downstairs
5.108514190317195,0.8037157365902682,0.6954163435597462,8.394580007829187,0.03962035018079062,-0.29016430825517653,-0.024561483033386726,588.3139505535489,501.6760594159124,457.3386956361893,downstairs
5.158597662771285,0.9177373083807867,0.32720992062996235,8.350802456664349,-0.31807995347701024,0.7386983361418182,-1.0955430512130666,531.4711304912256,523.5823526184424,476.54407692717615,downstairs
5.208681135225376,0.8246737753708963,0.3605878670837008,8.91236788435992,-1.4589230309402015,0.054918796468385926,-0.8879761465147717,521.2422538781576,545.5231708245444,546.7656606217209,downstairs
5.258764607679466,0.45837405830021266,0.24773847943248037,9.681670385800949,-0.5709692297124258,0.13905790346255892,-1.7683102513776614,562.2736611787054,528.8897636340532,440.3420909590944,downstairs
5.308848080133556,0.34227915856555907,-0.2994514882164979,10.282047195956737,0.8275378810592902,-0.49169543190277615,0.009521098285974063,548.4988361143827,514.4738834153437,501.8475560060376,downstairs
5.358931552587646,0.028093833550754344,-0.16328122593332148,10.627134640398445,-0.10236197221230738,0.26047825241239214,1.2141019930557049,458.1857320946159,465.7106607501017,522.9151752779942,downstairs
5.409015025041736,-0.26450768522464574,-0.43298942821306063,11.218853235908709,0.2762627455652067,0.2743825114078777,1.448291780767886,481.647978752568,520.4598729929536,534.3213017263736,downstairs
5.459098497495827,-0.709094897137376,-0.4970198872487353,11.533985371663762,-0.05514327644904173,0.42507511873637316,0.49230438276599986,451.7835992093031,537.7128928676079,504.4825786338218,downstairs
5.509181969949917,-0.4571743493351647,-0.6200482704527355,11.29680319330625,0.008061299409932316,-0.5472881256936746,-0.6256550889884277,529.7839484863226,484.3963928456089,458.95248310207825,downstairs
5.559265442404007,-1.042455590244579,-0.7108815706002918,10.851684205219998,1.1691760109418476,0.964469837519479,-0.7422635105495989,479.35240051472596,470.7502866930161,473.3123384566637,downstairs
5.609348914858097,-0.8308201600744639,-0.15183763999530503,9.921685458829792,0.6018923568650878,0.3690640393067403,0.38739310236632235,540.8002434448925,555.7210694363906,562.4496317416447,downstairs
5.6594323873121875,-0.8453659281221994,-0.2858607073297802,9.239136824031696,0.3787251729494228,0.019816044781524756,0.6650766937375963,463.0411566293856,455.64851210182394,451.84187793256126,downstairs
5.709515859766277,-0.3868890529954297,0.2150746354644782,8.860725195519974,0.5433914467932558,0.5423629289086793,-0.08794581262057,396.87825084266103,580.1600964834342,451.9328058703366,downstairs
5.759599332220367,0.131572169255125,0.32756040718546503,8.223036617082187,-0.11672950725578383,-0.37865764160755744,0.01761510474991607,466.8496647371284,445.850866296665,468.7255005206032,downstairs
5.809682804674457,0.5564607930063478,0.5410084075227293,8.308442695195465,-0.16369385770418843,-0.38947104571093244,-0.1357633156144428,555.3107171223924,488.12663781419667,539.4955177251798,downstairs
5.859766277128548,0.6561369806766113,0.3060723299646421,8.194804757494092,-0.6698217321847941,-0.34450598443894065,-0.17423624976310326,412.73279218097815,491.80635893749076,505.6419351068675,downstairs
5.909849749582638,0.6208541075448919,0.47272837534635986,8.86826861164264,0.3901901794712098,0.19709162763396676,-0.4826261744872243,497.11920318900536,489.20041073283517,533.4766189501426,downstairs
5.959933222036728,0.9050623627634293,0.3224228341835412,9.183199016918465,0.3805715113000319,0.2782301091532153,0.1339093522487613,447.9681749126046,450.1678477819228,508.6697674837355,downstairs
6.010016694490818,0.6899185227289508,-0.013514205272935634,9.459418103438555,0.11269990527536325,0.9373370338282515,0.19912935181314778,496.2604346403319,531.2834622275333,518.8495318195675,downstairs
6.060100166944908,-0.1078320820982771,-0.22746535448006133,10.655735130822467,-0.3797636864530925,0.40726314058812385,0.5769366289549399,509.2138073465694,542.7260314081732,524.9823224765215,downstairs
6.110183639398999,-0.2710492200316271,-0.3178284233596652,11.245631027276426,0.7004530582794223,-0.05871217194220737,-0.2542425064490483,555.5067339559885,518.7848903665406,521.4133156315538,downstairs
6.160267111853089,-0.5333173894513008,-0.761917761188637,11.427394935979851,-0.8678422303895207,0.5823223214877782,-0.37647684649662344,571.6570476388014,480.5656130754362,523.1088686988614,downstairs
6.210350584307179,-0.6595735443154366,-0.634613512346963,11.127396588425148,-0.0062722734811533065,-1.2273438408925186,-0.7857282254820096,475.96589728083575,511.63201856358125,462.4476931742454,downstairs
6.260434056761269,-1.2883913772648437,-0.6371419745544888,10.817905697513343,0.1144684589195483,-1.0772595825235838,-0.39131379224385393,512.0439163804316,512.9853272921459,539.631597554137,downstairs
6.3105175292153595,-0.8822372289432471,0.21907937013682183,10.43811075647455,-0.3315881905381717,0.5055757972570133,0.4222402107282991,478.8093449766537,522.8093425759047,525.4334656894904,downstairs
6.360601001669449,-0.6722515083527532,0.062449671088743455,9.597214045056791,-0.45767490643813025,-1.0393590497858538,0.5671006740087042,468.6087244455217,472.6793926133664,520.9657410558989,downstairs
6.410684474123539,0.014033507854367216,0.3912593891611286,9.082836516412243,0.3250107550674473,-0.7870668588540622,0.04761551115508294,507.0078429392287,495.72822187994393,482.53382055603316,downstairs
6.460767946577629,0.1575235429978516,0.23139482375419293,8.577504738051731,-0.49973783748745226,-0.34273878147119136,-0.12164801319671502,422.7011295938791,486.01633920075136,547.0650074683135,downstairs
6.510851419031719,0.7771052306298715,0.7062863310899294,8.865065003258412,-0.5502596448473622,-1.2436078314194166,0.6568541306479837,555.5539117344766,503.5590258455212,423.3311629224706,downstairs
6.56093489148581,0.8253670593171863,0.597959323477405,8.633217730481396,-0.9320808583230258,0.6602001849706662,0.8159678791526641,531.2754464031472,447.5155980677427,538.6877087349831,downstairs
6.6110183639399,1.1173564094401944,0.3845336212747966,8.405911419661487,0.3137661731635757,-0.8606447753456977,0.44450041941881646,498.7321829072721,542.7866823585854,480.22577621101493,downstairs
6.66110183639399,0.8231730867921735,0.5316051544137743,8.82945409387259,1.2244171524857657,-0.36443166321480697,0.07840119767562762,501.680785158765,507.0213223742085,518.1550298596137,downstairs
6.71118530884808,0.7024345045528252,-0.08365581964816457,9.862378486910444,0.31020087595217766,-0.34286096902651847,-0.14552598537069591,509.303233855824,534.5393007079942,518.0211903583956,downstairs
6.761268781302171,0.04754622556842132,0.027224454674123655,10.623745408648361,-0.5024919184254792,0.29517062848903547,0.7007329749255993,488.29820858195495,460.8399242840117,485.20720374587904,downstairs
6.811352253756261,-0.015959295539309498,-0.09366710578124554,11.158205714653468,-0.13084728482491895,0.0015168701853832713,-0.5782715674476424,442.88320992025353,571.0868453770822,528.1207475289943,downstairs
6.861435726210351,-0.548145878010188,-0.41614922942750254,10.79277007356686,-0.40805482461445486,-1.359001526464597,0.32951406111710974,476.5788847581856,451.9976252606787,502.02042604412026,downstairs
6.911519198664441,-0.658264017107006,-0.5930933839933226,11.187521320844068,0.28687150754630636,0.09063217214779691,-0.5130389116122527,401.89090736692435,555.300381134858,544.0777639358281,downstairs
6.961602671118531,-0.42604043622630017,-0.5116431006593303,10.88101132050748,-0.45870233002206007,0.41699540471069746,-0.6532249456715727,400.8196162314827,530.3984062568283,536.0185109423032,downstairs
7.011686143572621,-1.0438546863029023,-0.11727052850284142,10.094613556614116,0.6387991124500548,0.4393221133351231,0.08819239628107278,496.81704492417543,561.781025071539,492.43025226525435,downstairs
7.061769616026711,-0.529565698554408,0.023734180324087306,9.571179920008511,-0.8732105255407295,-0.644573663629007,-0.8816235106125169,495.94483215110546,422.1074407692537,492.7902129105127,downstairs
7.111853088480801,-0.04806768952962012,0.11781765923046916,9.48426975855483,-0.46572720289713465,-0.9095180597571605,0.5038067104390203,474.3879196008006,477.55649785147347,483.5415291743211,downstairs
7.161936560934891,0.7045757703302269,0.27923502762807595,8.493100926976027,0.318733674785841,-0.5409453886463219,-0.25099010464233545,503.96973464634823,490.7847620488111,519.3079891883136,downstairs
7.212020033388982,0.5552217577942545,0.6658703990145662,8.350340626410334,0.6346180024835634,0.8717394591485884,0.7302481646908098,542.28474732064,554.903481458553,510.65821795093274,downstairs
7.262103505843072,0.7296225509743769,0.8150277907089045,8.86077849330665,1.1900796869479593,-0.19385761161241244,-0.8297292076755485,410.6506895446766,395.2628408347244,527.2676814201925,downstairs
7.312186978297162,0.972579224065847,0.3895260614038115,8.629777385503656,-1.4029368255820478,-0.2550820971518286,0.6859272204482351,509.7465932856771,462.94864680968607,551.4776845421317,downstairs
7.362270450751252,0.8361300686918884,0.15855329253281109,9.173463498176702,-0.5283112827329451,-0.8755172868879489,-1.3243830434275177,480.76862582546414,477.9686173188885,504.6285147034571,downstairs
7.412353923205343,0.7616046547873364,0.044084380077213825,9.769384024998306,-0.1982944127858863,-0.5875750541144152,-0.015047994239463187,494.42139903849926,546.6241547321988,473.69608740888845,downstairs
7.462437395659433,0.08566988266202148,-0.004537188748720916,10.275779204919782,-0.670822442706366,0.5122362830460164,-0.11315965731011011,537.3591808078716,522.4512207309938,563.2003003625425,downstairs
7.512520868113523,-0.10321580769528457,-0.31151411146781016,10.757651703046662,-0.8206576915852395,-0.2920231916212225,-0.7584654886540715,512.4333312934735,517.4556448388261,464.230599368504,downstairs
7.562604340567613,-0.5262309908373496,-0.4542316487365606,11.29347077178237,0.16323451209826131,-0.09972191585461003,-0.4341497859021688,554.9012973553635,459.83265037129075,490.21723979786077,downstairs
7.612687813021703,-0.7980556411332124,-0.45716214883799294,11.070633916143176,-0.6875036805009809,-0.2153465213778001,0.3896394661917827,519.45469138374,464.9432495107728,466.05165739491576,downstairs
7.6627712854757934,-1.0554663452122854,-0.938599163404106,11.083386147345914,-1.0583259816144353,-1.5497938536819882,-0.0666007046915914,527.0774864259264,499.27043369651574,394.14219265739246,downstairs
7.712854757929883,-1.1845773339858066,-0.6576101893242119,10.33041428546089,-0.8256184411413844,-0.8588319705915569,-0.2927727245041248,628.8536033694722,464.67745294944604,528.643397360059,downstairs
7.762938230383973,-0.5458679155830375,-0.1655937343179552,10.066546754474267,-0.4168837538230302,-0.005616242917131232,-0.023588576640256605,522.2035724525675,490.3912878751628,547.2032609206742,downstairs
7.813021702838063,-0.3289597347488046,-0.30472880967084665,9.453756245980529,0.22646806806225261,-1.6210522687018813,-1.2324547558433017,559.3827859270835,441.76808727707953,476.76077225894005,downstairs
7.863105175292154,0.06356023275203633,0.08360713471969039,8.758558634538003,-0.10780557498223224,0.9109368476746905,-0.9416127823667422,487.2032861153615,437.0622761472017,520.96904624402,downstairs
7.913188647746244,0.028684825808865055,0.8055779215566428,8.445662008511809,0.34759213826916147,-0.1425137414814618,1.4371790637629374,475.2663457836487,534.4563863271864,560.9828688347708,downstairs
7.963272120200334,0.719957480708406,0.5620172794770542,8.327319423994709,-0.10633399511236072,-0.1937149344533491,-0.5931145399868879,542.9017275110032,438.15876883264775,479.2976026357206,downstairs
8.013355592654424,0.8627193454535701,0.6521818782762763,8.632677607215154,1.6399033594493735,-0.8628758297114087,-0.3406728080775452,533.3812370477041,426.7625784631281,459.6645925017362,downstairs
8.063439065108515,0.7359046018352572,0.5610431401982701,8.625086621644638,0.8246352695436274,-1.342676497931494,-0.8262297905296179,426.0960406735976,562.6390139161463,484.5470320743146,downstairs
8.113522537562604,1.0739286559262506,0.2903642072264387,9.515086125051837,-0.027465998091987055,-0.9301631852050202,-1.07221815790891,522.2563329785194,535.9007021150217,559.2464079454921,downstairs
8.163606010016695,0.6193424909356057,-0.27225621505381886,9.963169139956682,0.604734630851104,0.9840226115706646,-0.5158599104439783,448.53119977106587,497.4117449246752,501.0836362948314,downstairs
8.213689482470786,0.22319147830393427,-0.28990977598911405,10.736597316021854,-0.6394427354251029,0.5271805441069582,-0.09481787063245564,463.2209166877936,412.61428618257014,559.8733075903685,downstairs
8.263772954924875,-0.49729712079847443,-0.5280515582615815,10.933747655706034,1.104806938092426,-0.4217518161650235,-0.2895677361826524,532.2186436136241,531.4402621759714,462.5156028311891,downstairs
8.313856427378965,-0.9014711849481156,-0.3486797682798698,11.364954310187978,-0.6109090061631822,-0.3087206222058685,2.318657585900507,489.8337187009156,498.2977538178308,475.99758708873577,downstairs
8.363939899833055,-0.7395088233210143,-0.54480023600467,11.102548307401335,-0.10160306483338002,-0.005712264118108853,0.1444232376230807,546.2826673531906,456.93210909712354,529.8932513413054,downstairs
8.414023372287145,-1.1343203052642166,-0.4695579005127793,10.736652218608098,0.11998011722101594,-0.7005687646982923,0.8011686484194305,420.50254356372955,484.07879267823256,537.0963978513183,downstairs
8.464106844741236,-0.7390215677657807,-0.2969092132572515,10.30259253435559,0.33708139258430003,1.1573401750493684,-1.3625401065217912,492.50105974908723,491.6520067333066,440.3545574083641,downstairs
8.514190317195325,-0.6438921490068037,-0.1697022702062405,9.81890773244232,-0.012156675167196264,0.38912826980126697,0.59453891417829,474.118182073786,505.24160496746435,504.71991667465284,downstairs
8.564273789649416,0.12124135789252412,-0.08389622002038663,8.943981049447432,1.0091034623186916,-0.5992956458938912,-0.0014510394969099267,554.800973509453,502.96549229218016,473.94928264645733,downstairs
8.614357262103505,0.476577465515122,0.41982392226709214,8.721644823979597,0.7458552943654405,0.7123399326446815,1.3027287924232216,514.5331827168109,510.1465660392173,462.8909204948912,downstairs
8.664440734557596,0.5035929986370579,0.6949316960450163,8.449446952564024,0.2577360825569681,-0.4105602295916277,-0.38353652612608036,525.8515179418928,506.0039124706462,518.2741259317614,downstairs
8.714524207011687,0.918223765963571,0.9717144124173018,8.68056126610836,0.07492522589682035,0.2750557326425384,-0.31053865671594205,497.0459483415618,526.4331325769356,526.5418104944259,downstairs
8.764607679465776,1.0905928049797604,0.8035636952676779,8.663395900896106,0.28926465969596893,-0.973347139088566,-0.11089622618784332,495.03562258748525,431.5668235029543,503.6987086601194,downstairs
8.814691151919867,0.9672442931069697,0.2027212077083768,9.298814816696083,-0.6468198568933651,0.08502883437094674,0.5448009244912358,481.65984919465006,464.3738750192131,572.3924594239235,downstairs
8.864774624373958,0.4413542145875105,0.13303818003081397,9.87055046824759,-0.1752934364412907,-0.5364299675326368,0.08830807991661702,484.9416763993382,477.3363222938696,653.9318593156966,downstairs
8.914858096828047,0.10602048087250639,-0.1896201112147324,10.825231688525388,-1.0141569568964466,-0.4083788902470795,-0.4710177192724487,445.1326813357218,579.0980885488146,508.85594734891265,downstairs
8.964941569282137,-0.41434602444213087,-0.711928698826475,11.056260574494246,-0.994036455469112,-0.5244276102342145,0.6607214763644113,528.390121095727,449.27398321351393,516.6853672276128,downstairs
9.015025041736227,-0.6203523424051709,-0.22574639710860428,11.31455507049095,0.08419638803977608,-0.27651001119786206,-0.9414860494185954,492.98710132455346,531.7724441210509,480.529262131469,downstairs
9.065108514190317,-0.6418950954733058,-0.759852214940389,10.99667572001282,0.22105368271844572,0.0691432132395008,-0.5293121755560672,507.64454604357763,426.54098147568766,447.4942324151726,downstairs
9.115191986644408,-1.010646779976226,-0.8723343660129566,10.805054633152563,-1.5323449802586535,-0.7961832701237646,0.1374012239312576,434.4190841709167,484.918405857353,525.1020072892138,downstairs
9.165275459098497,-0.6584235793720927,-0.8071064933230128,10.503747595326873,0.1293051731208533,1.065987197002869,0.2605155704740725,616.4708491986278,530.32145439396,554.2614969419421,downstairs
9.215358931552588,-0.6976292798333151,-0.045906619766479695,9.377352120541335,-0.3465649515579723,0.4322631998118477,-1.2415513928338704,474.69564657712425,453.4660554106537,510.9087141735662,downstairs
9.265442404006677,-0.3702653641350204,0.26015468469737124,8.870155212463716,0.37992858531609175,0.5566695472853532,-0.8655114823512988,457.63847052985955,518.4286720647464,587.2629125518632,downstairs
9.315525876460768,-0.0641116975251432,0.20709541768175918,8.83709283395767,0.13500316689813846,-0.5033481765229888,-0.33252639231010844,544.7704894246677,520.6802803310578,575.2496528077545,downstairs
9.365609348914859,0.607678604307422,0.9677123807303514,8.76792381975211,-0.29068081847170896,-1.0133974264619379,-0.22814059036964884,466.36919841419916,491.7824614975563,496.98219281568987,downstairs
9.415692821368948,0.674024529657435,0.5949177207110041,8.363223026630411,0.5874265709310101,-0.4377373109186435,0.1367387443704835,412.94526095087224,506.5085934568642,466.5443021919384,downstairs
9.465776293823039,0.8587889884245384,0.4475451427946115,9.06452744907743,-0.2543453496523194,-0.478192239720704,0.6661334474967433,493.1744021217773,476.34565451212126,443.00698192052164,downstairs
9.51585976627713,0.5326430679611818,0.5207909498528733,9.209622312470746,-0.26411505391205603,-1.319136552795074,0.2853206938704345,451.221586097149,501.8121141664252,460.95505545577873,downstairs
9.565943238731219,0.3945455156519218,0.08867636471612353,10.11087196983743,-0.4075487067603543,-0.19086565360659014,0.1936493821195486,462.8963591373417,493.4007446118982,634.5737711071438,downstairs
9.61602671118531,-0.03824416027728633,-0.5254827614679602,10.381300806608548,-0.8639833970398711,0.865704350484827,-0.27091102786813487,465.9860265157977,372.90052823738563,423.30359517995583,downstairs
9.666110183639399,-0.250223130308196,-0.36528559906224606,10.641373866429996,-0.458284670202001,-0.41828431954068657,-3.816786932622901e-05,531.645732376766,438.76339824493,444.37211903631993,downstairs
9.71619365609349,-0.364527056188946,-0.36345622695584606,10.911659530940328,-0.6299687501465616,-0.7149994531017656,-0.7435677604753694,476.2503433348058,504.2559850441853,501.69439669371366,downstairs
9.76627712854758,-0.7245928540332204,-0.4187370343591541,10.959429221685623,0.12082214266524668,0.7166270156107636,0.0709824914440442,486.27668958258096,488.3265582692172,549.8437202148814,downstairs
9.81636060100167,-1.0114157634044827,-0.39177605570421214,11.080509020611386,0.7429138861455109,-0.45330878518716683,1.274579772749227,504.349182931812,512.2500745597198,525.6668669209703,downstairs
9.86644407345576,-0.9319623225979281,-0.6677324384827203,10.367402090312034,-0.8563892069853124,0.37334956239779027,0.011169604065289771,454.25749551193445,500.63435714405745,502.25223030448154,downstairs
9.91652754590985,-0.4882060600681814,-0.04307511501831596,9.760676652025897,0.2668489710362996,-0.0881956560213269,0.5820715203254941,450.09483040438874,522.9112217082009,470.30846518530643,downstairs
9.96661101836394,0.09128802345593907,0.21239018398407694,9.143347776321116,0.40791991369643443,-0.4753210984907795,0.5743514582818322,454.82153893583387,537.6699585417164,476.64958821024436,downstairs
10.01669449081803,0.24538715236562003,0.32525647220108483,8.701323893686299,-0.3434449570177559,0.1214761397538672,1.018166367328966,446.4918903974824,479.45242589641566,529.4797886669777,downstairs
10.06677796327212,0.3465765732501453,0.04901303059752554,8.715878565696327,-0.2075926282007025,0.3954732702156234,-0.3985526330978538,491.07750162055936,517.8987295119495,519.2176824891208,downstairs
10.11686143572621,0.4819359043286044,0.513212526687197,8.390857925916782,-0.517345757231803,-0.512258245145394,-0.31736670578475773,419.15756282264346,478.2874744008272,523.4781477675004,downstairs
10.1669449081803,0.8993466003544546,0.6690196982985153,8.326396248641004,-0.4955412876946071,0.8926488625423478,-0.14393688316592843,448.38095812324565,528.0588875991665,439.6002246928659,downstairs
10.21702838063439,0.7355020261340524,0.4491780838800047,9.40190093709668,0.19758916290890519,-1.0210542666725575,0.039352056566215474,487.05388139671953,526.1113291685731,497.29856542396067,downstairs
10.267111853088482,0.6142305109180862,0.09727726303834505,9.950769194465632,-0.757695292506978,0.13954881374731612,1.3352219906914533,515.1044601707297,477.1792935613018,454.35193574163105,downstairs
10.31719532554257,0.5787893092717497,-0.15077556735230446,9.966806635182436,0.6945783758832689,-0.128671041046685,0.3188246658196293,519.6766589336687,422.44708188497816,488.1212513848927,downstairs
10.367278797996661,-0.26334190749968434,-0.1776396216520389,10.581025260685225,-0.262221482509194,0.7424075268979976,-1.2007938391977646,508.58649189307414,576.1750484941311,532.4995650652849,downstairs
10.417362270450752,-0.42633600664306515,-0.45008433657042374,10.748854174185368,-0.3306262816309292,-0.4291920397919292,-0.49389446932233644,567.94222350356,557.9907608928281,547.4630138691077,downstairs
10.467445742904841,-0.9876459975235267,-0.6184739942408772,10.93805891008097,-0.9991582829734991,-0.8010634577909072,-1.056559392245086,420.47602303644237,529.789871058145,489.31544759658163,downstairs
10.517529215358932,-1.0463629533016843,-0.6641687177188957,10.860731107306089,-1.4324078082706084,-0.25494431596552386,-0.400384270832164,491.3479906094576,494.5271340189187,476.72219838352464,downstairs
10.567612687813021,-0.836611676603196,-0.4120505035023899,10.651691530095265,-0.022688374514766674,-0.1768731316717561,-0.3226651042880599,530.9120365279077,501.4572042565087,429.12212409986273,downstairs
10.617696160267112,-0.4711516786899209,-0.6202396082780679,9.867862829228137,-0.1703510306534211,-0.3171840707510015,0.35373691123379813,492.97025534285586,391.6639977699936,526.3691428744128,downstairs
10.667779632721203,-0.17013431623892505,0.009682750690626692,9.351941248386785,-0.26893304197415535,-0.7376202164366548,0.40826822812718533,497.9138315776494,517.5134557680354,455.4708958988487,downstairs
10.717863105175292,0.1286162747769482,-0.3319624634769461,8.669768130186126,0.3363774705765685,-0.19883355712180048,-1.0495480442670186,405.85632252355146,475.54585710812603,526.399127513231,downstairs
10.767946577629383,0.3810955407002645,0.10790434709280294,8.547293985473658,-1.2294627620692633,-0.02792968165970595,1.7165326374769239,472.7672399379448,460.7353933566596,467.79464411391933,downstairs
10.818030050083472,0.4054409722322713,0.28839816144948416,8.456421365033366,-0.1861827401073598,0.3931374953564672,1.0032038987906904,527.2630448968118,414.6210265490835,498.8393281375003,downstairs
10.868113522537563,0.6635664706133957,0.6349821172555019,8.677370365178966,-0.581121813898476,0.6316181721081108,-0.31076596777538,533.9003251906286,460.1062515670517,473.7642137568633,downstairs
10.918196994991654,1.0220682137003931,0.37598732123346595,8.76020225243412,-1.3259405281050163,-0.6195368715322429,-0.4343863296246912,511.96958062536004,507.333029049529,466.82340768239413,downstairs
10.968280467445743,0.643604059119318,0.3372412677246959,9.510897342984782,-1.465329011606369,-0.24282136572122676,1.3640584822968722,551.4122395261631,542.0195737217512,506.14211937959567,downstairs
11.018363939899833,0.6500881560212463,0.17259151477311122,10.140995508470683,-0.5129652508540309,-0.6336221647161931,0.5142024697972849,516.246866175268,505.13256271954003,506.9898726150777,downstairs
11.068447412353924,0.1718873041708459,-0.11423383400005091,10.312765386619354,1.4114839947665443,1.2902814084740055,0.5004349675791568,425.3835629678306,508.3494810685845,491.8478116834538,downstairs
11.118530884808013,-0.27543638612615107,-0.20769461925590904,11.232953217798292,1.9243621308871013,1.2261688122462464,-1.0321052454607944,460.58006191105756,569.9455980397144,508.5001510052159,downstairs
11.168614357262104,-0.6911533694482344,-0.45195575622448597,11.338528835939792,0.25693401756785705,0.8980539282691515,0.21380470521528838,487.077333850025,529.9626568786335,510.4487834576808,downstairs
11.218697829716193,-0.6627293402525927,-0.8195721452238065,10.808052655238615,-0.06348148129396029,-0.7176116986938772,0.07369523410010018,479.1237916065377,529.9507552488473,458.31308349380623,downstairs
11.268781302170284,-0.8766416964978967,-0.49777946726057737,10.59968925497627,0.23519439552926014,0.5582447142251151,0.45481298196870634,535.2441413776837,535.0660375176336,503.9260658038728,downstairs
11.318864774624375,-0.7900246895238506,-0.6308701859989452,10.120935753470071,-0.5057013310338447,-0.15817645233006225,0.005731172434476437,476.56231765604656,477.373007333854,435.80076943450075,downstairs
11.368948247078464,-0.6817799385419289,-0.15793789898632832,9.250363896058145,-0.07923527839644204,1.2818216031730085,0.9841471546340921,489.8096601437515,520.6555188643472,534.6330677917604,downstairs
11.419031719532555,-0.012309234331491933,0.22847587314718135,9.109825697124245,0.7850040132659152,0.7550700644863272,0.6108974280659671,506.53134008558624,520.4832734400835,512.0729986339559,downstairs
11.469115191986644,0.26288356590270745,0.3605476805639436,8.901722020226515,-0.07689110239769369,0.8589357054784036,0.1796512250436013,515.8166797682987,476.8994015023938,483.81852051824166,downstairs
11.519198664440735,0.5103587421965955,0.6377140100083678,8.436041341040378,-1.1680336599302952,0.6862156347668588,1.2142568873666768,522.880199938446,491.09159744728447,500.6530650622757,downstairs
11.569282136894826,0.8541432595102739,0.691977283677714,8.370636884028936,-0.3226907617202651,0.14501835272999272,0.649005192780712,459.4143629167645,464.4634368958431,543.5602875628714,downstairs
11.619365609348915,0.828562142154261,0.7911659733739267,8.578052261272477,0.05309868518632816,0.7935357156175158,0.7371841053250583,527.0666966775427,476.20498927781006,525.1584620681018,downstairs
11.669449081803005,0.5153521779980652,0.3266192879304318,9.079718848883083,-0.03823085441403033,-0.07699321299481292,0.5009491179690174,534.0287443233215,548.0637238271602,481.34900493365046,downstairs
11.719532554257096,0.46004620267642554,-0.18427759658087306,9.859717702557383,0.1193016248369797,-0.07190167589681581,-0.07726160575919636,435.93284202354636,431.900330773422,441.1439227603984,downstairs
11.769616026711185,0.016197287381557526,0.45230830634922037,10.679561784814458,0.3321226560004686,1.1021825829923027,0.32307274659654484,489.0800226849956,541.6019282474699,462.61968588703394,downstairs
11.819699499165276,-0.07236739955562868,-0.25888252049474725,11.129702755566429,0.13813382894829618,-0.4050227593347625,0.03547757691617612,465.9173127893521,482.6749998347024,542.9009749345564,downstairs
11.869782971619365,-0.4864065951208716,-0.7165333686279558,10.951668118460727,0.2163318136912336,-0.2931552015658809,-0.005793876152770985,536.1977598623648,495.6657088172311,543.018197282827,downstairs
11.919866444073456,-1.2205249056243093,-0.8931143106845243,10.987494838913694,0.34501520652410006,-0.395241401702917,0.31457018371184564,475.3941291327207,529.9569725141604,500.7155255804833,downstairs
11.969949916527547,-0.9377070623713507,-0.48416588220109175,10.752305206681946,0.9350915537516743,0.38914865117073566,-0.0038542419321196545,498.8143862413696,530.854908255543,484.6512321136697,downstairs
12.020033388981636,-1.0228907113003174,-0.5336174621474941,10.2469493235605,-0.46273400407617354,0.09724016386440126,0.24909378796633322,530.1872577270094,482.76911611461026,507.8134936824578,downstairs
12.070116861435727,-0.5352560366014811,-0.28401994430800953,9.683523117640512,-0.06738544370884707,-0.5022378785599528,-1.0795875062365254,387.1371045353198,537.4284989296898,492.9448126171815,downstairs
12.120200333889816,-0.21315630818529058,0.06258249895158871,8.849404624751974,-0.7528763777334316,0.4467765407169901,-0.752515519021894,465.4462676573277,454.3817773346291,409.8271655754791,downstairs
12.170283806343907,0.01736699903329983,0.5651106852857761,8.42228260363866,0.6116355201991699,-0.32741298966805976,1.4560911795230285,377.75723514515914,485.93608222412274,564.7146149280519,downstairs
12.220367278797998,0.46292485979065584,0.3274723897583902,8.500469595139622,0.5015658166465521,0.4859249034781151,-0.21048837621651903,488.77767824294864,528.098120338458,515.8372397494842,downstairs
12.270450751252087,0.7964746419916416,0.5917887785254881,8.573546905933489,-1.009554148567657,0.3123241327216939,-0.44440461232748363,482.6447438157851,481.8266746858851,407.3012078091057,downstairs
12.320534223706177,1.192246021450089,0.8506900923862455,8.5955334291889,-0.35960556624471185,-0.5292478480587307,-1.2068831277509262,436.7335264492451,478.25024849021884,523.6985785233258,downstairs
12.370617696160267,1.5354438286937828,0.6850714679376058,9.282761069370052,0.6878194115937852,0.8315019827151792,-0.5448318486377727,487.3358328721165,480.8929479875526,576.7630032739112,downstairs
12.420701168614357,0.33482105163511033,0.47442456137319466,10.091565115965444,-0.20078099476594327,0.32956863228609595,0.08452777649776216,539.6630436473956,496.12387800597224,487.6810806867665,downstairs
12.470784641068448,0.7749063831618832,-0.5838511197281797,10.412294941936116,-1.0601484188891792,-1.4332038667053453,-0.8132544698584906,450.56197366854985,513.5311883447033,498.2158232677681,downstairs
12.520868113522537,-0.08622156821829183,-0.3564836574242691,11.029704366920427,-0.2601636762397933,-0.16683229003775812,-0.7041750021787228,534.4514196413403,539.871656781167,502.2561912943086,downstairs
12.570951585976628,-0.7987273640079244,-0.6642366136492275,10.957953651425118,-0.3060986257013405,-0.9361891782497926,-0.15596990167281988,523.2422108997896,422.35678633277587,516.039440446578,downstairs
12.621035058430719,-0.8325831502218966,-0.7866893511855133,10.850202728691585,-0.7595441329878391,-1.1610273105126845,0.08467499041895006,518.4662366397748,536.7018331664193,471.9339481515023,downstairs
12.671118530884808,-0.8273375032611284,-0.7642513360984364,11.188922379895823,0.041332438268924944,0.33587927308803567,-0.0475527278065988,409.9343064629454,542.5228866621136,414.5645550077194,downstairs
12.721202003338899,-0.9311527285029426,-0.509079435081623,10.603734157043514,1.9238989677463132,1.6874088692357199,-0.9568279128462774,513.7513972397538,451.92180478102205,528.2106104396432,downstairs
12.771285475792988,-0.5951887919409368,-0.7519141698681293,9.73891932800532,0.10873391986599824,-1.7095578536666547,-0.48941941670708605,477.49931098795344,517.8384476688772,527.44247136431,downstairs
12.821368948247079,-0.11686630327751035,0.03550999950632432,9.133584262160593,0.17841421863091267,-0.6789902761617262,0.05569165080425988,506.32527961745075,514.0042701933004,454.08054236174934,downstairs
12.87145242070117,0.19779221137877834,0.5486547830911264,9.0369318751481,0.16267638566517947,-0.408826464429035,-0.3401698364097823,498.2335196821356,480.5773396510594,452.4217773491717,downstairs
12.921535893155259,0.6361233018280306,0.4674271884954444,8.377606213746136,-0.04836609579097453,1.052535907152854,-0.6131789106830212,471.72223450242933,478.875176283752,556.3248739443254,downstairs
12.97161936560935,0.9399023982933331,0.8372380965418782,8.42593540584889,0.020775973496739,1.1220264563004099,-1.063375014535907,511.4427827311538,550.385217654249,508.6503952675321,downstairs
13.021702838063439,0.9857005760678353,0.21273052886342714,8.987719537660615,-0.32208837730089734,-0.31471745443232774,0.3733584881568739,454.6013009956616,486.05569116386334,526.2735880352897,downstairs
13.07178631051753,1.0072938197689916,0.47445526872013943,8.894992504419145,1.2860412596467845,0.2071701106202557,0.6709778950859187,477.12793788733427,520.5176128563619,487.81184698039357,downstairs
13.12186978297162,0.477033439125856,0.4097100199883375,9.700917242443682,0.7163376788742906,0.37986259558136637,-0.3346244264699313,480.6074440589372,541.497745006883,471.8417826740355,downstairs
13.17195325542571,0.0017207914936115398,0.5591854624915347,10.142748867620762,0.6721967463655691,-0.1564952798234391,0.40052193924209534,568.6797616758688,533.8346559553822,430.53660462892674,downstairs
13.2220367278798,-0.09210139200519465,-0.49239110890568766,10.913075009356815,0.39056407328177006,0.1649275724549771,-0.608415224961616,485.32218931081576,529.0375070982483,451.27246041027934,downstairs
13.272120200333891,-0.39203226204488545,-0.22702326633912645,11.049107766835547,1.0682919551860004,0.4974607533843871,0.10153011951403916,401.9794314692791,483.1291234338175,505.79816388198236,downstairs
13.32220367278798,-0.862244561136803,-0.8019441860598555,11.14373373196418,1.4657488368337117,0.13887112728660736,-0.0368502364210756,514.8329768571692,480.384198972771,473.60715762587057,downstairs
13.37228714524207,-0.6213111576305613,-1.0015343402527515,10.697253566225386,-1.2241781660333346,0.34599906028867194,-0.5154878075761202,438.3882277559224,439.75954767866006,495.3037890821247,downstairs
13.42237061769616,-0.7493719245871421,-0.1964895873043051,10.875288016615995,-1.0343983066103934,0.1703589682621343,0.41694295624109057,479.14261178436874,483.2852187075618,457.7812086620004,downstairs
13.47245409015025,-0.5708256495437438,-0.45235067631117604,9.736602483068443,0.01616582843828825,0.9742553764143063,0.3870574373215804,517.841983331948,471.3714944001666,466.0679410733028,downstairs
13.522537562604342,-0.2248721904913762,0.05081634682193275,9.276942751998039,-1.2596693031956325,-0.369123417594717,-0.8575444381826143,496.0548469524588,424.88027048843776,542.7315381787736,downstairs
13.57262103505843,-0.370855955188561,0.10829661576075525,8.860983845820295,-1.2075830490721546,-0.2346690302790649,0.2954068600445475,482.311416352254,456.9259076004861,470.55445312537506,downstairs
13.622704507512521,0.46593517339232154,0.3475307568115526,8.429960398079652,-1.103083665866673,-0.3270813670186219,-0.02297751488707264,525.826860954976,505.2779875041377,520.0828364754277,downstairs
13.67278797996661,0.3315112553313456,0.5942175441088409,8.485175968139766,0.05849703957514148,-0.3109176698919483,-0.9696385942157609,432.23953116697106,499.77645546775943,502.9946760618528,downstairs
13.722871452420701,0.9123084311375326,0.6390417293871149,8.435592634826225,-1.3958422768974463,-0.14974287290658247,0.8774427897990467,570.7204278155999,490.5910273287134,454.18242863563677,downstairs
13.772954924874792,0.8219274551426832,0.5436904918275727,8.792620700039045,0.5147287829333242,0.5084844941677336,-0.01578958287134782,468.83703641992565,522.5397736901641,454.3086787938553,downstairs
13.823038397328881,1.0684192478758034,0.18579118194596211,9.439937727054676,-0.34005631379307394,0.2197703000068015,-0.2883288215846275,485.5371796571355,411.62959917964974,526.8747257871053,downstairs
13.873121869782972,0.30032932969617954,-0.12403814489344978,9.922810106537055,-0.2943182490574652,0.2751803047387231,0.3071419964036892,558.8505706242538,447.8870914213659,451.0388312896741,downstairs
13.923205342237061,0.492982317544523,-0.2999664611507048,10.743294334761766,0.5044227431811994,-0.2691180185317381,0.5779590371460334,491.06676908650496,555.01554354606,463.3857661867712,downstairs
13.973288814691152,-0.33338681813756804,-0.32860730466095484,11.101748117331466,-1.0976586350187982,0.017649730499774478,-0.44849810428366504,492.23415011572246,462.8094896278892,489.33330628928866,downstairs
14.023372287145243,-0.7053618868706263,-0.4462095122231751,11.514150450573718,0.4645973290684072,-0.9494929940366019,1.5042938402352763,503.02130459572555,554.8806476057546,533.7600705765578,downstairs
14.073455759599332,-0.7047522630964027,-0.26722058751059763,11.042265403447544,0.8549819319778704,0.6832164278610543,0.429044190325768,544.8095554734973,514.6193186569478,502.8844045733468,downstairs
14.123539232053423,-1.0507806966895976,-0.9232340439643063,10.719835119836587,0.27454867040523606,-0.18539131790598165,0.06849033489050604,497.5848413462279,585.4796699173471,532.8507458589813,downstairs
14.173622704507514,-0.5073811544586526,-0.5497883176010145,10.33178583794524,-0.31855198052226724,-0.8885287668008052,0.06370789460156465,452.62643295550635,524.6136684240741,532.4452632112916,downstairs
14.223706176961603,-0.34335310425079424,-0.05546855948954292,9.300667538249106,-0.8685790184615823,-0.43271250634885766,1.8164875510749543,464.37979932129724,455.8399762744167,399.4246985104807,downstairs
14.273789649415694,-0.2120487903438102,0.09611532283410155,8.609654054161403,0.4422630147277426,-0.26332673928215905,1.415367358258347,494.8705452752726,520.6071417753675,450.9665697830426,downstairs
14.323873121869783,0.49773121265972714,0.39645780811078096,8.70670869017208,0.2014324326554743,1.3915053735053993,0.6665737337175117,472.9657680566134,534.5582534880448,416.3847950448242,downstairs
14.373956594323873,0.45331542880115144,0.4244119332209295,8.148764371848362,0.17261323107757726,-1.1908954471680848,-0.600555417128516,531.2485955972577,484.28234498399405,474.24439508180967,downstairs
14.424040066777964,0.8117891785565953,0.5719173384723171,8.401032243288238,-0.22970683851109114,0.8577795425980727,1.8418234380817586,472.5865595798013,539.742592882783,539.0626013586954,downstairs
14.474123539232053,1.0117242502349344,0.2716914684156519,8.980636952115141,0.37805535355080694,0.17672817751091033,0.06807129174404526,514.8838893130205,465.8793007973098,501.7792550960343,downstairs
14.524207011686144,0.8764990572475791,0.4038229548670411,9.535935144657092,0.472524974183756,0.75646796903762,-0.6615630256873037,507.1456204784347,501.05650772734754,513.7578042054175,downstairs
14.574290484140233,0.4183241454198078,0.17689223622907208,10.081177839120688,-0.6423510763364932,-0.27688691831730505,-0.30430306528910517,480.02958061783715,493.64395616973496,554.7636371155836,downstairs
14.624373956594324,0.19013958774498718,-0.12460442178764597,10.64001860590637,1.1423412335753371,-0.7471982339440709,-0.9984845169419928,494.3369994302727,567.9055228932723,582.2416703823651,downstairs
14.674457429048415,-0.40058420727038246,-0.42698322326809673,10.601677600845347,0.8452388171564102,0.34992492451908075,-0.2212670966539124,450.9910801627155,440.3321112442618,484.35949868253255,downstairs
14.724540901502504,-0.20505040046704387,-0.7659518395792657,11.485161645313633,0.5819272152501992,-0.4323918051883162,0.14159783724623407,484.6091918754121,511.08212841041643,468.17562944245907,downstairs
14.774624373956595,-0.5898984584578253,-0.5373420011589021,10.888694999761757,0.19705731146864944,0.8306847279429912,1.0050114664078142,479.4374574450815,489.84484757641434,439.8115207745619,downstairs
14.824707846410686,-1.38924633705025,-0.44557277245126153,10.429590582293187,-0.5296518403444769,0.5382835417843528,-0.0722205489398798,541.7809202411302,497.585026127337,441.0766308128571,downstairs
14.874791318864775,-0.9159889651575794,-0.2107546795054301,10.622573802114958,-0.17384166725318925,0.2978518140319867,0.1667236702480985,531.8260287799229,486.99291328066937,438.64252870217763,downstairs
14.924874791318866,-0.26148514972274034,0.2974792111971541,9.794664976514323,-0.21449515121878018,1.0123805657614087,0.29944280033198506,536.5061134854658,389.6403473978029,530.8947649098171,downstairs
14.974958263772955,-0.21670674566312298,-0.03404015169096446,8.962513946787308,-0.0763427264347658,-0.3324732430494817,1.2436042120118749,428.8099120456304,571.2804857347808,534.3998391491272,downstairs
15.025041736227045,0.25250320266568194,0.40780054660979,8.606535513097127,0.5996330899213256,0.11716498714812279,0.2710225931122352,550.509637129816,536.6166700787321,527.2729571058674,downstairs
15.075125208681136,0.6348609570711107,0.762348929170289,8.245502069561576,0.49070671995543347,0.7667715021419861,-0.36465434260044793,532.6044278232396,522.9119120889908,517.6335560163491,downstairs
15.125208681135225,0.5349695588922849,0.34781522924513425,8.708937726000478,-0.449668030876589,-0.6225437579760407,0.7768104423102337,560.9995409171817,490.603513503795,513.4505451832006,downstairs
15.175292153589316,1.1278843303113575,0.5996069783777904,9.108349866963595,-0.07319847981302445,-0.30658453953332937,-0.14699437976129148,544.707654549708,480.3679236090305,435.2064660375314,downstairs
15.225375626043405,0.8186609629239189,1.0275918908043842,9.295049718106783,-1.9438316339157422,0.4946284509489367,-0.17498338302082256,484.45749288865653,470.8304465347155,508.65127777839115,downstairs
15.275459098497496,0.5534476154417868,0.07964212612545235,9.784059930012125,1.198240439726525,-0.5576735747793538,-0.3307973084364322,551.0330791630425,521.0728810570009,468.3209433442095,downstairs
15.325542570951587,0.5677727334639118,-0.17957974522565207,10.66058626707009,1.2290430367555412,0.28661684360473416,0.6233712426332855,510.4099994514078,437.6465642853499,554.197439193665,downstairs
15.375626043405676,0.040588606235245156,-0.5465566212978807,10.698776040438227,-0.02179912264604779,0.2150291662946992,-0.2794734509562061,492.1684588676371,511.988069451187,490.51964157734767,downstairs
15.425709515859767,-0.39097984342967734,-0.15200006392819393,10.88770953839631,-1.181512535289074,-0.993410108356426,-0.030893636739125128,491.8185193899503,489.7292874553679,476.38508779711697,downstairs
15.475792988313858,-0.5250942019079966,-0.37151652161392623,11.297504955104502,-0.40775142159955935,-0.06685798651780853,-0.6590773923440253,539.1286076697356,512.2620213696161,472.20751845524154,downstairs
15.525876460767947,-0.5963409184358098,-0.4899957233088746,10.920515328892145,0.9995448987369261,1.0797438746396006,-0.22161675243951273,584.6147935199226,481.77608212364396,522.2692772015627,downstairs
15.575959933222038,-1.1793811774742895,-0.2983814244282428,10.48267562691422,-0.49733398464134965,-1.3345132021759851,-0.5603051421737048,480.22054655325167,476.4554432535424,463.58914457695084,downstairs
15.626043405676127,-0.5761113940302053,0.008663789314383274,9.954804831968607,-0.8846384998251241,0.11052836265088774,-0.9305963575723821,532.1134073970319,441.8090958997597,456.26600350007413,downstairs
15.676126878130217,-0.3097296409833943,0.2441121351860442,9.215598918181065,0.658294284078754,0.3158089207557009,0.09409871313368343,566.7190907813604,470.3036691021196,462.21506321356577,downstairs
15.726210350584308,-0.11311772007358806,0.2102800711944739,8.873537010952221,-0.013925937300545699,-0.7870840211808401,-0.28163180322450776,507.50727042691256,546.2364772158876,483.4205481648293,downstairs
15.776293823038397,0.41224731709813434,0.2563095928354906,8.819798368978738,-0.3480118197696503,-0.5883188921117016,0.06530073466430239,542.1443016634946,500.94635250305214,493.76110163136553,downstairs
15.826377295492488,0.45250469716956515,0.7173724458244188,8.485693927456381,-0.9492363049771527,-0.19007765152580508,0.9305328082040825,500.8445826243585,500.07805284478553,479.73654593588174,downstairs
15.876460767946577,0.7076391889498685,0.3766040485125953,8.689202229616665,0.5471043701733328,-0.9834522793974769,0.6311143585090776,439.86011524652525,429.61203328244295,500.62550619150403,downstairs
15.926544240400668,1.0924563295436482,0.674938193270644,9.347847885580304,0.5612453607083705,1.1791868955344567,0.789440179737835,503.9257284997477,462.7643433749017,532.6875315093281,downstairs
15.976627712854759,0.9456567731571902,0.6493284996403761,9.442073934659396,-0.1970994158717894,-1.8602953603286285,0.8167564788050806,602.9608965583552,478.37746896951904,484.52008065464497,downstairs
16.026711185308848,0.40025612948167033,0.09397585746986985,10.238131989190538,1.096673978631012,0.12865291575653431,-0.38141848578639265,534.6373033845701,474.2712349646926,537.4461810270968,downstairs
16.07679465776294,0.25578827223064676,-0.43413442540547353,10.685858768636976,1.887812783489051,-0.016211283199907483,0.4526099448456333,461.8516968875708,455.89685321253353,519.3695972131836,downstairs
16.12687813021703,-0.5162538643856992,-0.27471339654882143,11.258247933510388,0.31617049680534676,0.15993260680920082,-0.7032249925261388,441.37805896246357,435.6753240064042,517.6997037080689,downstairs
16.17696160267112,-0.53758636944242,-0.5685569153411079,11.158773560752625,-0.3750275867952545,-0.2247102899753784,-1.2211338897521018,509.47188784473155,516.036730168979,498.80007391729686,downstairs
16.227045075125208,-1.1451991572839717,-0.6821213200043059,10.819049007734286,-0.7130706007598472,0.07862140551642442,0.2639502139684698,535.8505537840769,545.3856258495099,469.42407722804796,downstairs
16.2771285475793,-0.8929260685815572,-0.7674274565556132,10.71935263559184,0.5252263135417529,-1.186412377260552,1.4803719912754476,462.6486015700788,507.5388184404594,471.8789037495145,downstairs
16.32721202003339,-0.8765845660191678,-0.23023389455895787,10.180648319742094,-0.9673333601356593,0.7007986806745494,-0.0014103395429153236,448.43832054456635,523.2814960632508,553.88260850751,downstairs
16.37729549248748,-0.44177590295833713,-0.3365448858717799,9.574232634158095,-0.5562935238389534,-0.18632407121342565,0.26445614395101685,475.7240809960263,512.9796760044331,492.0379997217891,downstairs
16.42737896494157,0.011818789180306488,-0.1592892364669208,8.933872929790043,-1.0760023506438672,-0.4726040537776725,1.6816589665059654,490.6108599385708,531.905287239598,493.25538656490005,downstairs
16.47746243739566,0.6408550788424059,0.3044213720820539,8.369007976823934,-0.3884104814711694,-0.5416231780779781,-0.6324656275191871,537.4322526861155,459.78957032968344,477.53090748874666,downstairs
16.52754590984975,0.7460476653009053,0.6201162081979359,8.301759639743743,0.2404148049244834,-0.0693710931791504,-0.15416761892236516,487.17363790652985,494.56994781873635,522.90850967708,downstairs
16.57762938230384,0.9053979766587457,0.4451323597643856,8.260274529061848,0.7720773623124654,0.7676379920190813,0.6058630550523428,477.322102677541,463.15942931323855,499.4968478555934,downstairs
16.62771285475793,1.0745345758759255,0.6277167951209524,9.10561431242924,-0.5071047683091844,-0.4592103219266072,-0.3875320714902028,556.0078982622166,489.0252133767899,469.8450229729405,downstairs
16.67779632721202,0.5820057907777254,0.21213411719610323,9.645175863928747,0.31434374003534327,-0.7551124665027305,0.9971378253710625,450.9255957620374,485.0588983828132,520.4577211301963,downstairs
16.72787979966611,0.06090469783110687,-0.022309432425215492,9.898089544103856,1.3921494715984268,-0.2602437756698324,-0.648106873436987,540.376152335964,501.6246159838742,526.1081418803823,downstairs
16.7779632721202,0.007068642825479796,-0.37652539614975,10.984289513693497,-0.20605039653176793,-0.2895549832709834,-0.4070795829791222,520.8348984892638,493.3782863510367,563.0540239114023,downstairs
16.82804674457429,-0.3590575033128648,-0.7241260849998536,10.827438823110574,-1.5096530631020082,-0.11751933430641313,0.41569985279120364,515.0219540333642,444.29270574361936,536.4205544650144,downstairs
16.87813021702838,-0.9045686067111998,-0.8855867239480015,11.284515716908421,0.8608720309397503,0.5541294374538479,0.2814045658430846,538.885456617456,465.71215402815886,430.8146109020539,downstairs
16.928213689482472,-1.0207218507668272,-0.4751655039238623,11.085526378843666,0.1812049112848526,0.17497357217107276,-0.16330959814539517,456.9121421937826,523.4083393906592,451.29139833873944,downstairs
16.97829716193656,-1.0192037596461982,-0.7666416673047942,11.259393638831103,0.6606865496073181,-0.11674284878152988,1.3177876786243623,412.66471006752664,489.6714203822918,511.89144885499155,downstairs
17.02838063439065,-0.691978191966757,-0.5589829289071087,9.94992946292828,0.05603313371252394,-0.5114229156753898,0.33516728924468003,505.02754057986584,498.865102395056,539.8767257349175,downstairs
17.07846410684474,-0.40413326202742744,-0.14155000760513164,9.555730829371685,-0.30732837229607424,1.1716350600476655,0.26935894524687004,513.9522102937347,480.79761378119815,481.4543260443755,downstairs
17.128547579298832,-0.0003576936471285791,0.290020376090965,9.377282462898894,-0.2022103679141341,1.0411945829314555,0.1113595580518093,448.3274931661794,555.1347890364783,471.2280385023692,downstairs
17.178631051752923,0.33176367549698865,0.6044097503084631,8.349247941100543,-0.8596348663454231,0.1623636743845202,-0.6829142283583595,460.6638728097932,551.1147587544582,500.71330404439897,downstairs
17.22871452420701,0.9293261543329933,0.9117301263486688,8.342986827846875,-0.36549685473560206,-1.3499144459610597,0.18705376570436907,483.81670289869515,501.1889699438522,475.07591281531467,downstairs
17.2787979966611,0.6821385581520116,0.465904458528018,8.68143945070283,0.23503037993189257,0.6803013534023334,-0.26638874416577973,502.51419489036215,489.222529542387,578.4037966020651,downstairs
17.328881469115192,0.8609326503529587,0.5415456069091432,8.844928542338103,-0.33787652661334233,0.23216383679166736,-0.6913616094257194,519.9517268534768,488.6286630059856,485.5493348777726,downstairs
17.378964941569283,0.6795743294762089,0.5361874820670337,9.487544383026297,0.3217167879350462,-0.1662473177207427,0.1037501575031555,467.03848726278613,568.9697703791591,462.40248925171795,downstairs
17.429048414023374,0.45352293934877325,-0.37134576918867235,9.723420028109278,-1.2139816729673143,-0.5420795869214522,-0.7481917073453908,528.9095832278558,474.8074704967239,537.7756383357082,downstairs
17.479131886477465,0.27101309767106113,-0.09889776932202538,10.25146201971194,0.2652446923379362,-0.21448211048193852,-0.4992113859802506,485.6877946902497,519.8318590749697,474.9019408455511,downstairs
17.529215358931552,-0.19513554285467877,-0.15970584223551115,11.075251183948556,0.4902020391779566,-0.23677689165268123,-0.2068858492622676,420.96910948195733,546.5000881774073,538.3503355030529,downstairs
17.579298831385643,-0.5097587509192744,-0.21673732334747076,11.141316593744191,-0.335075670603836,-1.0306504300868022,-0.33122620318087187,414.0701000299687,481.5720412753588,582.4444808096807,downstairs
17.629382303839733,-1.0318724236376124,-0.3830484466070778,11.345167556459975,-0.4991603143528908,-0.031259027573730974,0.8966866655707868,486.3260991466029,432.86094149239005,524.354870152662,downstairs
17.679465776293824,-0.9175117521556228,-0.6608411685748599,10.975240041680197,0.0006101239454316138,-1.1571317034490007,0.2929823123126421,452.83851996606,447.9695185842247,511.89532655652226,downstairs
17.729549248747915,-0.635151127219554,-0.09513673492335145,10.263613321674296,-0.01759207525757714,-0.08377784327400885,-0.6949438608040747,479.1941117609054,499.51279705265216,486.16074655674,downstairs
17.779632721202002,-0.7914731147801066,-0.4194258021858148,9.748344919867856,-0.5442661860202873,-0.2263784604247031,-0.6454995021344417,573.2516004250068,580.6452958463177,485.07084612178966,downstairs
17.829716193656093,-0.09752820855903079,0.1029620435076802,9.195126599742698,0.23771414323350779,0.5724507235963895,-0.24174264135253143,557.9941060609508,463.5100677037391,456.38053907656337,downstairs
17.879799666110184,0.1732201578628792,0.21819580153550444,8.776782955741723,-0.3014534032745781,-0.11717093408652451,0.7226548193959019,506.14964452819106,435.34240274694685,422.8310914372426,downstairs
17.929883138564275,0.8702796347821209,0.5128755417056019,8.557744338571776,-0.027118360847583924,-0.41001775718331956,-0.3546688250038567,529.9518416617243,551.3560157090789,536.0858930886569,downstairs
17.979966611018366,0.588391915366308,0.722883792220165,8.482392408341042,0.5186151607887604,-0.7064393558107349,-1.1976332386390156,595.8408746719799,492.3464684743563,467.6465388290276,downstairs
18.030050083472453,1.063134330794167,0.6253341056475008,8.64510382436909,-0.026983655025298252,-0.961548922545377,0.23289331332433105,516.5016782833712,556.4519526715006,494.073707742924,downstairs
18.080133555926544,0.8525974084985177,0.35994658566560783,9.270525276869714,-0.19863972232934868,-0.37703649300172665,0.585243751839775,510.44890317182524,467.15510030224584,525.2820933191746,downstairs
18.130217028380635,0.3411299952853371,0.09988082928167186,9.700577402293073,0.2532803027041659,1.1884665627785438,-0.20969638406628505,525.9216476432796,521.5768281478757,479.89855236660804,downstairs
18.180300500834726,0.34449805668720845,0.013025979214444594,10.519832674575179,0.6364467997559109,0.20849369317174743,-0.4063100676655046,531.4015457593083,507.949662411856,461.74028316624765,downstairs
18.230383973288816,-0.4399367674474233,-0.777971252769821,11.084693505322573,-1.1246974776627774,0.9352825829439421,0.2624024490446334,541.820148492796,469.1425225895961,498.62791307288194,downstairs
18.280467445742904,-0.41257042258401055,-0.24420873586628333,10.94366674564819,1.073351389836367,0.10615711464086942,-0.15157155643093345,483.5858763542483,562.2536222870032,491.259915495991,downstairs
18.330550918196995,-1.0564890314067836,-0.6810670529242826,11.062342356745422,0.44935811424009325,-0.3178269546248789,0.24523360962747173,495.3141432247093,479.8626807383196,547.6376176400098,downstairs
18.380634390651085,-0.8349043456712987,-0.7000080094306984,10.98939459278917,0.27366925081049914,0.0673157322548852,0.19404606902979063,493.6545261064498,488.2164172331233,490.38399296161197,downstairs
18.430717863105176,-0.6981969529282499,-0.4908204960305432,10.426028351041492,0.6933570826305473,0.0683627287119186,-0.11830223284055268,463.1128925114973,479.95502256950135,517.456289889549,downstairs
18.480801335559267,-0.7428723688755154,-0.28412857354254045,9.882972763069322,0.5449499681418293,0.07452046272674591,0.9412100499487203,533.6425128722939,504.40236236744727,503.1637924716939,downstairs
18.530884808013354,-0.1030144541670277,-0.16520893750843435,9.240137252220697,-0.3167031209165781,-1.118770968623893,0.5899921709752513,483.93379345129716,525.3967390875063,509.2561947988081,downstairs
18.580968280467445,0.334068700229607,0.22056260890118998,8.792128769999607,0.09592637007592197,-0.48021270785213827,0.7511342347440686,499.22144251026873,477.6271561413225,458.07197151057227,downstairs
18.631051752921536,0.2882805709166274,0.1648858150488145,8.452469697389427,-0.06789823231953132,-0.7944006759710174,-0.8698182131949395,532.2262984053773,490.1305954742152,533.8374872585345,downstairs
18.681135225375627,0.7147446106115325,0.6694548509815978,8.58540429255692,-0.17043494304628998,-0.8780778580720914,-0.1759564872999558,504.9472972497306,487.0953099636499,450.5645010147219,downstairs
18.731218697829718,0.8193580911167604,0.09500991191536695,8.378253137047441,0.9963054781392714,-1.296781831980834,1.0636749740863345,522.8435261349531,488.64918928968746,483.6446058448106,downstairs
18.781302170283805,0.890967682447046,0.9101085100925252,9.06899538759569,0.3546196156017964,0.08962304212137699,0.7138951591235527,485.86455811997274,515.878035900927,489.6054715485795,downstairs
18.831385642737896,1.0789761615308224,0.059337152604173854,9.442115775657882,0.493506605113939,0.28753237090315037,0.45446490402418255,518.4134687374105,526.6988011226986,490.5161627198318,downstairs
18.881469115191987,0.20544017694238942,0.12682985080515113,10.166659098991843,1.00647859896249,-0.5415769935141221,-0.1766153128667637,559.1124186697905,540.7630989108957,500.3853235157714,downstairs
18.931552587646078,-5.3403159389245336e-05,-0.11391207786176841,10.936997653860127,-0.1760611633646505,0.6682809845774857,0.7636040952982819,497.3602007382723,542.3382845339319,485.58214184912015,downstairs
18.98163606010017,-0.5582152003050023,-0.43172077558041627,11.287817491128749,1.0848789930189735,0.576359640522699,0.5614675262670522,528.2644971670918,542.6598467490205,482.81531092518884,downstairs
19.03171953255426,-0.5202494986191339,-0.65410368703929,11.119124232714086,0.10772659707793046,-1.7460097651491782,1.2365180212879745,447.41578379352535,510.27052517988426,560.2115369407699,downstairs
19.081803005008346,-0.6965586496490599,-0.5321567693645053,11.261469125872596,-0.2802641354586861,1.549385299121018,0.044170339248633006,427.57444040331586,520.847455577767,477.8521318355422,downstairs
19.131886477462437,-0.8271272058805759,-0.36545442452723653,10.63035639608481,0.10657798673220406,-0.26972772572853426,0.3494974494174994,426.181412648229,485.56399127179515,508.8320276678735,downstairs
19.181969949916528,-0.47621229420315436,-0.034674132468507646,10.008993700132939,0.7048062509088882,-2.2804109748165673,1.1874281308617671,490.2815394208479,541.077704198874,499.55898541242897,downstairs
19.23205342237062,-0.20197121818731062,-0.10131954491232245,9.290019991561538,-1.0159616617632006,-0.7377628714731697,2.29583450739742,561.8547993608221,476.42629634966113,480.7073731630484,downstairs
19.28213689482471,-0.03599648426552502,-0.0603687063079493,8.942180006192197,0.3832831351365448,0.2502535529845986,-1.0636483572174924,522.5005775032594,491.64380092120086,490.97193886816734,downstairs
19.332220367278797,0.42307851008785474,0.5072888914621425,8.80308692065369,-0.0813710521802675,-0.5071303175648297,-0.17488427759972958,513.7218161209742,397.10029494895576,509.35875819364776,downstairs
19.382303839732888,0.4361278419454621,0.5502809426330096,8.82651284047895,0.11801060412817689,0.5869627505652573,1.017673583014733,489.76057493889186,468.4261122772649,472.49624297957655,downstairs
19.43238731218698,0.4754072200943981,0.8174417953890345,8.547144825227619,-0.9760939354813888,-0.3717023861183492,-0.8734861680831028,564.5568770825696,553.5074676096914,459.329013818775,downstairs
19.48247078464107,0.8778535404852217,0.5422871128668202,8.752264732004665,-0.07091577740977027,-0.29890315187824573,-0.34157755172006715,527.0360049502782,540.6979683345048,435.2810240314582,downstairs
19.53255425709516,0.436046697097548,0.2671461358806244,9.321668384942926,-0.7636553028519883,0.3331572692583659,0.3157962927524759,528.512914854601,521.8571189207785,477.6188563405868,downstairs
19.582637729549248,0.44744982321760235,0.21290790719520197,10.160894506048047,-0.497302063556799,-0.349159286519181,-1.3830230289766783,547.8381046427688,518.9270484197633,487.61165230166085,downstairs
19.63272120200334,0.14026087132138,-0.03581899191010157,10.448954144146482,-0.2757364602525831,-0.35129366993886063,-0.058001945185920466,527.7964711548059,454.3603659725678,494.79321108429275,downstairs
19.68280467445743,-0.4596485268722123,-0.24201039396995644,10.967000591125528,-0.0886084527644056,-0.6161334129708502,0.018260811117293087,523.5297698427153,573.2345259024108,588.0440792113883,downstairs
19.73288814691152,-0.8575593946154036,-0.6283618775975459,11.348114774645344,1.024251918395783,0.6188482380811244,0.5239255892908293,539.9036884128136,489.19120800878693,482.6188880674037,downstairs
19.78297161936561,-1.4526013266583275,-0.6176296912132995,11.357070111162225,0.19160223243440633,0.23025521816725789,0.15330958036952044,503.2825803380112,469.9309473497312,470.6717760494053,downstairs
19.8330550918197,-0.7678107037126635,-0.43190858979185043,10.595387765977074,-0.13218837160605282,-0.9331345471877328,-0.16298525662126048,516.3852668135601,456.84107055546065,466.96666063410044,downstairs
19.88313856427379,-0.739490061272629,-0.5334558730357313,9.898145589315465,-0.5145694663981925,-0.2103484609800268,-0.4978717776581688,480.63277153566514,501.5285475316767,446.7486177651951,downstairs
19.93322203672788,-0.3799314624121688,0.14450910127505986,9.731270438054635,-0.5707824809894411,0.10371755549885252,-0.6944152231441703,509.4178638780214,591.6924771078528,488.0317461645783,downstairs
19.98330550918197,-0.09007158793835414,0.38401203203580314,8.929682744621378,-0.19092865580277923,0.9834814984456239,0.5546331863252989,524.5962456248358,509.5698395532188,417.7443690154484,downstairs
20.03338898163606,0.3172434615962814,0.5628659019239826,8.628800035046353,-0.5464489460392447,-0.3577566981373002,0.48302003603439797,502.7657891818626,447.7326321423535,518.9712172182728,downstairs
20.08347245409015,0.7688704134218529,0.5562049489462545,8.0954958032675,0.9877640943874593,-0.766119341484238,0.2553529010556653,432.17694584118357,515.1951518377203,470.01169051922994,downstairs
20.13355592654424,0.9300189622624894,0.4951549934987072,8.158328149495805,0.713794503823269,-0.419858076892772,0.6588856455540121,506.2109770229777,531.1843504833482,413.5355219653925,downstairs
20.18363939899833,1.057572764383306,0.8230762523247659,9.05314801687235,1.1775487987206554,1.0171296739358975,1.2444636516656562,560.6218021084562,499.7685635232462,487.8829871039565,downstairs
20.23372287145242,0.7573265469275983,0.33019194338694324,9.682119553609693,-0.21526987615330215,0.22877463402750728,-0.39698875180543386,445.4255895087051,474.4617181432573,516.9208147145483,downstairs
20.283806343906512,0.5249261991143025,0.10516458583695863,10.147054146871865,-0.7885099517800871,-1.8852785163540278,-0.10262351311397072,499.5107166412519,543.2158405593493,506.57758749845635,downstairs
20.3338898163606,0.45323715673542303,-0.06652754567686495,10.283350973951553,1.611175472106297,0.9268069292071223,-0.2704340149620582,533.289558678807,518.3507679441908,508.1250054792549,downstairs
20.38397328881469,-0.37458814927473727,-0.1579022827256125,10.852353233904388,-0.9516616914825734,-0.6230659999536263,0.37975915694438456,440.7850004563335,504.88786766821823,531.060769420852,downstairs
20.43405676126878,-0.3326601919740408,-1.0713068294526724,11.405706632271178,-0.4414580600264139,-1.0084189194832502,-1.5578561831170201,495.03019600785353,400.95782355720155,461.9481315037092,downstairs
20.484140233722872,-0.9813244096323444,-0.7708285114014655,11.082465588010425,-1.0305217552300414,1.1832318188297344,-1.0284213576748056,531.1564368984272,506.21697788867664,533.7175125212549,downstairs
20.534223706176963,-0.9684486969205639,-0.7029634859823579,11.150316486006863,0.9409358534589525,-0.5900735600098732,-0.3605170189738551,513.210396196675,505.3266770401147,469.7480302660506,downstairs
20.584307178631054,-0.9006426972111696,-0.6574479556108175,10.475336497277253,-1.3621013117769747,-0.26600457689408474,0.7934086734430824,485.95824215255476,443.8436500209923,520.6967133804251,downstairs
20.63439065108514,-0.6619009207195559,-0.26996042752177946,9.835760323654922,-0.8696600430015183,0.44306341568255536,-1.5678588177256183,517.4805851265478,499.73683694303895,482.94406797246944,downstairs
20.684474123539232,-0.18695802262184635,0.47370913502324163,9.266494886294318,0.08026602833725843,0.19938977076932007,-0.29239242802004994,595.7264266693959,484.08748317041324,500.1474595757929,downstairs
20.734557595993323,0.15566796269983696,0.14349736045993017,8.571887645897135,0.40901195137441443,0.7616299223948914,1.0605526001417833,453.77493370191274,501.47770847257317,518.4270018781594,downstairs
20.784641068447414,0.42639711420629217,0.8292832085243513,8.232727730494881,0.4740959862653036,-0.8794941625556287,0.2570320374011574,508.70650238182725,445.4242993676218,514.5770575650954,downstairs
20.834724540901504,0.8090312866409358,0.7377332547994147,8.556273743125493,0.4800013491113574,-0.35543545989114983,0.07934367903777474,382.22362111347593,450.798607092012,485.3440276393553,downstairs
20.884808013355592,0.778353394880329,0.7082540103061539,8.906196011216343,-2.4589079118131427,1.6857889967324013,-1.2554004983004146,475.9333337262862,465.2677036013919,452.47558908973747,downstairs
20.934891485809683,0.6162887754532402,0.20567385378924144,9.322503759753666,0.6655912733104349,0.7502342496810036,-0.1548803892561577,421.8848417119868,511.8403241679301,526.0502368441664,downstairs
20.984974958263773,0.20008159009707055,0.2941561959844722,9.519395706085998,0.4218241647099543,0.9614305180273155,-0.2286534485196303,496.28242957162576,419.7985986145478,467.0611685626769,downstairs
21.035058430717864,0.13605006941029152,0.21748339854940357,10.760327087637016,0.059857268705804496,-0.14449425214436068,0.07045375684432606,486.3579710362002,485.0573485511022,517.9167746328937,downstairs
21.085141903171955,-0.3128249332020341,-0.6449606458025192,10.722948440103675,0.6153561002312654,0.7953925137163335,0.31533780889354124,480.647594084604,482.3680524205377,451.2360454788783,downstairs
21.135225375626042,-0.6835116676748509,-0.5172512221505179,10.74229460235152,0.07263839713011339,-0.23527605358046022,0.7300327512131273,591.4169006414621,457.472373949704,592.362640934125,downstairs
21.185308848080133,-1.1994416963243966,-0.6663665506829264,11.376935951251372,0.3607630817477208,0.5429807606835763,0.03406791181283843,468.30760000079147,526.5840028284829,541.6967938987474,downstairs
21.235392320534224,-0.9380439095229176,-0.5670587465452779,10.897751818450232,-0.09145588303183337,-0.4039950127470744,0.2888325700310212,496.31457613902256,472.5399762982163,532.8829877551437,downstairs
21.285475792988315,-1.1710679442905498,-0.4965086870902942,10.754908299950596,-0.18753974806949378,-0.9221108896202767,-0.8217062573588393,525.2031786234088,511.32785270774804,490.95602731529505,downstairs
21.335559265442406,-0.48599729496058885,-0.26629782898299337,9.969236433566202,0.12888982320220926,-0.464922110522963,0.8318188639813103,522.3851447312828,489.5039481566936,525.9474873773273,downstairs
21.385642737896493,-0.6552989622547184,-0.01883602250261074,9.756453786375584,-1.8932481230503584,0.11625849560857207,0.3135929315354811,468.9968820823061,494.2408377539098,465.4432911429807,downstairs
21.435726210350584,-0.06684376844733397,0.5109539416224147,8.753534552682842,0.9588371010311584,-1.0631269435879254,-0.5584558233753656,453.2300960106013,506.8139245259243,509.6326225609866,downstairs
21.485809682804675,0.7272195883763086,0.4908875134122106,8.505389134709349,0.10132559389659973,-0.12180052912256596,0.2527121850268055,505.78436053215154,553.0787643985487,527.2590179947767,downstairs
21.535893155258766,0.6770386267405626,0.8073899925307855,8.219487687253253,-0.5544496056822413,-0.28889542625296305,0.8520311114395066,526.3514946369801,563.2772817756954,502.70548088590385,downstairs
21.585976627712856,0.664169826470659,0.6299806381446547,8.220772203715915,0.2405723100360015,0.8985502489021632,-0.35931210770373645,512.6685972981618,503.8654048483235,502.92109762403106,downstairs
21.636060100166944,1.1432904259415886,0.6623226085611367,9.231491737487875,-0.14085456137581515,0.8928561672504365,-0.46064293928669253,506.9387426834305,478.94945722495754,518.9227292062681,downstairs
21.686143572621035,0.6782705032748921,0.04272733366288298,9.707123169658235,1.6707882643438954,-0.018691193212689774,0.029118604938668562,484.62933571824124,550.3441051509176,537.5921172010502,downstairs
21.736227045075125,0.45197267343970077,0.1847204665931028,10.410665797100059,-0.6271442822067185,-0.01677658098261715,0.8414225943369523,508.2174472253473,405.2605949047038,513.1875200092402,downstairs
21.786310517529216,0.2974089828179399,-0.07264042849599164,10.945793193140684,-0.5398083003446051,0.5109868393347939,-0.6504315203197656,530.4923982735068,452.59672461192946,546.5743494983462,downstairs
21.836393989983307,-0.8318590395164063,-0.2208937754299073,11.22759887332621,0.06504506906969074,0.2262311534978556,-0.3347714905227233,536.9721270925245,502.0375855180951,463.8622738400522,downstairs
21.886477462437398,-0.68244185346345,-0.5469388227127145,11.196684712548285,-0.3823970721114467,-0.1942413781779833,-0.07123279668357181,499.0240617360822,526.6162391813351,451.49620102201425,downstairs
21.936560934891485,-0.8020723417854094,-0.43918427202410004,11.282600778673855,-0.1305979641417313,1.0381557053233776,-0.5026159935634603,510.56240016925364,522.9715287186393,522.9912004199547,downstairs
21.986644407345576,-1.050932043275833,-0.3406057987771522,10.98060427286753,0.13569825198921612,-0.31911720066436444,0.10459856377314723,497.09141113420327,501.609914602085,498.1594619938992,downstairs
22.036727879799667,-0.5806293836346481,-0.6147084159612961,9.690803434519294,-2.341210422356784,1.920505866384301,-0.899618951056201,518.1586176113271,524.0537433094815,422.2234026782858,downstairs
22.086811352253758,-0.6559339295546878,-0.1532777230684215,9.807008172458282,0.4881797905430479,0.017117077643256914,-0.7239472890736764,419.64240103688326,484.1959716433444,586.1711499925856,downstairs
22.13689482470785,0.5003921080413203,0.4893226376671672,8.71900351205679,0.1813482727170158,-0.16210813696838625,-0.31213639835043555,501.3192628589352,505.0875554242407,524.0258487030062,downstairs
22.186978297161936,0.6554184782573726,0.26741557788201364,8.629109750400694,0.15429944984863428,-0.3401270115304542,-0.37746174885359446,552.9010339681303,534.1867164536391,446.7123287211684,downstairs
22.237061769616027,0.4781725423892314,0.7065519624480194,8.595699887713929,-0.49413558317418355,-1.00251750671944,0.08499097008190386,546.0400533537759,413.03504598523284,519.3008575303539,downstairs
22.287145242070117,0.4952054192701086,0.5970341117935944,8.938307194080943,-0.17466666316354604,-0.01157507479188107,0.9290395947639767,508.6094222289776,504.1258217907243,503.54393972590475,downstairs
22.33722871452421,1.1991372467346832,0.5554405907394784,9.021995367237393,-0.7682078946700296,-0.9760319996141328,-0.5280502267539263,511.4028821514125,453.6823022456057,488.2122159578225,downstairs
22.3873121869783,0.7323513543101074,0.22464977679439935,9.496396702174474,-0.0904120250165326,-0.11661406671761089,1.0098653092593253,502.5004621825008,509.15358537107534,483.58177867647686,downstairs
22.437395659432386,0.42968349035548353,0.20608763457165702,10.039060306260293,-0.7236750469755848,-0.7728581177066529,0.11021404295714413,549.6961524006417,539.1907624874642,440.3361674789322,downstairs
22.487479131886477,0.365262874690819,0.12006535029126722,10.537581208544195,1.1422852057603747,0.3040328087836142,0.4440918714385234,481.193237726834,485.5861207635004,608.2331234523663,downstairs
22.537562604340568,-0.4056149240451913,-0.2836310235736821,10.99688946023576,-0.6315029306118539,0.3429734857141972,0.672677519892314,517.3700945240723,498.2204635266666,487.2356968004274,downstairs
22.58764607679466,-0.6491546179336695,-0.5968613734683166,11.250859875572948,-1.8044402191027142,-0.38862545221507533,-0.9942682168490208,516.3494735655661,433.0023404384178,490.2357708944332,downstairs
22.63772954924875,-0.8045908605906683,-0.7213390985304082,10.964346597442356,0.6459284115532083,-0.3752458419152965,-0.42625790112842143,487.91724224734196,427.987209522988,453.20826683398093,downstairs
22.687813021702837,-1.2321235787818754,-0.9442344430794856,10.610075748975998,-0.7737517476918699,0.06506426395850065,0.30434768911332755,561.2820399205132,550.1863504222798,437.46911593932424,downstairs
22.737896494156928,-0.7056919226283568,-0.4162596487292193,10.060365262764003,-0.06213589608686235,0.00753404047748334,-0.07153450409066558,496.5369252688479,491.6872596307977,463.4416615855617,downstairs
22.78797996661102,-0.42057641900995957,-0.23136766508099987,9.660098813992958,-0.3605484343711884,-0.5371936750807275,-0.08072785560102613,505.097965808517,444.0524526580351,496.21207161095526,downstairs
22.83806343906511,-0.02621642130473892,0.17044413967245398,9.09419891125909,0.5188871537471046,-0.10011011820798375,-0.7914218362508573,517.6237436256074,527.0719101021642,520.9100966912565,downstairs
22.8881469115192,0.17032610195884262,0.4618952203669247,8.546326945523967,-0.3500425974531921,0.714665133063971,1.3487521092377939,565.9391047259443,489.3064882225255,497.64240011413585,downstairs
22.938230383973288,0.7486307798914474,0.731771007391218,8.52603721026679,0.7575757214646035,-0.9588132838602306,-0.14584634467123794,410.2338637180787,495.9061884121399,458.78388904001145,downstairs
22.98831385642738,0.9153802567448418,0.600284925871992,8.336231621621605,-0.046548229707060455,0.12449284292612199,-0.5868241688299242,526.484924915923,496.32811555850395,456.76963668970376,downstairs
23.03839732888147,0.8946908804700828,0.7651455931678455,8.781502850431334,0.4885199729154568,1.1620406062558226,0.15086441814669815,451.62448802836786,475.1040478189226,564.8414144411303,downstairs
23.08848080133556,1.1035045011430529,0.5406994048370815,9.311105513657713,0.665690729072671,0.18558228462693752,0.040068257033536406,467.55795188046795,504.34013509308863,476.5580050717723,downstairs
23.13856427378965,0.772009540931744,-0.06088715517254137,9.866069116546303,0.0580470123823346,-1.1900992900362124,-1.2576606991805483,423.39827870853276,495.10943404131353,463.0443498662613,downstairs
23.18864774624374,0.017053287185753108,-0.09755214242050333,10.758514897227434,2.0792729193655184,-0.4102545692457242,-0.3362027693556765,477.2198400529117,527.7608010865301,464.11858879252213,downstairs
23.23873121869783,-0.5328210310697999,0.03009189551506647,10.85478364216834,-1.0985341914982554,2.1937513390789944,-0.22871072376546522,512.1554429320032,477.8636009946788,447.29333518146046,downstairs
23.28881469115192,-0.5802961210908493,-0.6424755627201968,11.060268084526122,0.9897344502849577,0.5120691424947623,0.5049285001278728,504.1192705976917,505.4794877749998,508.65207585674113,downstairs
23.33889816360601,-0.6950956773559591,-0.9483089527611244,10.788555365768532,0.40309568706082743,0.4388996921386674,1.0112561646673934,518.6468980226441,518.4573038737133,478.44327460370806,downstairs
23.3889816360601,-0.11892411642726064,-0.5881356452305706,10.90942303124211,-0.0056224688940769455,1.144391913714615,-0.32033436338991506,572.554768517195,499.8409994856388,545.6744078732619,downstairs
23.439065108514193,-1.0797662563218065,-0.6471489713971155,10.472409184169878,-0.4017346683299709,-0.2682757675818275,0.559286620941983,477.54750101851823,487.45901042233686,489.6474409493287,downstairs
23.48914858096828,-0.17676442214962118,-0.44301847445336745,10.189085281500025,0.21192762956417444,-0.12491057942982091,-0.8581803297904791,467.31390476791915,547.8857198510228,463.3745615375387,downstairs
23.53923205342237,-0.5245768636116737,0.4781323593837816,9.492966865426858,0.6813357337169859,-0.5095718633178768,-1.6801371762484283,507.52597895140013,498.67663395668114,506.05588694439274,downstairs
23.58931552587646,0.15025885345218948,0.25655595390872343,8.870874597493858,-0.6928328659194186,0.6309888971439581,-0.4583222465944524,491.2938514826813,432.88187885998843,534.9489404419543,downstairs
23.639398998330552,0.573648645365626,0.323068107957835,8.384953053134856,-0.29526983230934906,0.34301530067049435,-0.4397375184822614,510.9656370216574,422.91944498240616,514.7747944842024,downstairs
23.689482470784643,0.7512995034941302,0.8952478117302272,8.698593232074908,-0.14708393541256282,0.2760514831192233,-0.4053375758786692,428.6338512007773,536.2026167942785,543.9978396294554,downstairs
23.73956594323873,0.8264240739418365,0.5407898667253976,8.919084064437339,0.36757369971772974,0.6058707235792542,-0.27253789118776317,504.3672927765767,562.4705475984907,457.8654956852795,downstairs
23.78964941569282,0.6845114200384831,0.47268953882446824,9.172038072315944,-0.32984551416422764,0.9823171354399759,-0.25544660386289747,490.1133919665502,457.48353090481066,603.8700088739549,downstairs
23.839732888146912,0.9622913447396538,0.23190511268957242,9.598470290660439,-0.5634850776679995,1.151914826709022,-0.03095948596503296,521.4433773782513,509.53901446968047,389.74057446735833,downstairs
23.889816360601003,-0.18822504036321136,0.15959891799105042,10.303837857834047,-0.122039354628805,-1.0319127335553786,-0.7919023661418273,457.8596324541905,521.196759076549,526.9156393343811,downstairs
23.939899833055094,-0.2069457421475992,-0.32808504569128183,10.97092904652597,0.8826318392693515,0.9038330245282364,-0.10159860403843383,500.7916664429427,467.6605260757702,494.46956866479843,downstairs
23.98998330550918,-0.38709648969724775,-0.14484004703992182,10.938833701877035,-0.10810778270872705,-0.00798573437244706,-1.1832896493740148,496.46169402255754,516.3164935948561,528.8109595602816,downstairs
24.040066777963272,-0.5163135170524089,-0.35206941193980584,11.471025468508923,0.8406560049795158,-0.28856067304894595,0.04193352349871663,554.7778944497343,511.15149068485874,425.10226340518824,downstairs
24.090150250417363,-0.9073586185645616,-0.4505801383728481,10.932550379033865,-0.6606825890888439,0.05831481734665622,0.16259320637096222,458.7797086147407,497.6253955438056,460.48531990949635,downstairs
24.140233722871454,-0.8021243622469318,-0.23621228778495945,10.569800615153941,-1.3926197222885273,0.6318192346026378,-0.45820047249732687,507.1615539682646,472.1279037745445,520.7419485141352,downstairs
24.190317195325544,-0.8310460505277636,-0.2371924197174594,9.975429332650421,0.582549762487593,0.9657062690510808,-0.5350845954571352,475.74711369188924,391.20961665294976,500.69113384150495,downstairs
24.24040066777963,0.2155373010096025,-0.10370161254240212,9.484334216573986,0.6002500501635468,0.46345856061304025,0.055553906356728695,518.2696142976158,497.64471192150484,523.6792179885475,downstairs
24.290484140233723,-0.14983606443574937,0.04137974024024202,8.958529287359891,-1.0249861602321704,0.62760885679532,0.5135130501601675,495.56567584781493,537.8884009484597,484.6837109283685,downstairs
24.340567612687813,0.026267114693560245,0.3845684336713467,8.422294863560253,-0.35315673374456025,-0.1966088593760097,-0.9319662701737012,447.26760577545383,432.6799662694058,485.82915869473516,downstairs
24.390651085141904,0.8516316320425262,0.518753214929782,8.51395838718876,0.10614208982347656,0.6462566728788887,-0.20368906192596115,517.6709347082532,544.3750765658117,491.1697211262038,downstairs
24.440734557595995,0.5250494526598863,0.5240499642761127,8.26242589855851,-0.6929732206818146,0.9613069646758435,-0.601699406118799,489.54023887078057,539.1085646998808,555.8881534105337,downstairs
24.490818030050082,0.8919248262342058,0.48042053982503674,8.894068196338354,0.7827296589539237,0.15166762447395785,0.30146819754415655,447.8199318217523,540.0060781672978,419.7885420087782,downstairs
24.540901502504173,0.8262060227947426,0.48256928626537626,9.769595651454154,0.41451614296367784,-0.1317547904005553,0.9819282880629336,517.3799277538861,503.420959480621,491.512006378315,downstairs
24.590984974958264,0.5112168291421353,0.19241628065854047,10.412658481390077,-0.5973250903299967,-1.4966084349965154,-0.5490887717113293,532.2686335512265,456.2143252516142,513.5629280005192,downstairs
24.641068447412355,-0.26158643337296433,-0.2637898397670857,10.699988918505762,-1.2527968829618352,-0.06170760472414591,0.6630945855825422,457.31618688427284,522.1213273953958,460.395048257107,downstairs
24.691151919866446,-0.24598047057907402,-0.38449470692243076,11.364464862864061,0.28900618523232763,0.7479684357875136,1.0971747483664196,490.23160093451975,450.59893974173974,528.5683119119717,downstairs
24.741235392320533,-0.4428826448226246,-0.36815141964877673,11.126714865213732,-0.1381357334374228,-0.3888234073322845,-0.3901030463612741,464.6724690312139,554.107347978819,479.6777062314323,downstairs
24.791318864774624,-0.7405905215984623,-0.9299813203738643,11.127781912436063,0.8450544491018268,-0.13961363164953502,1.4073992515259144,543.3902883231843,556.8827239452536,479.4526539285152,downstairs
24.841402337228715,-1.1776815749754566,-0.52353081281228,10.647523155551625,1.1276552997438705,0.5451899555857974,-0.41724196615993103,495.149256378962,475.88887710104524,483.48537486190645,downstairs
24.891485809682806,-0.6304250736299,-0.4347574823391165,10.238730301868358,0.3218722931277294,-1.0377744823865906,0.34538416978392517,521.3923963095137,481.2923304886786,493.47216440349564,downstairs
24.941569282136896,-0.31988328331514254,0.011856960476853973,9.394436393727238,1.3844750865917497,-1.3998714142483486,-0.041047077278593296,499.82924785152744,472.5059291238683,510.5861783933496,downstairs
24.991652754590987,-0.24613857858196664,0.351472488600349,8.816965305806127,0.07855148068873133,0.7001306524725408,0.3108607225688474,491.368433144329,468.1784362172605,517.891782095542,downstairs
25.041736227045075,0.5686420693147747,0.17099070528323515,8.209194183074974,-0.5570634129428185,-1.2960862548862369,-1.2180583094397621,544.6992255627628,544.383265633687,466.0592883371642,downstairs
25.091819699499165,0.4062464180287486,0.7138083235696318,8.266923608210485,-0.9827116762535303,-0.06448602829573026,0.482758045738356,486.9140751998347,542.9206112312842,480.52424215846185,downstairs
25.141903171953256,0.7321096544360277,0.6390112877472582,8.503373915636935,-0.9324462968791857,0.6642347522159906,0.11158584609308556,441.150525845828,493.7812486208403,444.7516744186727,downstairs
25.191986644407347,1.1316260027529688,0.4040803595704777,8.976567617482344,0.41843413291110976,0.40554308640748565,0.04278008961181429,470.556952461924,492.4480939815562,565.5441052965924,downstairs
25.242070116861438,1.073621749987825,0.4634659285040828,9.458453656256143,0.7639496529693153,0.5034555220642699,-0.7716527025151256,460.036890978874,465.50160370267525,452.237591608835,downstairs
25.292153589315525,0.5711367062851284,0.08993316937142418,10.105034351476593,-0.40137193805905363,-0.6481984947199838,0.7382555381194801,484.651143740491,505.1308900818024,516.3436491251737,downstairs
25.342237061769616,-0.1349214534206226,-0.35667135172015707,10.470385803150704,0.19343347980547898,0.045629962251828575,-0.8653212586378427,468.2472944514057,534.5181245253223,539.8778663118943,downstairs
25.392320534223707,-0.34402102787663014,-0.5155017567160283,11.076598400924299,-0.4652123448515804,-0.31161337198369077,0.6713169227305067,501.20897530026843,516.3300831305104,574.8210466593116,downstairs
25.442404006677798,-0.5062390161388014,-0.5619658304816291,11.160627544446799,1.1834955381386971,0.5212680385660712,0.3963594264917055,476.3517378389306,469.1713769477971,443.9143142749282,downstairs
25.49248747913189,-0.8386270312295656,-0.6985217051634209,11.250709099840488,-0.6993620576084333,0.08769865646855356,0.4900291335258281,498.82037444608545,445.0493250156199,532.9309174664517,downstairs
25.542570951585976,-0.7034788723655081,-0.5922132297067857,10.96949432834031,1.2959627425435123,0.25185690234494956,0.5324731265655274,528.9732065863094,465.2061760207094,484.91710266675244,downstairs
25.592654424040067,-0.6990605394439761,-0.4867631095630494,10.440169245973413,0.006203104728127916,-0.23589343812061286,-0.3301456341702871,456.2272922031405,474.05387298057616,476.740355688344,downstairs
25.642737896494157,-0.4979459883807069,-0.09094935388201109,9.882345969341163,-0.7351321781124417,0.10016085015814662,-0.8802614047577374,509.01548725772744,448.57086795651514,485.35833389461186,downstairs
25.69282136894825,-0.5701409498529841,0.2395096090259579,9.235450140127119,-0.5095241675470764,0.2193541508882261,0.14565920472613145,479.1042114582426,559.614340443123,581.7498217298303,downstairs
25.74290484140234,0.2594856861813299,0.3429561875559178,8.613530752140806,-0.8633600241283441,-0.7716162335566464,-0.519003747476798,508.3778429086805,518.4604517050818,566.7067420306952,downstairs
25.792988313856426,0.4403173749849178,0.6615379230737692,8.598604660791993,-0.49068051518907085,0.44965216029015526,0.45396057911617815,492.73147750929553,525.8699712982842,496.07247336707036,downstairs
25.843071786310517,0.6573171254586918,0.5322058823108407,8.37173388872019,1.2839840437115106,-0.4918697518697722,0.18677558456168183,476.24575844994393,504.3104253155195,497.6653267470467,downstairs
25.893155258764608,0.6363043710668987,0.7023173098451567,8.69099730527723,-0.425005841581876,0.28230623997121806,-0.2173048585711895,564.1413197287405,464.13588145928605,492.9229555066246,downstairs
25.9432387312187,0.8480249315476552,0.2645306421231487,9.318586377509607,-0.46355148605166807,0.6547918560065001,-0.04543489044003502,474.1118313618182,478.39423696007077,498.3640353176141,downstairs
25.99332220367279,0.3531996470565282,0.18345081516250764,9.954333427472374,-0.6656706368232354,-1.1068986861223333,0.7148552830870841,502.14395509166775,516.024813087094,499.3947671081021,downstairs
26.043405676126877,0.2516875793750376,-0.4542331222393859,10.16229837699913,0.32570143175261995,-0.338442432071931,0.2779198844868251,474.28453262428593,498.14787494655894,565.3595473909879,downstairs
26.093489148580968,0.06141660615509832,-0.5068749981067202,10.449394804475354,0.7854927036441359,-2.22379100203756,0.33089057043127595,482.12616508979517,527.6102351447884,525.2818725706237,downstairs
26.14357262103506,-0.13991403587848772,-0.14401803043411826,10.971139997583808,0.3427447224596698,-0.6177986643702067,-0.3332829416393733,545.4162344714903,528.5346956326355,515.3008985511325,downstairs
26.19365609348915,-0.7908995024932669,-0.7838845655776878,11.062301403863447,-0.8769806778954182,-0.6547588315398616,0.005950020081277813,505.31002043639285,522.8955133499888,497.15374869953195,downstairs
26.24373956594324,-0.8430480868418433,-0.515045746860884,11.270924871972081,1.1744323165374715,-0.206197946484466,0.4988032755680017,537.295488601314,451.9641845826964,491.6865440844451,downstairs
26.293823038397328,-0.9247563125355976,-0.26376486992647064,10.516303891333875,-0.046732133538791285,-0.25764228260656324,0.09181546926816339,422.0721328032691,465.6148733671435,466.20615477202637,downstairs
26.34390651085142,-0.622850001806272,-0.08605815445824591,10.0260981196309,1.015556945043946,2.143726311400575,-0.25942869072766717,532.2745736924458,479.00332168808103,510.34343531940993,downstairs
26.39398998330551,-0.08586492853686462,0.21083183504977696,9.479651493666776,0.8488880067633373,-0.6190178729411286,-0.6557284983493856,542.2339123423775,572.8980489556739,447.46139166451553,downstairs
26.4440734557596,0.15313901830309468,0.47036717098668224,8.659317582592099,0.10380753039112948,0.3344438638129366,-0.5422533820588388,496.48998881043053,583.1469682472647,521.9624566806382,downstairs
26.49415692821369,0.36068744931615515,0.17692200442016393,8.834200922153482,0.1267585339097079,-0.9067166708371412,1.8154899811935208,459.42483766446304,440.346144969298,523.7118189804238,downstairs
26.544240400667782,0.7714779619310398,0.551612031833128,8.187886030214672,-1.1225421504056803,0.1641769567603984,-0.5975397572431342,500.2172200888444,462.83101032379005,500.1481069034223,downstairs
26.59432387312187,0.9389088001460736,0.33886117123055065,8.51539354496339,0.8373064170325982,0.35076798773625195,-0.11159618267221005,499.08186890844985,522.9756872712842,576.120255891863,downstairs
26.64440734557596,0.7848008935893734,0.24895212400422695,9.247015631790852,-0.3237460077298898,0.5418967489791577,0.2974895028850519,479.6522095574892,457.55024648028757,400.28260894695165,downstairs
26.69449081803005,0.7151397404039497,-0.13034701916953467,9.521643018290403,-0.6476931536231233,-0.7784978566770294,-0.17255005804761617,521.8560098658147,469.9728813765917,501.5642451161426,downstairs
26.74457429048414,0.153007322821553,0.02243149593873804,10.364314163675663,-0.588833284701488,0.10778141125470396,0.6601258543938276,446.2614734582231,540.4676794170466,483.1133636869526,downstairs
26.794657762938233,-0.23644512997321476,-0.2687218388555635,10.906226805057804,0.6989056373124085,1.2809915724167606,0.5664522053312054,484.5226841778616,441.94284913521847,533.1195539032246,downstairs
26.84474123539232,-0.23129128587439807,-0.20458800766090768,11.055579722706433,-0.1361345021682049,-0.6957128331520117,0.45099828237081535,481.9067106746669,535.7382123511926,536.3969514287411,downstairs
26.89482470784641,-0.7599313629951849,-0.8021993244961985,11.114432874898545,0.37655100969474403,-0.483731279335723,-0.07805775951058552,495.2659281801315,501.9786229464998,448.0679663481467,downstairs
26.9449081803005,-0.798399870643497,-0.6970310956247903,11.400055693505028,-0.07926722274950866,0.38543666949593147,0.34831239114412443,517.1147487471217,505.4574595168195,489.4467412642152,downstairs
26.994991652754592,-1.2152705273475854,-0.44895262932306973,10.343035802877386,-0.6635361101596018,-0.22859997122680692,0.29352169989445864,453.58474663731226,524.2632356408475,565.36523427667,downstairs
27.045075125208683,-0.7101058725361176,-0.26542679637144095,10.00871608262906,-0.8313956232276948,2.1939976733812134,1.3972736984996605,436.07445347456934,576.7922978710249,509.3717929650164,downstairs
27.09515859766277,-0.661623599010908,0.006182234139782625,9.251827895840307,1.9164521903300653,1.393942394078883,-0.5324618022761961,569.6052670124062,495.3366373098906,549.068017558804,downstairs
27.14524207011686,-0.029526565358736448,0.36986853149199195,8.71133387171947,0.22988955463392258,1.704679040556651,0.6520896044511996,514.622608003924,488.80068472057184,486.0875858050232,downstairs
27.195325542570952,0.40751701036477816,0.46580138959889583,8.712940484233494,-0.4292838577830089,0.767803857854409,1.7468490946770612,467.38270611537695,508.78698111396767,471.6562591261054,downstairs
27.245409015025043,0.7259092018660467,0.5778102455970364,8.464408307426039,0.3246780806161425,-0.2451748133983044,0.7738892989584369,457.1070871919698,457.5836653149138,424.6879517714513,downstairs
27.295492487479134,0.45507960487384486,0.35430863536280843,8.745508691972681,-0.32968591978427325,1.3459715487392043,-0.26024053253843693,540.791972902416,533.7130709610066,571.1259087026264,downstairs
27.34557595993322,1.1049982344374427,0.5828502445546841,9.036142082476507,1.052581706044363,-0.12377133424343476,0.6240323923119203,462.1685837895457,540.2725898007644,471.7600034292587,downstairs
27.395659432387312,0.868155383323041,0.26072441220134007,9.567394112780562,-0.13073661276519105,0.01923092175622193,0.05939644320802228,527.9490273556748,476.3074876204755,437.0833482630371,downstairs
27.445742904841403,0.3749073257787635,-0.07270605627177346,10.182344502981286,-0.0986739716546656,-0.647706475885744,-0.296703384762213,532.0224768269017,434.3621101161724,458.76110353632436,downstairs
27.495826377295494,0.160533255706669,-0.4622539020189423,10.674359820885952,0.4809761344207069,1.6517412859284326,0.16418932826227214,480.271970329793,496.26988894901893,545.342703548458,downstairs
27.545909849749584,-0.43264366041968705,-0.45937632654972144,11.254946999498053,-0.5862923295991703,1.512443481485379,0.4315909581308321,592.4133263415923,479.77034358053504,549.8798713404504,downstairs
27.59599332220367,-0.7808671403064501,-0.6698790625394917,11.175679769452525,-0.2217656918844148,0.09427134666764947,-0.9504671365777566,559.5263318747847,477.7993630195208,513.3627502861369,downstairs
27.646076794657763,-1.126996763196265,-0.8201799257116409,11.135158115867153,1.2300467678017886,1.4274529049828062,-0.04953161173910831,470.33724819235704,505.23747018164306,504.2122132339347,downstairs
27.696160267111853,-1.1910027537298564,-0.6408895604864633,10.526225364725427,0.6125554767292414,0.9281876511620634,-0.05828016778107631,508.5234554050291,564.8030165294483,622.8394699965586,downstairs
27.746243739565944,-0.8280508114727353,-0.3772746582352436,10.489417266563343,-0.3383005921348931,0.11054053073383623,-0.13398095158234308,487.53315694838614,474.8819872056647,560.5911234604059,downstairs
27.796327212020035,-0.3220381523410798,-0.30790054054254123,9.551752179258132,-0.6250149827398231,-0.5431323343897748,0.5178707031872348,482.7843120789098,473.6864067148455,498.3107231701584,downstairs
27.846410684474122,0.2239584322974953,0.5280406792145462,9.06754414300767,1.0826446954401345,0.03723020063173569,-0.08069879909457345,532.6098966227961,549.9088823231663,480.2435353116236,downstairs
27.896494156928213,0.720513835373952,0.3695351601130231,8.751585826138838,-0.658734058091706,0.34444436983042737,0.9930961119903533,538.7163335830953,554.2396809961178,549.7390910222996,downstairs
27.946577629382304,0.6461445703071586,0.585219309099974,8.455728815223704,-0.05374325976087986,-0.22342016339768822,-1.118106568845813,530.6953500554375,531.8712836807988,605.0794711440357,downstairs
27.996661101836395,0.7839427560202468,0.6931926303532328,8.3985010396901,0.24357285857453523,0.2614672314902868,-1.052837963837688,551.3904200335339,532.8745545884,434.92483663192417,downstairs
28.046744574290486,0.8055912091517755,0.6691011793725479,8.608501438750361,-1.0239970147267334,-0.07407590436137068,-0.7399354359216102,506.6756407512356,446.15303563478824,475.6271466915053,downstairs
28.096828046744577,1.3441418813978072,0.3379829905673768,9.272780055427281,0.7034755691477831,-0.6088322122885609,0.5010216169183577,485.94353419387363,456.14544886680756,467.956438144197,downstairs
28.146911519198664,0.3628213545055816,0.1833225422117117,9.645777249473504,0.23154364329697222,-0.41866788578630953,-1.2135289008666132,483.6762400927009,516.1784020860388,440.36254931975407,downstairs
28.196994991652755,0.09445340801138381,-0.4585118085536413,10.971706885804416,-0.0900034207724966,0.11930419810997696,-0.11859519950251199,551.4959170692872,509.15735925621846,455.5081590650858,downstairs
28.247078464106846,-0.5094973796391443,-0.5323760831013011,10.641096956469069,0.04017724950538145,-0.027897176953082702,0.6186592647608466,431.00855559838897,556.7954683174014,429.8845305963632,downstairs
28.297161936560936,-0.3949186008934992,-0.7828528663431722,11.38941884582878,-0.43062413643891095,-1.0783754211477572,-1.2996628871350098,488.45502084900824,472.14107084120803,525.8941942595429,downstairs
28.347245409015027,-1.1249664725012565,-0.9329617684545768,11.074530716154378,-0.09322964720896325,-0.4331041965885365,-0.25607162858063093,509.74929690823035,463.24812095043546,483.55633868147873,downstairs
28.397328881469114,-1.0906237203632525,-0.4677181084967104,10.630493364676187,0.6473474804823354,0.7978198476342572,-0.06529352710758797,457.8599619610134,569.4823018272383,489.71297896422556,downstairs
28.447412353923205,-0.8434827050088379,-0.4314830174132901,10.410791198687413,-0.4028340348400388,0.9516781657518627,0.17180441595425044,385.86468635802856,556.7795615498981,500.1061937404024,downstairs
28.497495826377296,-0.2844099490236326,0.05841483757163046,9.822504310432093,0.9029315614092205,0.6029872370681916,-0.011408569780671916,459.8242664314289,484.5475524186757,492.02916529697035,downstairs
28.547579298831387,-0.31527718383953407,0.14560968567408,9.550035797313537,0.11281247149177026,-0.35352432669275624,0.6272571231787624,447.20534639117545,488.66176632668174,512.6459810443595,downstairs
28.597662771285478,0.038770325206201744,0.40279263799754955,8.932164681787508,0.3131667349116663,-0.4907620571917549,0.2844188901225402,461.56167643078624,493.82195936743864,478.4307231386213,downstairs
28.647746243739565,0.6906216339740279,0.6747103582236629,8.601412822784988,0.17576810477079688,-0.12762175169984852,-1.3241546048535322,584.5246013469272,523.8716344528136,478.337573016212,downstairs
28.697829716193656,0.6581049355780725,0.6458385076884463,8.639989251352544,-0.8447069456666014,0.19797712459020603,-0.056034612572020526,486.9459765852049,491.47712059649285,500.03003205869817,downstairs
28.747913188647747,0.5637291100271085,0.884212009895555,8.47099737025124,0.2974140581634647,0.20191187659774867,-0.4821537292597626,499.747709684382,545.1140151949073,489.4997878362223,downstairs
28.797996661101838,0.760315036310294,0.30937074877038706,9.011847402704925,-0.4089357375682247,-0.46658506558131724,0.15418526959264645,508.915265789313,598.2033019067654,480.16403946696175,downstairs
28.84808013355593,1.2247306683480326,0.1888413926378416,9.53900948780824,-1.1434574707433258,-0.18940429922341748,-0.2805696603197338,460.937541321186,518.2020160927282,528.730007006287,downstairs
28.898163606010016,0.5481330159704759,-0.27186668740576114,10.270865704097403,-0.7636714345309252,-0.20661796450587985,0.03595922151951754,419.7601362200712,499.8795666571672,488.1561241858555,downstairs
28.948247078464107,-0.31702095120895085,-0.19624729992938078,10.522204211220043,0.15217818600391317,-0.7840918576816441,-0.5926528538915319,524.0506203166024,555.2856344753855,559.0174658520763,downstairs
28.998330550918197,-0.6099434722691637,-0.37300972553523176,11.07723111510352,-0.8644040232273147,-0.18354680914582044,-0.6119496125780135,537.8270782120188,469.9331312373214,548.6523794153761,downstairs
29.04841402337229,-0.5450452666720957,-0.7551728628887144,11.232772105091248,-0.7802572130376957,0.32981222735897864,-0.26205838124731595,504.1042696783152,463.45141591513243,468.88982904271575,downstairs
29.09849749582638,-1.016841239460209,-0.4754066443884551,10.684082717540509,0.39682497367449054,0.1223396265182713,0.4607507658292823,517.8693234623573,406.8081547635641,464.6906940029771,downstairs
29.148580968280466,-1.21732178945412,-0.3347207470450705,10.402043216595551,-0.16098968667448996,-0.6094461100880775,0.48675946945047516,539.4879686164342,537.2273426367059,493.70039709530585,downstairs
29.198664440734557,-0.6817598945693772,0.15132544570648127,10.352051675664748,-0.1852208150374403,-0.22025645906997715,0.5492739723295763,465.9686659644492,512.0027383178104,525.1798125088361,downstairs
29.248747913188648,-0.43767786241333495,0.09597572848270271,9.102641082704498,-0.4794992884870948,1.3900989912184154,-0.06145727264216049,517.4930455443864,561.4760048484113,439.01543887954,downstairs
29.29883138564274,0.08372840037279407,0.40144512431004487,8.808094461455633,0.14550655698233056,0.020121750475162393,-0.599013132921025,502.35234509256856,481.98690709382157,500.6054500226855,downstairs
29.34891485809683,0.6640861122208134,0.5742003959419928,8.672292773513346,0.06302536176548922,-0.4988069747477409,0.7081667278432178,447.3423061868805,499.7389126600838,541.1800801712354,downstairs
29.398998330550917,0.8890359318336567,0.8676950225957947,8.704569946356832,-0.9023654602647347,-0.4679374025550129,0.7926636670832566,521.7967551717554,478.44080353059496,493.65402078896267,downstairs
29.449081803005008,1.096892170825777,0.4937232203707587,8.739328070448076,0.6775251690251523,0.2864622935024129,-0.498811859475803,538.1851553361109,515.1397303959628,516.5274911565897,downstairs
29.4991652754591,0.9858634075396647,0.05181018368154816,9.200395481605744,1.0295710433946512,-0.044045382726513545,0.5652905916585873,537.8735591098239,581.1990170795358,473.6679705646279,downstairs
29.54924874791319,0.5525912215331119,0.7367840548674174,9.50128420239345,-0.35485772243845315,0.6839429522254454,-0.394311346832437,521.0148445125653,515.1027663028258,491.01203012232935,downstairs
29.59933222036728,0.3079766397143862,-0.16437351419188423,10.189844988230323,0.5697805213731554,-0.21223522234133016,-0.7895566629165598,511.13915845546984,500.01822419427964,501.26725917094956,downstairs
29.64941569282137,-0.373074096632998,-0.6942206287328745,10.633563369876352,0.3838340427793201,-0.41788916931254744,-0.33431200198653543,423.94500078248745,532.5032659369449,481.7036158756468,downstairs
29.69949916527546,-0.47652526393537054,-0.5192574699981709,11.347396488602966,1.3556106629560205,2.0720967416698346,-1.7563648426616256,509.66895222623566,448.21586141555315,472.2268654493282,downstairs
29.74958263772955,-0.5843334751542113,-0.8277529173345188,11.484774671326212,-0.5454018206966699,1.0557034514689552,-0.47586185727961233,537.7191575211726,520.4488393895666,504.74290290209245,downstairs
29.79966611018364,-1.080509076239523,-0.44384772956047364,11.198124582789942,-0.2979780909176146,0.5682428252110359,-1.1582936233930885,477.09875062995934,447.03626072281287,451.984529223798,downstairs
