timestamp,ax,ay,az,gx,gy,gz,mx,my,mz,label
0.0,0.029963877926125745,-0.04044483855657727,9.868904046274565,-0.4735127920423076,-0.030331942409928113,0.0883769339056072,507.4037278331348,491.9802884410269,401.1340875803012,stand
0.05008347245409015,-0.0220085370069691,0.005067654483452012,9.767414598714671,-0.007531375557628386,0.03526869913034037,-0.027418873721332428,522.0155289964877,558.733410730016,583.6952303597791,stand
0.1001669449081803,-0.053480410746019225,0.029362026782982793,9.802864465893252,0.07471565593681505,0.17918127084462976,-0.16711234848338957,532.370145754939,542.9476455228753,466.9346571249489,stand
0.15025041736227046,0.0050979770601378704,0.04510798894243649,9.794690628794346,0.20619718342076218,-0.07164762696278788,-0.3410711053204155,563.4212225899197,417.3216353735958,487.03404850251036,stand
0.2003338898163606,-0.03650184970632547,0.0024397967277997937,9.780707489137281,0.23549383792876236,-0.24726195005349383,-0.08785832663535416,399.4693897516098,476.9913398033088,530.0450066955354,stand
0.25041736227045075,0.020639460483851513,-0.03428674364748961,9.771554141732677,-0.3171616568904238,-0.2957309437795711,-0.15791144028405985,498.63076435191044,527.4880792903931,504.9931886813408,stand
0.3005008347245409,-0.009228617975730574,0.02588654680260251,9.779472698620273,0.2693313830666599,0.1538193574276875,0.295060091195476,471.39285417540276,466.72487899138105,511.5049945130675,stand
0.35058430717863104,0.01585268528193326,0.04573502360967436,9.816605674128285,0.27048899704374035,-0.18575819241654679,0.37277743077549846,522.2312997517924,502.6351250866794,560.0519421428401,stand
0.4006677796327212,0.04118842475141528,-0.007130359509790241,9.768925942377207,-0.0403560768216266,0.12997330553243436,-0.17774116419078878,435.5083214267807,508.9929859602076,487.05485483246497,stand
0.4507512520868114,-0.03768692075402848,-0.0065159102232128785,9.731687371509292,-0.046548060976208845,0.6221862313283238,0.16466912552072002,512.0757014003536,509.11091279501704,535.3504108752322,stand
0.5008347245409015,-0.006293263499548951,0.011619336909593374,9.787947757137395,0.2705611175719541,0.14678251500391631,0.19240142632655627,537.2891732413435,454.13103594339384,471.3335061091796,stand
0.5509181969949917,-0.01675440911543981,-0.015419234033614407,9.833259963029864,0.4049324157525962,0.22710663196691208,-0.34061297203545776,458.0458250329966,531.1260558220334,489.9943437122021,stand
0.6010016694490818,-0.024610167524523177,-0.011505311380998015,9.753722427271825,0.08635607248017826,0.17160240109512634,-0.07966299722203446,517.2738785686114,466.4387828929784,550.2119853690804,stand
0.651085141903172,-0.007224638877275924,-0.0016535448178970485,9.771543290968419,-0.143151634981184,-0.43965750807233245,-0.0833248174706054,539.6357985987139,514.1807413285014,555.7402135381677,stand
0.7011686143572621,-0.057404350760468764,0.028582225968174536,9.767043807079116,0.1943594828417521,0.2714619363874346,-0.03302345994043287,451.7545504565997,513.9424671500805,497.51574839178,stand
0.7512520868113522,-0.011405197267021897,0.028510204859201665,9.78259779577729,-0.03969366379789672,0.2600755239755163,0.17888559950457167,410.74032575239664,529.1752396799836,548.3720173462698,stand
0.8013355592654424,0.004134002690157096,0.05356247289218246,9.798411681512134,-0.31181749726674846,0.25160460245141747,-0.17696149629430244,485.46434713041805,587.2586308165298,491.2409245257348,stand
0.8514190317195326,-0.005031968497473255,0.011312046174819283,9.790218450907496,-0.16784687752080912,-0.17723781785715298,-0.36864609501693524,487.06504174574104,508.3098022307156,522.8187216006395,stand
0.9015025041736228,0.04735199209099035,0.0701183215819925,9.784828192906238,-0.04431375106786844,0.0514895701506588,0.3059107720648505,508.59650599844014,481.6151447336807,516.5546237899734,stand
0.9515859766277128,0.018122623276667624,-0.020067321148034264,9.837142985715122,0.2076115158922996,0.20569406441764043,0.20792929016474918,428.2355207498676,420.8658851543358,506.80960006824284,stand
1.001669449081803,0.041316729891085854,0.003929926360532063,9.818310788347892,-0.40502581711861285,-0.22602395269710757,0.10830405608321161,440.83312754765876,457.17380466782623,529.0500351321673,stand
1.0517529215358932,-0.004301302057554385,0.052230973320560946,9.823103933169664,0.24025828299728338,0.29932653302302564,0.20218449367703656,440.52590708850664,459.5955761433621,419.21152542993144,stand
1.1018363939899833,0.022418891232302576,-0.031419982097060095,9.83694201183213,-0.0924709717879365,-0.24765342020473263,-0.22554637537921016,483.9513529627682,535.9217640250915,474.8030742318069,stand
1.1519198664440735,-0.03983931453019206,0.02731205245124657,9.748948044217947,-0.16183833283172724,-0.17939274336592873,-0.14332610809738575,519.0474292896176,465.9027680065579,545.5146074027014,stand
1.2020033388981637,-0.013127090701402652,0.0011186644623524325,9.778349731026184,0.16697025953820405,-0.3868272199596371,-0.11308524669454253,456.51664293088555,473.201385779495,557.8402728984452,stand
1.2520868113522539,-0.016939666291667585,0.047835142319205666,9.770678138038633,-0.027347156684782943,-0.05052639817562528,0.013486180350969353,525.0060054432578,499.8014182233682,456.4234414450944,stand
1.302170283806344,0.028741072158361622,0.0018064732232357036,9.763850837480783,-0.22071993774037718,0.31825047782971605,-0.15435565226858697,452.0666796242691,492.20381213231525,468.130552046732,stand
1.352253756260434,-0.06267995226033798,-0.014954686995452618,9.831964372660094,-0.28291506487962276,0.10064495168647514,0.18040272746102748,526.2269783617782,537.6933377236963,415.0769417031238,stand
1.4023372287145242,0.026400514080442944,-0.006089829041912367,9.862869308878029,0.0038286675831218746,0.2811850097308645,0.2479552683267728,476.00254405420355,566.0744971116941,496.6709124563642,stand
1.4524207011686143,-0.017949061628835646,0.015699399668586078,9.757125723484506,0.12952173817460033,0.2654189237438184,-0.21277166755216903,523.8300237057325,439.65802739460526,500.1997515659373,stand
1.5025041736227045,-0.007356657654789739,0.03918725240636862,9.77409356143752,0.026103007483143103,0.500575148193545,0.30012439718884115,483.21338243522644,429.0161045739346,471.8464471837919,stand
1.5525876460767947,0.00292217592154162,-0.0316484230774286,9.838860284359866,-0.26126173266757263,0.016047987146084998,0.13356017560273262,517.8907603815073,531.2879617572719,476.5909655601904,stand
1.6026711185308848,-0.029114919805625167,0.01716066209425359,9.832649402253402,-0.19760111328535626,0.0785728289299019,-0.46043867479600675,542.4157814030854,434.90901096780215,508.9330592414596,stand
1.652754590984975,-0.024932099268739252,0.02530013749870426,9.776000442096949,-0.05879983107238473,0.3301512303673431,-0.21998161134184044,487.7919393433375,468.92225687696816,505.9483348194181,stand
1.7028380634390652,-0.02189249142437786,-0.009632388435473316,9.827829984479505,-0.1707768642141786,-0.11346836349257915,-0.03261469230976776,585.7747486402816,547.8374879983202,469.6404428825253,stand
1.7529215358931554,0.07103654179217596,-0.06216419127247583,9.819995682301625,0.2622822909042429,-0.31995194579625025,0.09901434996094985,466.64777072582206,511.93231649508493,485.96403279465187,stand
1.8030050083472455,-0.005013402298549061,-0.05316989470869654,9.790385313281975,-0.1466053938543126,0.06032451339254559,-0.22592832431463075,498.24123379557057,530.6591636649275,501.8785895309684,stand
1.8530884808013357,0.004250450036231049,-0.0035566217222187113,9.796659899966135,0.07383364753950367,0.040053674570105266,0.014126796184183745,523.1844579885762,498.0736992365787,515.2113927338758,stand
1.9031719532554257,0.06683345013283222,-0.03842240703641779,9.779709738562426,-0.1786326967865236,0.2987271094104845,0.35716406522626826,449.40534313469493,480.1398733725653,508.4728216846451,stand
1.9532554257095158,-0.04962012752339781,-0.05110684311004832,9.766242354248785,0.0255148471736142,0.5433759850017055,0.010716460253536638,563.1748644344464,457.41216429061535,536.4145185857666,stand
2.003338898163606,-0.004865811740396811,-0.03765575618124649,9.791957726989326,0.07174730108445643,-0.29958017271896853,-0.42701334866183865,542.9526133232299,471.91009585500865,458.07381394506695,stand
2.0534223706176964,0.06615571856868634,0.04654047041948461,9.871843354894159,0.04367383081601906,-0.5522586360579905,0.010855211027785484,474.42399034270795,428.8676575615437,427.7687716586056,stand
2.1035058430717863,0.009932232438641858,-0.00340733720280105,9.834473768087,0.1836228219588738,-0.21765878683219195,0.31720125774256697,508.6322557388511,451.08690782145794,426.88020067840205,stand
2.1535893155258763,0.035668684928011604,0.029370916295992318,9.839724762503407,0.17963476310863613,0.07161610159308522,-0.220471655510019,453.95360462250267,458.50360634161814,476.7954562619711,stand
2.2036727879799667,-0.011147508433839173,0.028940331741638188,9.774671399125925,0.23137168840332867,0.04857469898471557,-0.07319075778049607,524.379161426453,450.8919740446849,429.56710104462644,stand
2.2537562604340566,-0.027821258601693606,0.009186084550526899,9.804102329026106,-0.01248721360952579,0.08799018841979725,0.5530012337527108,517.1286774876321,535.708396918849,457.8068172676374,stand
2.303839732888147,-0.0015867218707473069,-0.01785207566315386,9.814533792364806,0.17249176817601067,-0.27639579284004917,0.12110672590050033,458.00847348671044,481.02283424471904,530.4281094009017,stand
2.353923205342237,0.007347000632572265,0.0022467586667997766,9.772460427057176,0.27050351096825115,-0.028199179707122143,-0.05742583380822166,486.3722231948697,440.59572694326226,442.9169866870816,stand
2.4040066777963274,-0.023435921288611612,0.05379896500107516,9.842943129394882,0.4519183203264916,0.013003971802570359,0.3623789134060353,431.4788705790999,502.61568085554507,504.0107492917414,stand
2.4540901502504173,0.0295764895523756,-0.017843190081598653,9.765008445638022,0.2548266326322273,0.21562157137065485,-0.01404374556062809,531.913086167112,590.5308189034188,491.9191966806147,stand
2.5041736227045077,0.010552539545947523,0.012858752280412479,9.832233216278679,-0.17899339912807158,0.0848229465107971,0.05406134171657186,443.3678620940877,444.8020582885326,478.0578759302521,stand
2.5542570951585977,0.013943537138275355,-0.06189908649235781,9.814446214573174,-0.220569378668982,0.04860862573600407,0.10031953195905405,455.4106656978305,516.1880802561755,495.29323178467047,stand
2.604340567612688,-0.004745300856911397,-0.03194040783725176,9.82971816129123,-0.3264896218391077,-0.142429550459016,-0.10157320561247418,496.9834269973543,539.7938221242026,474.87056983008375,stand
2.654424040066778,0.007081508195485017,0.07284942149301717,9.79356864534948,0.3023992747827354,0.03247615410662686,0.20853299912847867,485.20069008343006,466.70001270114955,487.59028585824404,stand
2.704507512520868,0.031420725893936394,-0.008007565191970017,9.782862056106914,-0.2670355349401213,0.051676595601451734,-0.09594787410540608,569.8051123559037,519.0465367468698,533.4143042439692,stand
2.7545909849749584,0.042890276384690826,-0.002840257090378273,9.798595537534718,-0.5303910987274147,-0.194870366345455,0.14092935849774677,473.1551399789493,504.62102727181457,498.1279605088155,stand
2.8046744574290483,0.0003723012307253054,-0.003303264721819174,9.748241826638651,-0.31022330938852316,0.10865849431755058,-0.025134355942970126,509.8999320934211,525.550552155563,467.4897212536091,stand
2.8547579298831387,0.00923899384292877,0.031196084750387303,9.782011000424758,-0.20394970810593266,-0.4421248303891529,-0.11815980988382695,509.011101380718,440.83606546952535,489.4469947415183,stand
2.9048414023372287,-0.012375143999074606,-0.0012153828106957199,9.798033035524428,0.1912014174226545,-0.006989912789027847,-0.2413992859355374,492.2442654805361,518.4949041280631,537.4829492028571,stand
2.954924874791319,-0.020064183422928462,0.012333888520424621,9.796168995038116,0.29218009338553946,0.1700703080234191,0.38549619187830175,448.8444709826359,500.0333681085677,425.7385364270755,stand
3.005008347245409,-0.006815669741200112,0.0034389045852591324,9.781650498117077,0.21024349051116395,-0.2364226845079009,-0.19264237733313358,548.9118442793427,557.2295127716885,489.5021269045881,stand
3.0550918196994994,-0.009010578775527023,-0.02438128983932339,9.757251268063472,-0.3942654452771011,-0.11806243174164666,-0.24325392186730263,515.817090313626,482.3209169720435,460.1584403759793,stand
3.1051752921535893,0.0011123511387265278,0.03493492655025956,9.818238637064514,0.23003981052791106,-0.5302049025216641,0.6500027991919729,525.4037794558386,493.71678560598866,509.75145702543534,stand
3.1552587646076797,-0.04072190066906206,-0.05087009960105118,9.747149905722015,0.26610909386442083,0.38803319171314277,-0.13943455712860509,414.43984852202624,442.01284618840367,512.647283918006,stand
3.2053422370617697,-0.008357608779488851,0.033756507741365446,9.813393449680762,-0.035188046392077316,0.04453809832671191,-0.015507865431501998,591.6582228441694,518.5054225578291,511.46098382354376,stand
3.2554257095158596,-0.010361008626990298,-0.013517263481525987,9.802439173358165,0.34259548024866304,0.5895313750729423,0.5351804556959127,511.7123982103066,512.5961850419978,505.35570937590643,stand
3.30550918196995,-0.009128916414525207,-0.03687240067304483,9.777961341331075,0.10627504295714128,0.11271154224359567,0.26593595492262867,507.82184393950376,447.34217984332736,459.470383599589,stand
3.35559265442404,-0.02342181456812488,0.015311298276370636,9.826693901365754,0.11367767431219185,0.06292557709086409,0.43829265095311126,528.5110195758947,504.94011840779905,487.9359491300402,stand
3.4056761268781304,0.03785368722541403,-0.013785193170728668,9.800422918316332,-0.18131512736947236,-0.21324007240604173,-0.21609396668382228,426.399738596512,414.38462809852797,458.5750792638922,stand
3.4557595993322203,-0.04593681424604226,-0.03621669337904042,9.764306725668657,-0.3966015028947889,-0.1410070750244578,0.009881867774174767,492.0683338163499,580.895448003101,534.5174129760054,stand
3.5058430717863107,-0.02142278884588901,0.00903995314069872,9.809053979604705,-0.22823141070447364,0.11357174868971266,-0.017510992141115983,543.4990494258335,520.3679185187309,490.83979494935954,stand
3.5559265442404007,-0.05115400809155821,-0.01917554187255166,9.765846204205067,-0.05245966334022287,0.0833173455306346,-0.1348569583267236,456.80328762687134,535.0956380218669,466.20954211164025,stand
3.606010016694491,-0.04150957337993009,-0.05184693235809584,9.773358072690444,0.7999414570078222,0.09779718173170526,-0.550425489959584,527.4963495812112,491.93115003378125,486.32898576704173,stand
3.656093489148581,0.010662740206258098,-0.021469937466620265,9.807143327919066,-0.1689388544036143,0.037385247776641185,0.033961957685022054,497.33002396957204,494.1454592217609,498.38108784734857,stand
3.7061769616026714,-0.011104978045646488,-0.06816284220736502,9.801904541261651,0.08736149702617771,-0.11699337714236913,-0.06030275570798544,488.51343526048066,475.37206607207105,530.9309472037276,stand
3.7562604340567614,0.04700854862003771,0.02397619729312475,9.79432415657274,-0.12289106450542553,0.36995935792490175,0.07456060641457307,547.7471465340459,490.6981176633822,485.76583038773276,stand
3.8063439065108513,0.033460408489214874,0.02478081134177844,9.732750030818835,-0.14933536124425292,-0.19660432929532617,0.027315960846295964,487.36958169411696,511.5300456502258,549.5522185464398,stand
3.8564273789649417,-0.02145252514314564,0.04034658398043535,9.814684530961829,0.42634302560707077,0.26090762230224,-0.050679935535751085,507.73406503668815,453.0023000235537,528.2304635242479,stand
3.9065108514190316,-0.0250189686562797,0.028741684020624443,9.779036422646984,-0.43663707915384065,-0.2987965204995568,0.24489491051098844,443.5661732932169,458.48011193853046,491.64825804302427,stand
3.956594323873122,-0.0032560797985930617,0.06938360464430723,9.768771941595455,0.046277342392116005,0.08538137153518895,-0.47698052006061237,461.3355581085799,480.1506978926404,501.50222087743987,stand
4.006677796327212,-0.024892281943620906,0.0008901807282573337,9.757453990940334,0.24660646366615577,0.09002298641209427,-0.1030576684344678,446.12991840021766,491.44922635100005,512.9612870975965,stand
4.056761268781302,0.026525662133604952,0.029329461010131744,9.795185608607275,-0.3863768381854912,-0.023097511369551526,0.11927766283875653,447.99877497689437,460.694228310787,570.6723278433643,stand
4.106844741235393,-0.041228428747826444,-0.005047033130114523,9.791818638727243,-0.10204631962005516,0.17079413524483666,0.5522639514198923,497.24465302066386,461.20560282304245,591.7154338700719,stand
4.156928213689483,-0.018871794066513785,-0.046850857417469347,9.782345276304047,-0.5311813892390684,-0.25680497804634367,-0.3604639787940086,531.3756628213082,431.20043897019076,515.2167830626652,stand
4.207011686143573,0.025390185401036075,-0.04034761541183972,9.789454204426415,-0.03378233090040673,0.16986558123750142,-0.14217892062666018,476.23702330855497,520.2481675364958,562.1397267377378,stand
4.257095158597663,0.008504977909639083,-0.0015886078854166555,9.828352588277387,-0.18416526856879908,0.26210879465170134,-0.1529545292583014,474.53126875450926,515.7221284844923,474.29212358529344,stand
4.307178631051753,0.0008840841831085355,-0.0693006425557437,9.81362813777912,-0.2740756565797515,-0.46642187846294003,-0.027426072385036873,483.45590406478533,571.4765279821434,509.33917572380403,stand
4.357262103505843,-0.0144802783137815,0.017087642819966407,9.801883665580027,-0.1399945339014609,0.026328796931070167,0.06248890243169607,505.2879527141332,477.8677117440587,502.07068501548423,stand
4.407345575959933,-0.0038411910146136513,-0.034928433967914174,9.786717750253134,-0.0997328769546868,0.1514775004612003,-0.13687844874850402,494.42972981235744,522.936742615773,488.5850687505228,stand
4.457429048414023,-0.008165964200928688,0.003150582270597793,9.812368947460222,-0.6223855947297894,-0.15562090850639224,0.28073243209243803,494.35734045297454,430.1648236615705,489.41764361123757,stand
4.507512520868113,-0.044306755563979595,-0.008293290965157657,9.775195059202266,0.08418758251699976,0.25790981563981374,-0.4561473511286992,498.1562973101645,516.1941572348376,518.2754415389549,stand
4.557595993322204,-0.013725385220907535,-0.0035512594809348763,9.78904483222021,0.2855440618033242,-0.2362252552076895,-0.20443588314699188,441.70572218125443,547.4303564868665,469.9313249861457,stand
4.607679465776294,-0.002991344696155293,-0.05456435816966487,9.768684140897003,0.20002024784059141,-0.20957391274108145,0.16737098677763546,524.1794115304479,522.2865135582254,503.4609037658297,stand
4.657762938230384,0.02478843251702638,-0.0036200571538890364,9.819864626462982,-0.134412611078797,-0.1325265512199681,0.13018537332501595,559.5939196763738,508.13400432574934,494.66861013072605,stand
4.707846410684474,0.0421116839638344,0.03484462183543173,9.824058056997044,0.3912956151595284,0.3180611901456288,0.007077093697612014,548.9832865980216,475.3819789258029,472.9017860195128,stand
4.757929883138565,0.012380766353245976,0.0005964121491410582,9.809606336857254,-0.2331599838221171,-0.47574950882605355,0.3990039113906247,514.1225169474876,511.0274530429639,481.62416343787487,stand
4.808013355592655,0.003388919618994471,0.00922249467796054,9.828992853015336,0.5263698322637445,0.18489735080437908,-0.006822850749786783,491.68796241770633,497.8014675405267,471.30779377071775,stand
4.858096828046745,-0.019562577189769073,-0.02192693970465817,9.805034674487917,0.3103736902265814,-0.13719053027295305,-0.0140816070759106,473.90283692903995,468.4726621506146,555.1171945225358,stand
4.908180300500835,0.008176843079598498,-0.03195369684399563,9.8046151127852,0.09819706626530078,0.37812353020400263,0.2784729229415339,495.00050091158846,517.2183209615418,481.02260514507424,stand
4.958263772954925,-0.11100060732812264,-0.03557256160348585,9.824143618312169,0.12040701429127056,0.0477473374678758,0.2490366585382444,522.9365756234429,516.0965322962828,445.84126895263745,stand
5.008347245409015,-0.007436820484939821,-0.011313930306932743,9.754446204587712,-0.1489439792125369,0.321026639026965,0.2613314010502261,526.778903950933,548.3667251230147,460.0975532469248,stand
5.058430717863105,0.031635041238981074,-0.02717062989049343,9.821186782099371,-0.019673854440749816,-0.012189950459368359,0.12013351945842062,480.0618820509847,510.2471421573273,477.7140257326778,stand
5.108514190317195,-0.012068715362029234,0.01225047971788476,9.808747014635825,-0.2969276084934816,0.6184526788057547,0.0022973162093555327,455.9849054522748,545.669972592093,509.6840930229606,stand
5.158597662771285,0.014134710109962936,-0.010952548590741393,9.785294249275182,0.23140309756347635,-0.15329036963919296,0.002439331431918845,577.8397648223959,452.23465067699885,506.1503388348508,stand
5.208681135225376,0.003859398302276426,0.011158009906818464,9.783266985334347,-0.013864963805426386,-0.3105954479303734,0.22088814442859572,524.1853749008521,461.8809011707716,490.94798858264113,stand
5.258764607679466,0.014902343530897588,-0.030587378002770116,9.868735371211182,-0.02525561962543982,-0.07939342579738214,-0.19223919012734247,506.8699461124093,512.4166443377941,506.4307619971415,stand
5.308848080133556,0.029911316664817097,0.0004558401878716131,9.768416946845825,-0.2561973481098885,0.14413973949664347,-0.3551318278449263,511.5133287762392,522.8963758440716,509.94329935635807,stand
5.358931552587646,0.011013856931461341,0.007137640003687273,9.818645653122818,-0.01402988434122633,0.5033842717111064,0.19522491632038239,487.284294645639,426.22302675040726,504.56723062404666,stand
5.409015025041736,-0.02263763853600166,-0.0183581068269989,9.846260881354931,-0.17762887017287077,-0.06508369195066893,0.11829163006104103,465.1337165999306,483.6172616088404,448.8322264829094,stand
5.459098497495827,-0.012997523022639151,-0.008927924121405681,9.815545773496888,-0.16280734850639972,-0.20163083864300102,0.2254346542474289,468.2854986701896,458.8280335649099,448.8103689760815,stand
5.509181969949917,-0.019442341716431596,-0.043227864525905546,9.800002808988737,0.5651534790882394,0.23182345935200757,0.01563482446853063,506.15497661155547,483.6530679183252,528.399398234111,stand
5.559265442404007,0.04605917920280812,-0.02882028099271991,9.79933798305649,0.24418424715416537,0.04924676653017676,0.11663006746249242,455.9102304009275,493.95772160024285,469.94117763193475,stand
5.609348914858097,-0.007343685047478371,-0.0121620939287016,9.801046048473452,0.5969629144403626,0.024958631342239943,-0.24676554824283253,500.2569122575426,505.21132514213286,537.1652394105743,stand
5.6594323873121875,-0.0014738724734467412,0.00020039905657309037,9.797442177457432,0.05156171294396718,-0.18103836855637684,0.13516634192637283,574.1681511817607,486.5660203767369,467.05449661348445,stand
5.709515859766277,0.009820129085858331,-0.031701511291622575,9.768574030574618,0.2203900522909334,0.22496359857806142,0.16649195751714269,425.68547580382955,485.262207743822,517.8966269524216,stand
5.759599332220367,-0.013958850032138842,0.004462013700409086,9.806849538879042,-0.14099407074816547,-0.2240830777993086,0.1832398293728992,433.7918662367746,479.96428777058406,457.7927211943166,stand
5.809682804674457,-0.017376280620973836,0.012877781770325239,9.802465825566344,0.3507006186083751,-0.068961418434545,0.2901786875837682,528.6857790432758,470.0710988671458,494.98102967681945,stand
5.859766277128548,0.018989826546989552,-0.004157677294225642,9.800832161998134,-0.007138703501546274,0.06023143343142507,-0.12465824288880585,498.2311662301781,538.287130654841,486.0930128184921,stand
5.909849749582638,-0.05378449465188211,0.0344467804622718,9.804664518768751,-0.03141468537585258,0.0013380660323313793,0.11517771068150776,519.7806057638655,484.79625996722734,551.2888592250343,stand
5.959933222036728,0.007426910575798043,-0.035749227265146455,9.795364116954572,-0.06248361923330318,-0.259301978507085,0.0385863381313609,517.4091080316422,488.65208862118317,494.1471281145897,stand
6.010016694490818,0.07956170125555877,0.013009203190109453,9.825914887688022,-0.05961272603695338,-0.4500359915702559,-0.13842731209249873,511.97842336445973,516.0161618345373,555.6787997025533,stand
6.060100166944908,0.038928437132799934,-0.014077658090413836,9.809059440484384,-0.1003760096234946,0.12392242756769795,-0.32007359147090764,502.2363947694783,508.98408515575767,527.4548264577799,stand
6.110183639398999,0.003791413398549104,0.09620999491812186,9.89072065484498,0.04617346471830911,0.4220590290971217,0.03944235070679695,569.3920589248653,471.3571475064209,517.5511175631142,stand
6.160267111853089,0.004637282881888818,0.008667424337856472,9.729989898634509,-0.03759685300985218,0.08236238738714301,-0.08558693860357118,472.25037598825236,501.9769089578568,490.9287958684197,stand
6.210350584307179,0.048289937838966804,0.002482396645741819,9.746794102484362,0.1181738309355733,0.36023726097539316,0.307912046424602,509.41290598336434,493.92075543934675,551.7255978892832,stand
6.260434056761269,-0.019298910152353632,-0.014923286820990866,9.780600725749652,-0.170378165406639,-0.41910595386942967,0.21117503923173997,502.6543557039822,458.38915839896896,528.5718876572407,stand
6.3105175292153595,-0.02666353008610378,-0.015202803620224858,9.756553146776868,0.1032069287238639,-0.0049065544624605556,0.2865857793318729,535.3689371414634,478.9557618253277,572.234070345683,stand
6.360601001669449,-0.029062053262215573,0.056138376233429085,9.827087267237028,0.15587832381978184,0.40119042260002824,0.06063586329425692,419.27907881609815,501.79915514657205,563.2724699773219,stand
6.410684474123539,-0.010321012755509743,-9.601786130818135e-05,9.725329488467471,0.062200014898528805,0.06466565775968529,-0.057139321119625816,460.252449957233,551.8596273786659,460.22594396089835,stand
6.460767946577629,-0.03753812994838012,-0.01819692576573212,9.76290046764127,-0.1459847842681513,-0.7133650777645529,-0.04411683939946413,505.0877364242734,477.29494071767255,556.6557117015278,stand
6.510851419031719,-0.00697519308424166,-0.00788660794858434,9.83256278163152,0.33986497332568627,-0.24178229919514385,-0.6290444028747991,442.4079548340876,511.4665492181118,523.4264095089176,stand
6.56093489148581,0.015369801900993213,0.034185148369590454,9.797130008532053,-0.4595822771896781,-0.11964278111452871,-0.48376845846379807,520.4102650611418,489.6331156843793,462.2684705772511,stand
6.6110183639399,0.007672469470983712,-0.01086430763755343,9.802506944273219,0.06002518900617381,0.06072615978545556,-0.23225376292305047,483.5835756944356,482.9310662609224,437.52542018632755,stand
6.66110183639399,-0.007043005183299214,0.015567076872143572,9.795801631621421,-0.07472390125230385,0.07806339916488858,-0.033399596142483556,504.1996849715918,578.7997184403339,411.33416888940565,stand
6.71118530884808,-0.049813579357920204,-0.003930921020121866,9.807208619319495,-0.32018226664208077,-0.07220249745008936,-0.15408858986053367,507.22746618065673,487.77460725209664,528.0738052561588,stand
6.761268781302171,-0.0051755546918099415,-0.008919347014912898,9.755812445498911,0.18278995288675853,-0.11730030770396767,-0.12638100350506085,536.980795894987,540.4520797508524,461.27060752572055,stand
6.811352253756261,-0.009714610499223217,-0.014223054913714839,9.79308831088245,-0.16132435074550197,-0.13546807778480086,0.11757133075248911,557.4694154429208,471.17718567310186,446.5640772239365,stand
6.861435726210351,0.011958537620327045,0.028975137044132897,9.76659852608679,0.009493984090254056,-0.1857951163480913,0.038045021564520366,465.8511198719683,437.0282532756179,464.5708801648575,stand
6.911519198664441,0.030262412268312625,-0.0395685696978722,9.77785454889698,0.09156741008071032,-0.19396562165355632,0.11077195897628936,522.1388524952813,503.0823614760034,535.9635282544093,stand
6.961602671118531,0.05428036785170785,0.029642421053628295,9.752870884846631,0.4683541331233531,0.09584204530149684,-0.19616940870911487,451.8313285405347,530.536001541689,501.6962679367339,stand
7.011686143572621,0.04240757075092619,-0.010649361015107578,9.83649430632761,-0.14459627852147106,-0.5683541667268823,0.04670138457439654,473.1060710795496,535.1127309410238,508.29034336496545,stand
7.061769616026711,-0.00686849055634714,0.03873827145559218,9.805320287949716,-0.05116830436565216,-0.20752778109307513,-0.21099559024605724,443.16836832486234,520.1034720698556,525.9447705964614,stand
7.111853088480801,0.00212195207841194,0.028488147949155898,9.82923570728445,0.04847369407045379,0.17426111153240867,-0.32654551679172455,486.4868672305835,503.0034131868836,413.6082943651079,stand
7.161936560934891,0.013602926124925724,-0.00941684423612732,9.789732881186746,0.030803008003716457,-0.30990379963267733,0.5898312338494173,481.290117447158,482.12447470731547,507.47914370731417,stand
7.212020033388982,-0.004512326924655349,0.04592350973101958,9.76522117361715,-0.640211152860194,0.0536410067328517,0.13140412058360232,476.4063751832754,484.5887241889066,494.0258058278918,stand
7.262103505843072,0.021545159080505555,0.023950950582276233,9.774543975680634,0.017434116071744162,0.13626023571926077,-0.32987052596141675,470.8468102299377,410.6307547694174,466.9282229728093,stand
7.312186978297162,-0.008248828166429287,-0.06144604073333497,9.805923695901532,-0.1686757786753499,-0.2995585895911239,-0.5462499920356618,497.64557088064583,484.0269698304279,503.47402156184563,stand
7.362270450751252,-0.02421395684853818,-0.011199029969680072,9.829860611833265,0.07083883258975424,-0.20536762559440522,-0.22951010044370382,519.9640391034408,506.7614032474955,488.15652752403605,stand
7.412353923205343,-0.0136136957056439,0.024914284633039838,9.791935235147296,-0.16271432431617008,-0.19159975408201352,-0.012123383739178283,495.60691718498316,562.5697552692399,526.8445544894054,stand
7.462437395659433,0.004023462856056537,0.013021889896053476,9.751949848725552,0.036090658983012246,0.3320979580942358,-0.2314347649209969,499.29140571539205,526.9140920476428,538.7086128203088,stand
7.512520868113523,-0.030200309810560613,-0.002797285492813606,9.788111665450991,-0.45795959456522456,-0.19419330080783798,0.3589236913963118,542.9391163667294,449.39426966832866,469.7327790833318,stand
7.562604340567613,-0.009299905523003069,0.019633245478837408,9.77192795371685,-0.2498417607663822,0.36736519030682047,-0.1580992634115318,501.7272865523834,541.9505714376841,498.8972746670754,stand
7.612687813021703,0.016803542453053988,0.011072480373223975,9.793642665884398,-0.27224460373342374,-0.16049773890243377,0.3274684942988754,427.8635910937,495.8099810156082,439.19190491372785,stand
7.6627712854757934,0.0148865528658947,-0.003253333247177387,9.84498564355026,-0.05515080552320759,-0.2722005122768862,-0.19863515433263917,465.32974827256606,531.6359068296373,554.2070446507818,stand
7.712854757929883,-0.043811075962650194,-0.028106917270495246,9.745172300016701,-0.049762080915359684,-0.64258038190067,-0.19887182122529193,517.3371004736126,509.8269744214347,475.44622972744287,stand
7.762938230383973,0.03483969706272695,-0.00798665044984534,9.80543000165617,0.17838840740513573,-0.041747746194331144,0.20813164260335892,524.620008378741,449.42681568224845,494.2831572089962,stand
7.813021702838063,-0.018200434707880193,-0.029054804791955408,9.816984115525635,0.5061263922868403,0.17575142057090923,0.3904996779620511,487.6918871363058,513.6102842710468,511.3255417050472,stand
7.863105175292154,0.058349290609728724,0.023340022617322917,9.773465960084815,0.19959419243852802,-0.4644447180279787,0.34401578866941146,554.9026982638909,556.9896403117609,516.902969802129,stand
7.913188647746244,-0.005044386257622532,-0.03698187525278901,9.805863364020084,0.6781725871412358,-0.007448017916217814,-0.10085327025485426,510.55097152713665,510.80622139915465,466.69491456351255,stand
7.963272120200334,-0.006515277886980614,0.020518689519389247,9.84697879805953,0.36589455573938773,0.35677403138653896,-0.44172232278591284,572.3563692659543,442.54392050751,424.2065098293431,stand
8.013355592654424,-0.016223630305291406,0.008164894000011982,9.820675747024541,-0.7577026817143718,-0.12889321426809472,0.2457726458671714,514.8797248838288,459.0381736937003,504.5557349056701,stand
8.063439065108515,-0.053933034946090405,0.07288198349841886,9.758315282807963,-0.4184811784323073,-0.1913177560300018,-0.26816010798180717,479.2275266291671,566.9229359816738,483.14534797874643,stand
8.113522537562604,-0.008585522497230588,-0.0037472254783703918,9.83284609976117,0.31714673456866793,-0.035531922786154524,-0.11216471317363799,516.1608653919034,472.7716181777845,430.42211734326236,stand
8.163606010016695,-0.01928989072963372,0.012568321100416661,9.79483214175233,0.0652355291265967,0.048022006390466054,-0.45826334740918057,540.046070918584,522.1393362003585,552.0471928719809,stand
8.213689482470786,-0.013779348868751179,0.030832661949004758,9.780732109004145,0.25974539023017534,-0.09030891002758305,-0.20708313674550097,515.2831148966852,501.8772884363787,539.8851428344965,stand
8.263772954924875,0.0244868428885628,-0.06132337715454583,9.842676597994107,0.10496638334360453,0.11263531017316526,0.026679016097300147,502.71255820134854,489.68973444919834,534.62902770332,stand
8.313856427378965,-0.014929719142264083,0.03133932112225233,9.748778535010413,0.09232126242761902,0.21826361677157619,0.08367802973960467,472.448870213416,441.96353033156964,521.4852532115515,stand
8.363939899833055,0.009651655349117216,0.02952086242846107,9.828965212670948,0.5481421930812705,0.32062200449997286,-0.5540357574870183,496.1989468146299,455.0554957365413,450.8643621526036,stand
8.414023372287145,-0.005092490182275394,0.016365363729049315,9.785590098838039,0.21691266484785257,-0.2591607842052476,0.323442628008788,459.87615649261994,488.9667832234955,476.3338144134918,stand
8.464106844741236,0.03726032001170297,-0.015564086519437734,9.818247044042542,-0.023105158513723162,0.33950143823552276,-0.1766767581290262,427.0036281196821,522.6209914298862,507.5599106172363,stand
8.514190317195325,-0.0202470730164602,0.018714618179941994,9.785008998994718,0.29516757058985854,0.15597484195284564,-0.265756060393384,496.06555254267624,548.838537089247,508.55778364448395,stand
8.564273789649416,0.024322713124297804,-0.02405299908424928,9.75640857558294,0.22964032984521163,0.45794034217205243,-0.013100196843693469,488.3414127130991,444.5433674838825,393.53453624621557,stand
8.614357262103505,0.04640437570707308,0.02428322808315804,9.842793517708355,0.02558731678502072,0.06991253084749817,0.05751930519491427,501.19244987369757,445.5073704185703,507.49203404587286,stand
8.664440734557596,0.014184242348584133,0.016898477487104636,9.768790410048105,-0.29232576603642174,-0.22009442706012425,-0.16103533012970564,499.138577504837,540.2338948724647,492.94413972472427,stand
8.714524207011687,-0.03814700451208285,0.009606092916916706,9.791593995234466,0.0779168323439352,0.21478404631755968,0.0486642650984704,578.2209947187581,514.7514118625562,556.1776479076818,stand
8.764607679465776,-0.020109732378574087,0.013502762919655228,9.835494824066156,0.27819713580078104,0.11632418078447163,0.34213848721478907,500.64579680507126,515.2325631640457,446.2683939043926,stand
8.814691151919867,-0.0032254031466708993,0.02567699132848824,9.783279778187245,-0.1679445779503287,-0.16646733774630834,0.34744728462956614,453.8856537768487,504.7590029735948,463.4136941538194,stand
8.864774624373958,0.03130958400623031,0.005122909196581836,9.80654045778709,0.193546823342283,0.4333475003919166,-0.2553056727159237,518.3526221621647,508.06792618210324,478.16492811221383,stand
8.914858096828047,0.025900575781837604,0.02000544992093821,9.820945083101405,0.2387822442927525,0.23833502618120667,-0.06736835605990923,563.8039979443852,540.312324088806,517.0511070802356,stand
8.964941569282137,0.017901446542922667,-0.020079611420373872,9.794941526045221,0.047875664857518,-0.4477309856080139,-0.4296819405357285,521.3096898379576,575.7918819142606,354.955895729993,stand
9.015025041736227,0.018220019587331507,-0.0281104438805206,9.793851986418582,-0.11685699097395605,0.1166764834171857,0.2787301628630147,502.5664309479707,497.987079679226,563.2717353689156,stand
9.065108514190317,-0.01726824405136851,0.03477848113296797,9.771520396971335,-0.09583113505666362,0.13492217503703904,0.2536231427158407,454.5094254029093,574.198771998145,564.5836409963422,stand
9.115191986644408,0.03847106280895332,-0.007440282377059071,9.79824020289243,0.17347270016598165,0.2586352488266647,0.18674543964262638,460.1805565869069,555.262227768999,467.5569927929874,stand
9.165275459098497,0.021059305973187545,0.00013095625585468618,9.78884205699538,0.07236702857789742,0.018717347889037592,-0.15768007832918018,492.5880123776123,528.741007228581,564.3178029374549,stand
9.215358931552588,-0.010270979165549754,-0.03272694380561944,9.758939114192332,0.19253868694898307,-0.4103106385172864,-0.00016959776520724995,424.4072948945446,396.71237256953276,437.0029191668195,stand
9.265442404006677,-0.006257908091737027,0.016698340860624883,9.792979247534815,0.07100379242733058,0.34397377998092815,0.34801828723340006,507.5505469960746,472.96159373046765,484.29587984932374,stand
9.315525876460768,-0.05917569361644255,-0.011604181262940674,9.814793122693423,0.31369008690329053,0.20525551583552312,0.29786078522298315,463.61707347824694,552.1339599132461,509.73363493450364,stand
9.365609348914859,-0.022812123173834027,0.0033797851487281302,9.834135329648227,-0.4361435389187323,0.029348750515379066,-0.10219564018035136,535.0871191983261,498.9280516975878,527.8346349939007,stand
9.415692821368948,-0.012693302395021852,-0.024482319890448606,9.871358591994452,-0.046081575310855515,0.03873752515852732,0.04208099173774434,548.7662626358004,554.9534069190511,460.5066183602727,stand
9.465776293823039,-0.005934107823069745,0.004018129782742935,9.785079658411384,-0.09930997051568412,0.08765180896808346,-0.12575153876559989,496.97904407374494,461.9716246833273,527.0909473896932,stand
9.51585976627713,-0.018654853102757524,-0.0031353641843658714,9.816903022653337,0.18764507229995406,0.4026146505522796,-0.05871512401906375,500.43645398087267,482.01205830299546,493.81862558202243,stand
9.565943238731219,-0.001902597595934502,-0.026282956415128317,9.858668757719178,-0.03137337598318278,0.04573179131051672,-0.11330664174204089,499.3615499145873,467.97233746489405,517.4161966184045,stand
9.61602671118531,0.0026245911221795815,-0.030207264091755295,9.801026695143028,-0.18137103312498298,0.09328324074599234,0.3075587941432528,473.610550878076,530.3251269852453,511.94750689913366,stand
9.666110183639399,0.004082503459328965,0.044817712575402374,9.82202939759497,-0.0014002363776864522,0.029969242683190497,0.14283496406928844,494.6143379402127,507.9896820490172,463.6138949502383,stand
9.71619365609349,0.007329396964146667,-0.018366420265156433,9.77896744946769,-0.09989744941442033,0.20789007577779678,0.06959904162102151,454.85950127722305,478.08291216416796,466.8383029523245,stand
9.76627712854758,0.0454978127040996,-0.018171100022259717,9.790911779291644,0.16885451831802742,-0.12642825747311306,0.3141094801107851,521.5958696409691,451.3411351888172,406.31104773575885,stand
9.81636060100167,0.006702772874308538,-0.009713951324643241,9.779324698135781,0.3011135408262309,0.4044354928422007,0.09914057767385231,562.2147301261612,451.0093344050332,461.5889395505019,stand
9.86644407345576,0.024904351599882565,0.0018936821106316226,9.83661128655279,-0.027702794539948755,0.16270250552006463,0.13138880863051425,512.6845515424702,509.2743712846969,528.6943690091233,stand
9.91652754590985,0.01600943622407275,-0.01863271457613573,9.766566028718003,0.16165887520082675,0.29262313783751015,-0.5423956055159571,543.2632477779057,495.79310066204886,543.1423007101845,stand
9.96661101836394,-0.013082809720062122,-0.023394222476204957,9.773553561687677,-0.036763308855127304,0.22262052180166525,0.405583429737415,561.9365002492209,507.0874157940066,516.0379299360812,stand
10.01669449081803,0.015132650203463799,-0.007452952635198365,9.761499489474422,0.40767332805319273,-0.2747739766494561,0.05135663137672924,461.4101496902579,483.14389859237383,499.0314723798783,stand
10.06677796327212,0.07090576258210841,0.00731576666218476,9.773691475956428,0.011290257868458647,0.3282689629282051,0.34912444753210775,436.4391046549698,464.5957143148473,479.24415079179573,stand
10.11686143572621,-0.01895287864353634,-0.015539675638065159,9.746736012381772,-0.4757633445481715,0.029874952129687854,-0.3204184248948253,524.8399371163039,448.30008605163033,455.09524752237706,stand
10.1669449081803,-0.004855977072572182,-0.011008942603371055,9.853062866604695,0.5797047573745758,0.1320749096412913,-0.03611059241859989,449.46602908674737,522.465750185149,490.48200963267374,stand
10.21702838063439,-0.039662274389414755,0.0241448155838883,9.771291612261118,0.1651258902617868,-0.35096015190330293,0.2488540182976485,467.36818621882793,462.1998874433712,513.8305981497438,stand
10.267111853088482,0.030846339725151467,0.019050695378114386,9.869313017872425,0.4155871337989858,0.1986777281510485,0.2285300078032667,500.18293741635983,494.73207536905096,474.34891652010737,stand
10.31719532554257,-0.009976100946022443,-0.02165005966635794,9.870583442309993,0.19591216461505614,-0.20303111513665714,-0.031997047400563576,576.0801015456206,541.05081524278,503.49434458151114,stand
10.367278797996661,-0.03602544394175814,0.025002625602080483,9.82114690101786,-0.050667468733772106,-0.13029968722727456,-0.3181423085137254,538.1835423313719,451.2049035410733,504.4044152251141,stand
10.417362270450752,-0.010896859925006608,-0.02502142815901995,9.814651788650695,0.06637470094483007,-0.23090767607976764,-0.1045378489845892,519.0043733855989,428.16629910843074,536.3016174283406,stand
10.467445742904841,0.0022074165649683536,0.04768023936123574,9.798684199195502,-0.10611971592064241,0.2248904574872929,-0.49264558234181527,501.23281232899103,483.4732594576618,464.4335981809945,stand
10.517529215358932,-0.010268072837008244,-0.020795253407096898,9.811606454177863,-0.012798340266886487,0.23220576541274018,0.258105114765076,521.69245511976,528.3529601511896,531.7584964994915,stand
10.567612687813021,-0.03935045837248726,-0.017149748522592684,9.80529277852189,-0.00682353085957351,-0.018006257752450988,0.028317900663109546,442.78292582519305,457.94718325032784,493.84530623372575,stand
10.617696160267112,-0.01654870070335905,-0.031072541503545062,9.802308763741852,-0.2045242632778139,-0.012895728124273982,-0.0009765501887334521,557.9656357680767,516.493953994769,562.4889282328711,stand
10.667779632721203,-0.02120415225077974,-0.011079784359785558,9.8455305577006,0.09223838365019058,0.30440720205334487,0.002448368675102987,486.9395180975854,618.5654443006607,501.9852219829457,stand
10.717863105175292,0.0180066993963217,0.003147591804018808,9.838609873920326,-0.010976461732947092,-0.08158180775358845,-0.17902163852367545,491.7482878935164,511.4458658039853,522.9079297703648,stand
10.767946577629383,0.004633460873939774,-0.0007213666279924924,9.783395555911621,0.2153878555848513,0.0021411219692455976,-0.15497182905273796,514.3348798715106,412.64547222448584,514.4145577339882,stand
10.818030050083472,-0.0034097307983871755,0.0009028773055635986,9.790119013730292,-0.5385318917060465,0.5879197826631679,-0.12479426400098403,541.8001921884601,508.174961183402,539.8682575869483,stand
10.868113522537563,0.030545033165261706,-0.06824958525126873,9.803968577777933,-0.2549934391400646,-0.03485140052568117,-0.11055694939863958,530.4277211530567,560.0564655928249,448.25357264307405,stand
10.918196994991654,0.005146810519595993,0.03884984624786602,9.815486253936756,0.2267820020155431,-0.35559773056739136,0.20948755264981983,484.33775975859606,545.957955085514,538.1072322700522,stand
10.968280467445743,0.002591915727497701,-0.007397134601225291,9.779110214806574,-0.28022960710337774,0.2699330129426839,-0.2039889545498483,537.0581085384343,548.5104939968425,446.4370461503652,stand
11.018363939899833,-0.002374254765133893,-0.014959189144568424,9.766714428436465,-0.019040814402996063,-0.1014097553765118,0.032046626496022114,508.75871023502197,467.72414383411467,466.96933711892717,stand
11.068447412353924,0.017030012027307806,-0.06873282779147302,9.835492907249987,-0.1444265150097814,0.23294048203168474,-0.09766481966139312,542.2817178802715,449.22957098922063,496.77687632303315,stand
11.118530884808013,-0.016713463601880335,-0.04777708640003682,9.828257715809658,0.35969566224229593,0.10402826087991499,-0.4391037710847242,455.6172530744639,526.1197824742466,494.12557850214245,stand
11.168614357262104,0.0033748681865746755,0.03146706876987467,9.764071893939384,-0.0017557639347525076,0.06810598871830326,-0.1815186633941307,433.8518452625848,485.4422221007616,528.8319988066226,stand
11.218697829716193,0.004831571335948359,0.008159409372070867,9.807347739481845,-0.21351732852010324,0.004146408051787537,0.20573181912182403,502.3579569074225,512.9786467350302,554.8238879885168,stand
11.268781302170284,-0.008029725971793022,-0.04025372327255858,9.78038327292966,-0.1690203686940996,0.2972661569139619,-0.08767661333716724,516.4615758300116,539.6875307574636,496.33497813465596,stand
11.318864774624375,-0.05990914536426077,0.005130279626588956,9.809792067648,-0.43391732586338705,0.005226898411127402,-0.04340459356844655,494.77703432485646,474.2535807516082,481.28362642364664,stand
11.368948247078464,-0.030430218200413764,0.02791678643016801,9.82989037516153,0.2513469556591546,-0.00895754983714903,-0.5871072514946657,464.0819939524535,465.34762029095816,513.2109598224733,stand
11.419031719532555,0.04699526659412663,0.024701441000941182,9.807768774280254,-0.14364580906892793,0.041197132392738006,-0.02741935746254517,495.7787602022741,517.8040085409973,554.7801438814914,stand
11.469115191986644,0.029696028925179682,0.05871864128513024,9.773756463535335,0.11466195231006593,0.014655827115200123,0.7925226968248287,478.5968210145071,513.9310816005993,464.22847881996745,stand
11.519198664440735,-0.053731085679236144,0.012589409433853449,9.820860808851481,-0.5614349340406535,0.021718813372184013,0.42495543115735984,463.58282173135535,525.1353792271544,500.78340718700497,stand
11.569282136894826,-0.029671573435647462,0.01579738204770134,9.793371023528167,-0.25272389760924074,0.13539239739351785,-0.1290071568419563,561.3035829782818,485.4428611005775,536.8967041922693,stand
11.619365609348915,0.0024421943197227153,-0.012739281488426651,9.759588538708677,0.10825989780449072,0.056729334136097376,-0.1311313125240125,488.428724065945,571.3574438708026,513.6972750921918,stand
11.669449081803005,-0.05119126443681962,-0.03396263633839221,9.77822726056381,-0.5319553739325834,0.04324385377053582,-0.429427895638759,533.9826845285821,576.8197152845931,523.5395072783612,stand
11.719532554257096,-0.03329102518339697,-0.018854005159372647,9.819666727181138,0.02533876570445408,0.5485461953054815,0.06743591049926281,509.2265179610464,538.9369090594646,564.0599586423856,stand
11.769616026711185,-0.025881041952348333,0.03044827604809288,9.80421835862122,0.291036015155401,-0.23382015107713144,0.040098937834954905,545.6900381407496,564.9181453968167,407.11340539309344,stand
11.819699499165276,0.019337577479086654,0.060177091161951864,9.788284365121374,0.15235191145481802,-0.1315788880371754,0.21880355814544133,508.8998908515414,496.67319161650556,538.6008138582521,stand
11.869782971619365,0.004760427254618865,0.0056703425294383075,9.862879263865858,0.021747525892097448,-0.28519458580592216,-0.1255441207419177,486.0229237084217,532.0929336299515,502.23928947961423,stand
11.919866444073456,0.009741124596514217,-0.016572363902947876,9.808098772816408,-0.0947126017291487,-0.2940152377461471,0.2437272302756451,437.7018668474448,481.2151321517167,502.1456317425403,stand
11.969949916527547,0.034546721988610904,-0.03872941562936656,9.782246037348415,0.06764261818686167,0.0040223985220171725,-0.30519353158432166,477.222537158861,516.6146091503003,467.54115736723566,stand
12.020033388981636,0.0129921730164511,-0.01568015857655164,9.790761243055456,-0.07662686690734012,-0.14952013374352535,-0.16577115956003083,474.96022673858863,475.7403689284405,485.89350038285227,stand
12.070116861435727,-0.019844564033635978,0.01511772748480826,9.787582464340767,0.15079666088243499,0.2519423892077139,0.22337170243894403,540.9838439777411,549.4631322735112,494.44798952552287,stand
12.120200333889816,0.021369599904623462,0.013480293789073373,9.819859697264153,0.08657935901573667,-0.4047541691534621,-0.03157351710395631,482.8800507510468,470.9791306649258,520.3405164091389,stand
12.170283806343907,-0.02404338375924267,0.005521230846850848,9.776964039736866,-0.2185787118175847,-0.15487401435880835,0.14778406374821465,450.7883264731481,454.605348984162,481.38056475075473,stand
12.220367278797998,-0.06421726185212703,-0.011708173856148807,9.824562204703085,-0.270899135794297,-0.053750827637773,-0.3850299233217539,528.3254489589283,469.5439996961411,515.0639185979694,stand
12.270450751252087,0.02842457921010047,0.061343048910096364,9.782046144248797,0.4871497140387616,-0.11514794245459903,0.4362232761292594,557.1343504682097,495.14423144843806,463.31019781906565,stand
12.320534223706177,-0.020146836623474954,-0.03564275517831256,9.850568729012972,0.2044996015584678,-0.05733828819013546,0.21424846862994928,497.5199348865599,552.4039217597989,552.3048213288598,stand
12.370617696160267,-0.0015652085324103365,0.05624992886647681,9.820445963748742,-0.10680561258235227,-0.2311996871341559,-0.15876378410020142,429.8800214710391,544.1340423433797,506.5780218371786,stand
12.420701168614357,-0.014612787855312726,-0.032704667072274374,9.793029110603417,0.19482759173760658,0.26160137900029745,0.42202922938600096,451.4353154529828,465.5011889870403,456.3980480698102,stand
12.470784641068448,-0.003349989056024988,-0.007815874774497591,9.817279239245309,0.28423692408702267,0.21776478619321846,-0.20350733208629193,412.6160872116457,428.52019721208114,451.9687563371585,stand
12.520868113522537,-0.037655330985859846,-0.06542298812986724,9.800314694758745,0.06534636775205951,0.2556276511637867,0.1326728082948881,463.6078412654017,568.6660172635331,479.3189754431946,stand
12.570951585976628,0.020072557303957142,0.013130432996454458,9.763331477165103,-0.296517233285031,-0.04571183391070441,-0.010988728874413234,536.7165869691403,534.8198225202082,435.84068477385847,stand
12.621035058430719,-0.006247103374621837,0.0250780706130994,9.803772505930713,-0.24340636368350568,0.44723322166209034,0.00017626441707374347,452.60128280105056,500.26444487411356,499.53872439860305,stand
12.671118530884808,0.011809933278137716,0.01836218358860467,9.762225946287368,-0.3187577761351519,0.13234763460780172,0.15744909690355155,486.5976224656021,522.3907492432568,519.3629372429042,stand
12.721202003338899,-0.010655544392242408,0.04187249375908197,9.775404885318821,0.14030405299379217,0.24719257638777617,-0.20233789035138075,515.9742979693798,482.59624298061595,508.3680051557869,stand
12.771285475792988,0.018921605926972368,-0.031401968020764115,9.802783971324017,0.31073150744321254,-0.18682611998595772,-0.4613250665094234,497.53274512772447,431.1240281974421,514.3029549191668,stand
12.821368948247079,-0.00792256059654338,-0.018581159740925307,9.836709152496026,-0.20593364108761014,0.5340908497650034,-0.3447169886449971,492.61155742515353,490.52351031744604,451.61185032601577,stand
12.87145242070117,-0.00995591513762864,0.04226271729828289,9.843693567279287,0.3580158959493787,-0.2548367628819355,-0.6213725582118788,555.7102591784609,576.2057439671548,477.42066745690516,stand
12.921535893155259,-0.02540738676841181,-0.03608221038574705,9.838394102446822,0.692805271223939,-0.15389115554572486,-0.13866945539887732,454.86648297962046,511.6867215917133,521.4390067368482,stand
12.97161936560935,-0.025192281483709375,-0.0028526774067246102,9.77168080636682,-0.17424388242069608,-0.1801839685913212,-0.016282781805832446,457.71578373309416,501.4117732867802,539.0824318595346,stand
13.021702838063439,-0.004968321742508192,-0.0025216846324283976,9.791830705666989,0.26932817356902716,-0.38855017150721993,0.31828800815951935,488.48903576662667,543.0023924044474,509.7503599434124,stand
13.07178631051753,-0.030269101131712772,0.04120598590508863,9.83896952782516,-0.3355848107320949,0.07359128650053508,-0.06274405649253295,470.3871036910857,475.703487619154,551.3013752324049,stand
13.12186978297162,0.05532266403434226,0.046950837892185356,9.821332678638402,-0.019393195796505985,0.35452799529302637,-0.3931202006345477,519.0796522547826,566.165271118242,481.4413489372807,stand
13.17195325542571,0.021615955463526945,0.047145128492725355,9.835491792177214,0.10787733954365238,-0.18742987068342976,-0.11539286450885623,504.21030783668596,542.4172690635095,493.0831105206782,stand
13.2220367278798,-0.014086823080506225,-0.015431115504187493,9.752648644530414,-0.037968856948945744,-0.11197307386502656,-0.03519326562808277,455.83719143933706,446.0343286665998,503.0636513903984,stand
13.272120200333891,-0.038891717948819356,-0.021686618085769688,9.825984542980214,0.10424967085969881,-0.2536905731352169,0.39896435379632,538.0294341575739,501.00227390188667,540.5166615974131,stand
13.32220367278798,-0.011369785275028951,-0.03107958354483134,9.795151305606485,-0.37813101564602075,0.10981754932139039,0.009566662070623429,550.4187795331184,504.21279328981734,518.5957909087496,stand
13.37228714524207,-0.052643511135274865,0.06258876621897648,9.761028782570031,-0.18250810982201834,0.0629792410860973,-0.1665431911593267,495.5080062366023,492.82585719013866,563.5872271051617,stand
13.42237061769616,0.028372516256063615,0.035135260976342016,9.830718939913492,0.24503241851875956,-0.20182256324558456,0.27294140180163906,555.9747183105414,507.6553325315976,499.7638368048136,stand
13.47245409015025,0.018259239866204285,0.0387208450868011,9.813387804207501,-0.1326207235070995,-0.015870599853261076,-0.11489658100957896,528.706984155603,487.85896153964103,423.16495025344534,stand
13.522537562604342,0.0007588161681341271,0.015081787500550281,9.865886575232368,0.24128689126045774,-0.48224680120027497,-0.12314810370068972,428.74399978578225,527.1714207499575,518.6509427074711,stand
13.57262103505843,0.016553378956378803,-0.01812459112254082,9.807912691892398,-0.1309894034173506,-0.06614436362220248,0.3171280703317954,512.333543825554,528.3704302663999,488.0712776893375,stand
13.622704507512521,0.0008687299152097122,-0.008673646154336453,9.809954286690132,0.11294352623149671,0.2585089280530674,-0.1838891942453194,533.1989948347108,541.2698365391652,515.1195828206779,stand
13.67278797996661,-0.049774807656496695,0.012035199660801132,9.861439812884516,-0.24729961767955466,0.18715399544885475,-0.09174749677763906,480.3326502839519,519.9080661873703,525.2145734391166,stand
13.722871452420701,-0.0063911840593388475,-0.03210717066228505,9.794674942734803,-0.16807341144640436,-0.11565910448063813,0.1667397043009337,490.68625678844796,440.2829309730944,522.1869028718515,stand
13.772954924874792,-0.007611730182831386,-0.029992829151646958,9.779458542406738,0.1033266775943473,-0.4400221964272191,0.1710727528455787,519.9943140402528,522.2109452697144,436.36685448785437,stand
13.823038397328881,0.01516579974919062,0.0058556915506657245,9.763628563124222,0.02542663389477176,-0.3172041844095165,-0.26126423185778935,452.23057074703473,410.78247542598535,460.24117135756177,stand
13.873121869782972,0.024332362066019977,0.015980745050151075,9.762751360580108,-0.20804847779094657,-0.11481189044194244,-0.07847495497504244,539.494099023988,521.200428916336,395.75151308107996,stand
13.923205342237061,0.002331874640992729,-0.0008483282404652265,9.804454287318276,-0.24898120610465801,-0.13792421268034746,-0.21386694475818763,509.58742202731514,487.05918547694966,494.3448408539786,stand
13.973288814691152,0.01577372381689872,0.023287320386221604,9.788748689791959,0.08717886224031851,0.060275841753181854,-0.0004659199982678564,551.826020433868,549.896288654164,572.5013205714771,stand
14.023372287145243,-0.006010376151478078,0.010647565505556233,9.804408665496519,0.41926797734839066,0.34004560282047996,-0.09879432484585032,480.1473566785843,498.95761469725215,425.1920965883285,stand
14.073455759599332,-0.003282967300116471,0.02144301466226596,9.80954277405761,0.3760817239809612,-0.29882614726079354,-0.04941330735510286,512.2655739303193,589.2632545102404,506.3060157534396,stand
14.123539232053423,-0.02855797395655956,0.021441421326229552,9.81295204742423,-0.09540320431804995,-0.07170600198707253,0.0013444781398118302,524.9148979626668,542.8865833365039,497.67903979957754,stand
14.173622704507514,0.015232089840917132,-0.04690086701043082,9.699150531491497,0.140218012026775,-0.44078492673201375,0.13997364534994394,498.44566101823136,578.5070656494353,590.705464331432,stand
14.223706176961603,0.014477237139253016,0.028559565249872937,9.820440081691544,0.13450853598459608,-0.04686346669410875,0.43772867690583084,506.77671361364355,527.5672648331257,563.663360150582,stand
14.273789649415694,0.041064208838432356,0.022685891991296468,9.773682258882982,0.08792363072243235,-0.15290030240267474,-0.009143774774269647,478.7181095115733,522.7856323105693,573.3677965153123,stand
14.323873121869783,-0.06006785475980528,-0.020363626167668403,9.744815709283193,-0.04582521389180257,-0.07526693142180393,0.26579190866421665,458.99879581761917,548.4860764864397,506.4759297947233,stand
14.373956594323873,0.008363641008347661,0.005086850747350602,9.779236126055933,0.024761466007179714,0.08063138719638535,0.10627386573115628,453.53797873913084,476.81325788421947,537.7405195876662,stand
14.424040066777964,-0.003683170979415673,-0.012790200845108457,9.837845330345523,-0.07027698743136473,0.29235264599970995,-0.355300496699435,443.8938869905639,407.67883786456935,563.1591719047703,stand
14.474123539232053,0.035884747161891425,0.005350802364615034,9.810005400353079,0.5450178110419874,-0.09228720027912245,-0.08731329814157485,512.0137412808822,582.6719893872419,505.4961820009234,stand
14.524207011686144,-0.005162361772184973,-0.021494972230018478,9.797414318433413,0.7555159213977066,0.17800423086372003,-0.08558148287720577,501.03466273708295,601.5785513204914,502.58774398767974,stand
14.574290484140233,0.021407102146210055,-0.03071408368401407,9.811150600668046,-0.01745352723494219,-0.13510110691609103,-0.3734834815901019,516.7487680230018,441.1841609339056,484.8499123924211,stand
14.624373956594324,-0.021115900011896775,0.001936196500306707,9.830370966534867,0.36010272120132425,-0.06002326671040151,-0.47674618377070427,435.74720742547754,524.7276971726435,481.82991394917946,stand
14.674457429048415,-0.027268804666025354,0.02915066939766937,9.803303589390845,-0.140879440136921,0.4903885731639175,-0.29846035851620717,458.661355858435,521.8293818153306,503.89590549836305,stand
14.724540901502504,-0.01763536110290434,0.03199731722307165,9.796140682060244,0.16001818661889686,0.00034305662395123395,0.3421889682586917,542.5171539850255,504.78798066755974,474.73464130304586,stand
14.774624373956595,-0.053725004115769116,-0.010628927648446834,9.777868075307993,-0.06451029697812796,-0.07712922518732052,0.16252159102119174,538.4397461409908,520.952731657771,463.2743608773385,stand
14.824707846410686,-0.0050694416210215615,-0.03271457207669892,9.816443912542587,0.1292461345907156,0.13743277843914398,0.07714428989731689,556.187463355357,520.4586999637257,543.8309810750939,stand
14.874791318864775,0.03258883368041686,-0.011904042358530556,9.822325514029593,-0.23856449773054153,-0.06576847622297176,-0.24822674596422195,429.8213399697716,502.37739116326395,492.0977886083292,stand
14.924874791318866,0.027392955880125205,0.003721987588366754,9.798788063827114,0.03027207291263062,0.26272632895553294,0.16266350656479114,503.6697268554175,476.57745880345306,450.8286932954895,stand
14.974958263772955,0.024503124989011124,0.07787556250192984,9.826590671826605,-0.14035100668569586,-0.014527425768301358,0.08834426009423987,538.4371142201468,473.1063349581998,509.5316093294155,stand
15.025041736227045,-0.07788586926259893,-0.01035456896014611,9.777832823614485,-0.4110372811224701,0.21533018803479895,-0.48685791734272743,466.8147778335391,475.4139322790581,528.2271349136633,stand
15.075125208681136,-0.04064960139662679,-0.05161719856338398,9.794735708603506,-0.017563090263102897,0.43272951365385504,0.09494236604831631,543.023605007422,499.94226052471186,540.5303450156699,stand
15.125208681135225,-0.035752483505218924,0.0006421697001770879,9.794983592368789,0.7281956714473133,-0.4523864791170456,-0.032999948597567025,572.5930907973868,541.7152576055424,536.0342264943546,stand
15.175292153589316,0.06617842536470621,-0.0758684871894583,9.785501913492254,-0.3754582440862984,0.010751375816141467,-0.01985203376470346,557.767303392991,548.0218368541815,475.23898941101623,stand
15.225375626043405,-0.02819220767393446,-0.03047868753351307,9.777818675607275,-0.12766829371509544,0.37138645130750303,-0.18129328115984297,499.7862320521395,502.6913631327195,424.570923619033,stand
15.275459098497496,-0.018530345018623648,0.02151922277233849,9.805288242082694,-0.09176923313299315,-0.22047698445254257,0.269493414352196,447.5865872990898,455.38951955004,521.0014319481514,stand
15.325542570951587,-0.004256470451165964,-0.015093141670749238,9.821320343355628,-0.03855880778766918,0.2480529265577902,0.10449243415690529,511.1406562326512,573.1906633240749,476.0090855650234,stand
15.375626043405676,0.04417463340308515,0.02156640528254379,9.841585597991262,0.07943842168837272,-0.23238975963544217,-0.10096589394836519,422.10293331986776,459.6662016555616,513.9617301303101,stand
15.425709515859767,-0.033010683372328486,0.02581488239848409,9.777185109908531,-0.3140303848244473,0.06481783115508148,-0.07385687761166723,433.753501101505,472.8364840446678,550.5446307404462,stand
15.475792988313858,0.04264771960686427,-0.021977689356604962,9.825208960437784,-0.23701537884930304,-0.1084017399063648,-0.3129882859102633,508.92756993235383,447.84047471119294,499.4718095156953,stand
15.525876460767947,0.02455265630407623,0.0030036872015297353,9.821001958753929,0.08150619575528431,0.5382558426463386,-0.023081038918261427,580.7410553139731,479.2060650404898,496.55772628524085,stand
15.575959933222038,0.01217944530029684,-0.035093129819696395,9.807567382757526,-0.12446958991832738,0.4824387553041449,-0.044494963628365435,501.7476016684537,434.855723172622,522.4544566979275,stand
15.626043405676127,0.004773182341089546,0.020327947398268653,9.801723625931746,-0.4905235794179665,-0.33662495987047975,-0.037025670130594504,521.8923250243712,512.1017018706466,490.50622497576006,stand
15.676126878130217,-0.0030511051408934203,0.026975845904666215,9.794787362527071,-0.2538172847186166,-0.6333266362112988,0.27918573037536054,569.0493947011403,485.8202544569105,464.553776526146,stand
15.726210350584308,-0.07134161594123378,-0.044926024167531386,9.818121789312514,0.19301974519141585,-0.0358602464348258,0.01818431238219278,483.5614007342132,480.3698445235317,450.0281219412653,stand
15.776293823038397,0.004994048970939677,-0.0329735756409521,9.790679734508839,-0.25773398641053236,-0.0405135271534421,-0.06578014611117551,469.18240312647185,510.8730561809353,535.0238238684382,stand
15.826377295492488,0.01464749412142817,0.019541490501672615,9.793735124578403,0.07767286661696862,-0.2261798277738941,0.3884762898447166,511.873181293339,517.5114594573761,461.0893525974822,stand
15.876460767946577,0.011048835734826845,-0.012221195415722627,9.800922802619013,0.07265363006698872,0.09438999523226276,-0.09276530445717328,492.90119218890067,515.8803123677371,485.63079878319246,stand
15.926544240400668,-0.04305931632758475,-0.048957189240756455,9.79854201075758,-0.16230795552295518,-0.2195107086370068,-0.010946462553603972,501.6275521845504,456.2705244489576,474.9117905891975,stand
15.976627712854759,0.03185268538644119,0.014670920126241924,9.77581985332862,-0.3835706407265478,0.24457094832493345,-0.5665319471938829,489.567843497014,473.74684720869584,492.43427935299104,stand
16.026711185308848,-0.056921010464219414,0.03931890183996586,9.797252227737884,-0.05164668839402166,0.5216960069674299,-0.2874147661129788,529.0853604415165,488.21306561077415,453.98677354984113,stand
16.07679465776294,0.027800883724689043,-0.020688750466467412,9.805699206033088,0.18995018186213897,-0.43304290545710494,0.03981624547152874,494.83722197556204,494.8408845955479,486.53082823166034,stand
16.12687813021703,0.0494266938496931,-0.02256287878704831,9.77154571278691,-0.19310936012065658,-0.3050264186983158,-0.12233859392120496,477.3060062681815,473.7036407262573,477.8832399185486,stand
16.17696160267112,0.0384371610459842,-0.02104208203557259,9.785298883293095,-0.3016061712935293,-0.3226651465158871,-0.054815090753929686,497.2706298502342,432.3728821596194,498.4286449587125,stand
16.227045075125208,-0.061743530554043136,-0.03246259603389609,9.80223486925265,0.17043414114293026,0.010384337065046857,0.3199874227541257,515.8964815631199,549.5034158579172,466.6869457946608,stand
16.2771285475793,0.004348518415890665,0.005281459531648956,9.768422578474285,-0.05997263384058431,-0.23282839351975312,0.12096561709561,540.1266354350934,558.2711226114774,506.47478941670533,stand
16.32721202003339,-0.020844829399944323,0.0017463959993662542,9.75475947162314,-0.35720102333978754,0.08660723663904923,0.032776510651220774,554.3185280772155,527.3058848775484,548.727484132321,stand
16.37729549248748,0.058355970509393465,-0.023277519204668515,9.804764792569616,-0.01016972435928981,-0.2251924462657436,-0.11553015136305496,493.9331102864051,441.3416240607137,500.4009153426633,stand
16.42737896494157,-0.006408251722987771,0.012157343852725926,9.81206160692382,0.12248794322840648,0.5152376844366516,0.46630280054237805,553.9306262751979,524.6568834987552,532.6429328716367,stand
16.47746243739566,0.044909787572446944,0.007892476362493947,9.718559194181891,0.03977963004702627,0.27973087682344716,-0.0038442511214753367,395.65638395319843,506.4537930928041,473.31793397796497,stand
16.52754590984975,-0.009568184373770855,0.013494532416723957,9.778838548507943,0.023810656510371803,0.05940538227699415,0.35812861718614913,516.92459566967,544.5538649260134,468.36341929484973,stand
16.57762938230384,0.016140690577938765,0.051536874376551786,9.737158567051539,0.08613637154316708,-0.1815607835135972,0.058616260918814056,544.6485806494658,497.26058645617746,532.4895756991858,stand
16.62771285475793,-0.011933168511388093,0.021961649372230677,9.773073706685848,0.031956159373189984,0.18624811869192565,-0.20423774830302857,462.7964257350479,470.14795272541295,453.28055936712286,stand
16.67779632721202,0.0490033078968843,0.007475788190924801,9.801521080884173,-0.49243610840901325,0.3559955445574473,0.011800481968414224,524.9768481650551,461.3151192138719,493.53395932400485,stand
16.72787979966611,0.003914119735235672,0.004235966605161734,9.860199567802532,-0.2118848918286523,-0.28137374073202914,-0.3249065572582793,428.24912644272854,529.9445784243837,458.71294655267656,stand
16.7779632721202,0.016090894127282818,-0.057730144559897334,9.779594493904787,-0.22288295974432948,-0.02010209629299652,0.15190966082562674,462.4911735322535,474.0594852497787,491.07321471305363,stand
16.82804674457429,0.05563707699428318,0.01812569113783652,9.795995716616789,-0.731452790122331,-0.1622491018821531,-0.3469481529475915,545.7681555164169,479.0333285136216,494.2890144651301,stand
16.87813021702838,-0.011231812036682623,0.016803611568616643,9.77343102794527,0.054936074036313634,-0.22513024068972531,-0.35351234735740256,557.9872291127596,560.1955853495446,494.9560534798777,stand
16.928213689482472,-0.016540188267041192,-0.00989190756811871,9.826918265551575,-0.3475042133986658,-0.02587727277580766,-0.160722368466632,507.91801898989456,517.507381322836,539.4036408486281,stand
16.97829716193656,0.010802336811527813,-0.029122678597036447,9.810192254288324,0.04319004959807333,-0.024028438371743347,-0.024301627853806563,488.1154871155049,577.4382334368725,530.1465518016308,stand
17.02838063439065,0.0015905767813832739,0.01817869865674028,9.798282017673278,0.07402554387336971,-0.06464610604673686,0.2854568014259524,464.5547708135416,502.2625291279035,517.4467551528759,stand
17.07846410684474,-0.03839069922905602,-0.013771513341047356,9.832276809075077,0.03702165387199325,-0.26485241813919863,-0.3690228289373759,503.4652581976442,426.3521348085007,509.3878540136808,stand
17.128547579298832,0.04044424329552136,0.01569853710048308,9.83594237975882,-0.029085660984689676,0.15653386172040842,0.10236672351268085,414.1576537219686,507.6086544349867,505.56082740681427,stand
17.178631051752923,0.01426066180429185,-0.024891959335755165,9.798040866968593,0.026980786710936053,0.1637096755402101,0.17232800925305417,506.68034680085333,457.2151477628271,470.0486984730092,stand
17.22871452420701,0.03196218918077684,0.015287857593379452,9.79701918889005,0.302258465901369,0.2527173227132288,0.3527924745142441,511.0581067782631,502.02774483760254,580.838002497458,stand
17.2787979966611,0.003211090244342754,0.051379481236693794,9.80985752643189,0.42963277802870325,0.0017339074912692907,-0.22767934072155468,566.3011395020329,464.17014637716517,509.5233849987333,stand
17.328881469115192,-0.009389103262354065,-0.03263964038516551,9.82379319545115,-0.18151005405948312,0.04567416393349542,0.1468907245824066,490.8321134299255,448.74006708453487,543.9652628126785,stand
17.378964941569283,0.027753723598336874,-0.009855253550541329,9.739649078730507,0.34629659549366015,-0.16519044749146758,-0.015160045098323065,443.19468644065324,466.9797477645419,508.69221336674855,stand
17.429048414023374,0.06240256071774304,-0.04233582658958439,9.774573286951647,-0.15488112641183815,-0.041364917131274694,0.1781615410811483,485.9486096786104,525.9953230478745,583.5167045927326,stand
17.479131886477465,0.02013354615721752,0.01255104176406701,9.832953812286778,0.03162258533361974,0.2997507834391318,-0.20172408156221205,532.5524944434491,540.2868318115069,512.8036965572209,stand
17.529215358931552,0.0014307207812712386,0.034279350667959986,9.796723174339062,-0.4909549939449749,0.11992015191189385,-0.07215350423164602,524.7771076273557,451.66835927061163,508.4231419962376,stand
17.579298831385643,0.003819535628387133,0.011847431446105103,9.844113377457967,0.12961370027528746,0.03471379667942212,0.2929425666944104,572.8914662240076,473.73407317322756,493.8696341291385,stand
17.629382303839733,0.01769011579597321,0.000125949697018235,9.778231399669952,-0.09681101532813502,0.18625130575021992,0.39391888833100946,517.8730840279502,520.771358521783,545.1314767459849,stand
17.679465776293824,-0.018112849662118374,-0.024621245503988837,9.784743298624486,-0.19505366688894807,0.020786057644771788,0.1407288155744847,420.83776937192016,499.93141572224874,507.23370522771506,stand
17.729549248747915,-0.009427587611038582,0.02751373441114744,9.754869267201288,0.25932814145827593,-0.20798208717903438,0.17810322642553603,502.640451111063,497.8280012797777,422.68278825789594,stand
17.779632721202002,-0.023931179813352535,0.009885953487261866,9.823897467229594,0.0624474481549123,-0.31928300856560793,-0.37958141257045785,531.2378966965658,480.6919368317615,482.28057144595607,stand
17.829716193656093,0.0017885228962270933,-0.00848291033552033,9.813521737009339,0.0015313840848758637,0.16527504945527607,0.23274003428472037,481.56570582755484,549.2944228296648,473.08279010415146,stand
17.879799666110184,-0.03527655463562222,-0.024680994284704383,9.764050277839491,-0.23416972767180047,0.04679981251601649,0.0015594939428860094,532.3100530900285,514.7280911615104,468.99493753670487,stand
17.929883138564275,1.571299526416381e-05,-0.009052458491323898,9.792948679232438,-0.2807708811528604,0.28350731104685567,-0.07098210399382489,523.0931541651455,528.7786530861202,485.93613026489135,stand
17.979966611018366,0.02169534048385101,0.006638616081432909,9.815665247171363,-0.39042659051040624,-0.04923022164431766,-0.13106527380167782,495.9217748613092,409.220470426704,483.05764195255404,stand
18.030050083472453,-0.018603985086834945,-0.032410863493357756,9.774067849701408,-0.17139304799320595,0.3272782944114181,0.03340601564012334,463.3373932237512,523.6853530015815,482.29868969016184,stand
18.080133555926544,0.0014376932239503065,0.03879968718079087,9.79900788024599,0.3598518929584976,-0.3259846544685614,-0.20470375049738565,433.6816247424983,491.09762851826946,481.0854311328834,stand
18.130217028380635,-0.0157172752861289,-0.024633113693650482,9.80219681340548,-0.33172233660773626,-0.12398654731906777,0.0538305811281822,506.32193261606517,458.22689703250285,523.1587754592452,stand
18.180300500834726,-0.02240835269574319,0.010857388128776763,9.807318277342567,0.24119103329950256,0.2847716937296709,0.007097361477263096,559.3308707104786,459.1976527515745,479.19548000906894,stand
18.230383973288816,-0.007918926586111,-0.0015606415219280231,9.79562682028136,-0.03749068672168908,-0.20202947669520716,0.20953150209471572,507.0573221171118,532.663493910188,490.68076329669094,stand
18.280467445742904,-0.040318668943250265,0.04325201660739332,9.756672631635656,0.2536116031279748,0.06861545213377607,0.13902328470272665,463.9561162188204,520.2667427868711,504.20793301075133,stand
18.330550918196995,0.014549133828872851,0.028938557941253547,9.760700590133865,-0.3506474103404613,0.32021583995435077,-0.10127916366607784,439.2394084016961,452.8787652302419,419.10313061997954,stand
18.380634390651085,0.011225546991171953,-0.024466557844246895,9.77059209711772,-0.15033265442860522,0.1259287700188799,-0.11982828188266798,408.1406267025881,496.8558257517785,523.8297117641869,stand
18.430717863105176,-0.031599064791814846,0.019135901940643463,9.811845908648001,-0.31832031936296085,0.042064141165927264,0.06139790793751222,543.1628902887911,510.814186266499,527.9774403081209,stand
18.480801335559267,-0.03915478823128769,-0.029217856591283606,9.783432544126534,-0.21268398937489372,-0.1022929593806759,0.155999819760686,431.43786854211476,483.2103855757839,510.62318055515743,stand
18.530884808013354,-0.029603507556734916,0.0017383275639134416,9.80935985530119,-0.1835426864321108,0.3916335698274112,-0.29033532405571333,530.9178956806533,528.1451925019534,500.6470379113618,stand
18.580968280467445,0.06050266990688301,-0.009842229123759288,9.83440957293409,0.1730364297923969,0.3992114948437583,0.17762455960569104,575.5677011006517,499.21117111930664,481.6917539890696,stand
18.631051752921536,-0.003419022635129901,0.05064684471658867,9.821524802947764,0.48330330529789856,-0.04420268768874614,0.22245972943381165,467.0194305148577,462.38803459619186,512.5291643730598,stand
18.681135225375627,-0.054872413875861996,0.004072138727893013,9.769206253586436,0.23239194256135112,-0.19769524092549304,-0.09018704406617802,604.7547175167432,528.2726520400605,488.15676808414537,stand
18.731218697829718,0.046518274470947904,-0.05178286771645446,9.760944635147093,0.3264960587925879,-0.04960443587382236,0.3917328516391742,523.437435552057,566.1999818429376,518.0401922423339,stand
18.781302170283805,-0.020972003559914847,-0.03489186550966991,9.85179467005304,0.37311444400093235,0.2136731927460908,-0.05516307733240872,490.4128811116704,527.4120914386115,578.5132234835976,stand
18.831385642737896,-0.01674163905175112,-0.028465162600100777,9.816266079543118,-0.2030962381249577,0.021376295467326143,-0.30249622077185584,467.31663822813687,478.93080833464177,529.1634568725174,stand
18.881469115191987,-0.005231658499502509,0.019002790410133294,9.817438766329687,0.21895499070579538,-0.31509107607416376,-0.16764965229908077,439.58142508218225,500.22858234429737,433.2462125420791,stand
18.931552587646078,-0.043556182711168435,0.030322398559453765,9.770280902183982,-0.44955271101758115,0.001952978796252511,0.7325235289682753,441.3986313679781,501.98551087299006,528.2063012173219,stand
18.98163606010017,-0.0001481004869686997,-0.008259771969006208,9.770254271138484,-0.10695978543733571,-0.6600918083226844,0.17600569779776168,524.469990161464,471.2393975015899,468.1339318619657,stand
19.03171953255426,-0.017774176665518504,0.010517567509240551,9.75295084108315,0.3138465752485141,0.27618088005093305,-0.3039622576418441,470.42379383707225,445.93284959623895,475.2469800333977,stand
19.081803005008346,-0.00038358560479222203,0.0204963083816887,9.799723270404737,0.2792683099265359,0.2339890487257562,0.37238160712563234,493.5699621171389,515.8001295745004,468.11829232102366,stand
19.131886477462437,-0.018447246891918484,-0.0031917953766146534,9.760442171791139,0.10658915710541526,-0.2235737890115203,-0.08752560770624608,542.679093933961,481.9216070403321,506.8647125967954,stand
19.181969949916528,-0.03044358984397258,-0.033572501224053086,9.81109698993461,-0.06504545687577831,-0.14291960222018843,0.1765208445368371,471.8378859990438,494.18532553057173,553.8320299566685,stand
19.23205342237062,0.020944235455511537,0.010094757831116144,9.826337518099455,-0.23930982874591372,-0.3230985234614195,0.006271342459223043,500.74123438836085,530.0564761878887,491.5482715486142,stand
19.28213689482471,0.021337052119265537,0.019201851575185516,9.824003836776058,0.10240125660356927,0.3268137218879278,-0.3086376502939312,526.052756652348,419.79501106208454,484.7507989746044,stand
19.332220367278797,0.010195064472529033,-0.03282052490749973,9.800291372229673,0.007521522535767364,0.2717134141252401,-0.3090423657159497,461.42672774034935,492.13030764512854,557.4802888350938,stand
19.382303839732888,-0.00504999945591976,-0.011945050340923385,9.771232645686739,-0.42138311220280367,-0.07201085733904292,0.11555146338078948,491.07758237827977,537.7287468346217,462.32565015601836,stand
19.43238731218698,-0.006326851050998575,0.04676733002727716,9.765080200378238,0.21213507984494204,-0.457331248172861,0.4576420734765562,431.7947804518372,477.3316069106709,508.81774874523285,stand
19.48247078464107,0.007554489986388996,-0.04146757269622406,9.810176032233752,-0.30760852035669034,-0.12635064867573956,0.018413634961603087,459.61911935764545,519.7790452260434,484.3874199028306,stand
19.53255425709516,-0.03182848286123304,0.04737793856438862,9.788073325592467,-0.06673189746717358,0.03948607139114428,-0.18733550461166912,525.5190010087441,430.95993405013417,468.48294941572294,stand
19.582637729549248,0.031265194299801555,-0.02029611767971487,9.829921822023683,-0.08240140530181235,0.4289230561584877,-0.3765896707878435,558.6384985788452,529.198440645769,514.9996626684514,stand
19.63272120200334,0.05361016771430312,-0.0004827488020801157,9.804388095682501,0.5112795554033392,-0.08910729015051629,0.16311471702739436,539.1766567269406,464.8561518396583,516.3526829836762,stand
19.68280467445743,0.0024857432719678635,0.02916559208295825,9.800766172225845,-0.15444707810122224,-0.17499788936284355,0.02781077638582499,524.5911619374276,476.899234309734,523.1040283023044,stand
19.73288814691152,-0.007786707221555153,-0.014609420297272552,9.82414788330096,-0.1633652925039116,-0.13547424385114748,0.02849409042838477,478.10449171110935,514.9913899659955,458.7291962995179,stand
19.78297161936561,-0.0317721105568956,-0.026121621309369444,9.840959746563279,0.10228571413596259,0.17944604479728196,-0.17331085372531918,560.0228759167053,535.3337386230927,484.85970550930233,stand
19.8330550918197,-0.03334452941757711,-0.038256337992156164,9.84115321239911,0.2594881512887868,-0.09465003238975374,-0.07053436993399555,484.83736246171276,515.7541137121395,477.6827382154671,stand
19.88313856427379,-0.03236122942812574,-0.03126444325099133,9.759568890714721,-0.40170835867312205,-0.2163451318138509,-0.14049148895826388,482.4706373305364,552.7262334305647,502.6799185778489,stand
19.93322203672788,0.00115470569431389,-0.03284427880464183,9.774606769221636,-0.18304472324138643,-0.0191060718743984,-0.03251779004209919,488.3978497362754,409.7476769766167,513.3379912373025,stand
19.98330550918197,0.0018146865919719535,-0.02969650629619297,9.79562095275633,-0.018925672929617627,-0.2069752020277206,0.057404939056998165,523.7994664390601,528.7013260685912,503.3874635210543,stand
20.03338898163606,-0.012412309119391798,-0.02554238424580467,9.79645262705931,0.11612030340191837,0.11604843075625405,0.00018339878362835552,481.4245117616833,515.8208444671527,548.331243875617,stand
20.08347245409015,-0.011587285383908102,0.0018636404204567386,9.795748026448072,0.0684000559335935,-0.3144571615246759,0.11607237779356715,499.4030472447409,446.08285088811493,470.3134158644204,stand
20.13355592654424,-0.022339594004078506,-0.013621252441624626,9.789748488038716,-0.18337787888528226,-0.42126072497827605,0.12189191694834522,482.7373649492252,525.4464238338679,451.83560638891146,stand
20.18363939899833,0.017076055248368138,0.007224900808148159,9.819490382185068,-0.04373544735031128,-0.09507701019390002,-0.18568665864550563,552.2048706701466,519.5224611774806,478.28848736329667,stand
20.23372287145242,0.0035907517824386864,0.03559210989934512,9.785979502201766,0.05078235957390909,-0.1506208253790343,0.05384058976369542,528.8371054810273,480.5588671335771,455.44553843404844,stand
20.283806343906512,-0.031973220115097664,-0.0038264790229741164,9.808621144231283,-0.49363231022051357,0.31266676495624074,-0.12224045145481406,466.13784721081055,538.0776468870615,490.29995855229265,stand
20.3338898163606,-0.03920931314620574,-0.019442933652306718,9.7814484703125,-0.17604372428073625,-0.12585222056823403,-0.14661203920376706,585.1223567725185,437.8052291285561,473.3137642256683,stand
20.38397328881469,-0.022901047637465914,-0.03760140667686855,9.799229419859648,0.03949693287363434,0.44081126258973763,0.22980315153171216,531.1476188715463,507.55242534283514,484.63211664227634,stand
20.43405676126878,0.02781355222091543,0.019060090757354986,9.848743540696889,0.15386074145616074,0.14476615654101496,-0.24448679739814008,488.6117220307569,516.1856288110235,598.9412676689133,stand
20.484140233722872,-0.038329777739910316,0.029986747989489457,9.763929846682986,0.28826264624781256,-0.22208269470102984,-0.12162036145057915,564.5335419673881,422.0656907492063,480.80223225243947,stand
20.534223706176963,-0.028756533193233264,0.0522530527396429,9.799542423195948,0.06229184542889944,-0.1418395403791705,0.06481214809722151,520.997209682379,611.3702282164043,494.8203692400478,stand
20.584307178631054,-0.024328038398362478,0.010354488091334386,9.884598338050743,-0.5080133559657961,0.10661907662310097,-0.3641906140950231,516.7941326271928,493.0128215581232,488.04140409457796,stand
20.63439065108514,0.02836334051266222,-0.049119174056644815,9.769055419313656,0.0353834953504094,0.270642004776246,-0.3152869834039399,537.9426176970234,467.39986083371,523.8247906934241,stand
20.684474123539232,0.014034780718637521,0.017777022128901115,9.809857633232744,0.13878165519414273,-0.24847272759587868,0.3857900719840618,485.41610200903597,490.09440937628295,445.6993537111243,stand
20.734557595993323,-0.0443298957053126,0.0015972714798836996,9.806773201814739,-0.0068408908463725784,0.33128464890470405,0.15682492841530407,479.65503818053287,589.8498280792455,538.1509398808988,stand
20.784641068447414,-0.03060206561683848,-0.0641925589411107,9.800605745013204,-0.05017172433352277,-0.13671053647499798,-0.029183572810231366,451.3951544736773,550.5035100088502,506.62912203126854,stand
20.834724540901504,-0.014339588757785363,0.0008153051633549013,9.879726529265143,-0.32461342583179204,0.018172757929609568,-0.17314334702664305,516.1321115559138,557.1034084635875,490.9565782901966,stand
20.884808013355592,-0.026402005847595313,0.058037578905781366,9.768466723283714,0.031115272283071715,0.39802719776133444,0.2469411033188274,506.1716024164021,493.53425510944146,432.3149921440616,stand
20.934891485809683,-0.01935618084758306,0.028516582730362422,9.829999275239414,0.10754408699664522,-0.14921270106174253,0.164221237928349,596.5875803306209,479.3914549963772,470.1542276829698,stand
20.984974958263773,0.012529596950866792,0.00533836316407859,9.846473002105613,-0.08984137560539694,0.11386683937208222,-0.23425645461851563,414.90661800672245,421.7616772233731,466.1950833686802,stand
21.035058430717864,-0.0035961787993225164,-0.0340586520013067,9.813346840712713,-0.1286688194871289,0.5194226868169957,-0.12064071294811819,486.76314135659294,473.0472474358031,526.9435277264074,stand
21.085141903171955,-0.06451790670730045,-0.02838264482373183,9.816512421873327,0.13055271264690982,-0.13648848531654212,-0.5704737354610793,442.43823752083017,446.47722637599526,499.36572280459876,stand
21.135225375626042,0.0017227082785061243,0.01299897892198306,9.85228395082208,-0.12225129905010301,0.6435144304799337,-0.3041673363346505,460.3280121905308,550.7000294537607,506.94956328201954,stand
21.185308848080133,0.019136364935935124,-0.009159161970721502,9.814450745021796,0.6874324879621246,0.17584827754867027,0.33864489496566447,526.6295367627916,536.4297807026182,547.8190239921781,stand
21.235392320534224,0.0160979344684129,0.027540712716104587,9.811835758918134,-0.11163093477989701,-0.04203710170984583,0.06265055266888475,437.73437354169164,595.5417584170158,532.005159096506,stand
21.285475792988315,0.01798338284552342,-0.031006815290875414,9.813963551083829,-0.09593629049089303,0.0695165624176979,-0.02391029176029105,455.550976516082,459.0431115442027,522.2888538929667,stand
21.335559265442406,-0.02080859871249801,0.016507774449618325,9.806009827808372,0.3301037433131207,0.2042172579917839,-0.1281149979189105,502.0289895192942,450.3289664060889,578.2086239405788,stand
21.385642737896493,0.051396482370170984,-0.051571672602551216,9.816454173412957,-0.5537321981323587,0.21284337902272954,0.603766475019043,521.2993337457681,476.64220164364707,508.58652771163673,stand
21.435726210350584,-0.028831755708553883,-0.008103183221744067,9.802676848797804,-0.10257956574851824,0.23949322278408228,0.06692439586918725,440.560007837122,480.5462055008917,510.2663732527192,stand
21.485809682804675,-0.056937031163374494,0.011489165323059942,9.790368899144694,-0.36123161436919604,-0.1119341967444286,-0.2750740783818424,534.8245192742988,546.9009448943735,506.03617431428916,stand
21.535893155258766,0.002633694274768922,-0.0005794733983470399,9.815369252749205,0.07982452719813922,0.2566069892226372,-0.1191665055177154,509.6075830907436,445.5851646710046,516.3349760779768,stand
21.585976627712856,0.005271573398272944,-0.012398706767076398,9.771518655247409,-0.11238221201287349,-0.07888291111400325,0.34838940779061955,569.0606058325016,437.60603953642817,499.65779014970116,stand
21.636060100166944,0.04914146530643197,-0.01419437553061613,9.79662004488918,0.08238390425965099,0.2501724486404973,0.28889119890518244,466.95614693369953,545.7890935367316,568.4260425146535,stand
21.686143572621035,-0.00852756557934517,-0.017664748040770895,9.795622384604123,-0.0076183909978875045,0.07785535503425148,-0.07485488452143507,544.1998716225958,487.5788093363878,476.3714934908646,stand
21.736227045075125,-0.019986815213156706,0.002669191924294753,9.855946174071184,-0.08992674448692298,0.2340435840734991,0.2721029415568673,504.46699713141464,546.0502174137491,498.1033189681549,stand
21.786310517529216,-0.004548299299891381,-0.005468803854433019,9.844190439047726,-0.014378589035044322,0.15222022890709014,0.3107565875355236,462.2939941298755,492.9076010929254,477.9354777411015,stand
21.836393989983307,-0.012712687987890978,0.03631197555348952,9.810058408189846,0.5805806177065962,0.051316980863099035,0.029735903584025798,489.9461990952534,453.38629849008845,525.7530119920607,stand
21.886477462437398,-0.031966314197354066,0.0015259572670235505,9.74032626184974,-0.11687138342970796,-0.20796025148321526,0.6518786252854154,528.394965601443,513.3711417999965,540.2483226607199,stand
21.936560934891485,0.013523247437451175,0.009065259638437635,9.823790162551324,0.2120615162521773,0.0862506403190532,-0.2957757412483067,475.06352630161933,558.1338729292131,473.52627258258264,stand
21.986644407345576,0.03526734603258015,0.08000630675461265,9.796063076272908,0.30821463076103006,0.06080721210541904,-0.2522742659838075,492.2172078681061,450.7382483203437,521.6511598313705,stand
22.036727879799667,-0.03194306799814211,0.029832553765301327,9.759280129285651,-0.20008821796677567,-0.26790171426116977,-0.1585193298761001,575.0045648577025,507.4295095296963,513.2334175719284,stand
22.086811352253758,-0.025129710541916178,-0.021819024461193243,9.768951985539275,-0.37241093490992266,0.5387106718481738,0.283295026965061,469.37451324404554,420.70489695441586,413.1833111261648,stand
22.13689482470785,-0.054402786485753446,0.020004052020365745,9.809083777540966,-0.13347033911743053,0.14565770491859747,0.23511020445206154,613.8179075069916,452.48897399612144,530.1265708635675,stand
22.186978297161936,-0.014371213396431257,0.05486970617771975,9.785493098642295,0.029950019202031556,0.14037881411702172,0.03055616749321615,491.20105666649005,435.44979679024004,495.3832622115735,stand
22.237061769616027,-0.004306289931045967,-0.06728860306705486,9.831737466733754,-0.37473259147644944,-0.09311812949730826,-0.14769427646428016,539.8153703105454,515.8935681616355,450.47061754941666,stand
22.287145242070117,-0.0062156849469190145,0.01010291154776849,9.790184487338859,-0.03655350193344871,0.024971960863629857,-0.35785807436208755,477.31387677263194,447.45852598907646,426.75697897786773,stand
22.33722871452421,0.03050103728390588,0.05291066541201619,9.799936505181966,-0.2041304940399172,-0.0293081419802398,-0.21962197048339333,445.51371218415653,475.1388590464686,508.4806350390755,stand
22.3873121869783,-0.036344089038638804,0.03440664431819123,9.792011098873852,0.49753581690330334,0.16055541570043833,-0.14638264661087835,508.3715433022093,504.4440261193746,576.3921355408121,stand
22.437395659432386,-0.02559436187665256,0.007634056813553475,9.849103960206795,0.041666373686081185,0.24448709455984105,-0.30642033297729193,490.6458930303575,486.84275726568274,485.06048416830095,stand
22.487479131886477,-0.013824409339456542,-0.021675803835687915,9.805065790398555,0.2026320135800761,0.17451901710032136,-0.3229574558125541,452.8516753416535,454.6934365459161,439.3028069101778,stand
22.537562604340568,-0.020991544491089455,-0.05057074968142794,9.810664103861317,0.43422543768396654,0.11561185624424686,-0.12424543574187073,525.3443762844022,486.70393040086753,542.8151734858943,stand
22.58764607679466,0.02549012902594759,0.029486215791756254,9.806388830284414,-0.2638259972838565,0.38645075348459423,0.3591071740119644,495.32985728851673,467.26380068555983,523.445429034683,stand
22.63772954924875,-0.05162051947127816,-0.0033778108641207283,9.828389630434765,-0.2640744819400776,0.037843122390770374,0.054064528776731145,445.34319172728004,460.91130959139133,483.20065238180666,stand
22.687813021702837,-0.022113368814961995,-0.033307704576272926,9.790863362476703,0.07349303083467265,-0.16212669951209835,0.2759992685509204,504.8855886825983,476.79891937755593,489.58031551937955,stand
22.737896494156928,0.03296952798259167,-0.03969636388807149,9.751766273620982,0.3555203761267064,0.14222222016830577,-0.07682757671883464,531.0384453350107,469.03881358725437,529.6594472460318,stand
22.78797996661102,-0.012027067470720049,-0.006348745478729198,9.822006322053454,-0.16127459728044366,0.08374591529099706,0.039023942271478415,498.06746007301234,529.7176558943527,531.6856075114949,stand
22.83806343906511,0.03114920289386744,-0.03901887448776717,9.792536214300519,-0.3422067066546067,0.19945297397879794,-0.3817975473313649,492.8641363751757,496.86139007407746,541.8898985462388,stand
22.8881469115192,-0.027643661498702357,0.0031282548989395725,9.841586003553363,-0.4132525231110686,-0.024912306695009122,-0.056388511696588525,520.9975965941666,491.80860411619705,524.6413608731174,stand
22.938230383973288,0.04571862061584868,-0.015196275818259872,9.788022464254436,0.20656233517324102,0.1117067768842319,-0.2512353277397972,454.7995957361414,559.1354179748139,467.46057751587983,stand
22.98831385642738,-0.03164006537332828,0.045333194828758056,9.843978106355268,-0.666017906236173,-0.2009889259763746,-0.11509658239255238,497.4490336148284,524.6171783780787,524.7117471664349,stand
23.03839732888147,-0.013345489618715442,0.0343963537009669,9.810248261190292,-0.005320884564683114,-0.02558331281603315,-0.23347646898318475,568.7503637157118,498.83501397854695,491.0639246602442,stand
23.08848080133556,0.005248942493289985,-0.005588551149591059,9.801678633680696,0.31376731666333846,-0.2907943791308932,-0.14614912397431004,509.95206758938497,499.24693331996286,483.03375316177545,stand
23.13856427378965,-0.03039388694317134,-0.05532374291685353,9.80949270456811,-0.22365792185183042,-0.5660997383345674,0.18619547838431916,482.46037549328406,513.794421863232,491.09433939959354,stand
23.18864774624374,-0.04797687134401927,-0.004803253685106618,9.770366518147782,-0.12630549482225908,0.25944415289371975,-0.2978148342924223,550.5881829267406,460.00142811367533,533.1609975057302,stand
23.23873121869783,0.03352221037991791,0.024946093954813474,9.796375810179981,-0.16822308551212056,-0.10906508917262736,-0.07369195126027127,505.62578366733,520.3334495619156,544.5937329381288,stand
23.28881469115192,-0.03326944552943939,-0.0049110851624917795,9.777035778923915,0.1704631959885123,-0.1535656474644427,0.4822649985461431,481.8532138550194,508.95632538523677,508.41977123087287,stand
23.33889816360601,-0.03526168362531464,-0.011026796818030898,9.805110654747354,-0.49802777880342197,0.306343965985785,0.1793700041820504,484.3254636923746,474.4619441174985,508.1931657124798,stand
23.3889816360601,0.023786725072819967,0.01527047813553753,9.764638129308162,-0.110894886418175,0.024588557986460886,-0.2701392392519874,498.29399298526306,531.3810710447201,569.4655230452308,stand
23.439065108514193,0.034201680028526055,-0.04692229155898013,9.829159547324961,-0.07595395454052381,0.45904593527937965,0.24873881190547756,511.593687422042,534.8804597048047,492.1294667148534,stand
23.48914858096828,0.027925845636258995,-0.03264151964652642,9.789685712406856,0.19381048043331134,0.06422255399671933,0.04206247649811009,517.2083501857766,533.4561444511248,462.69838074565774,stand
23.53923205342237,-0.010294917197934655,0.02985401348234081,9.780570920771503,0.5914202932848848,0.44066275910479824,-0.08847885611509747,501.73117709401424,422.97830398089354,498.0101949666395,stand
23.58931552587646,-0.015598940371646025,-0.03469829014636294,9.768028729226174,-0.07033447195018755,-0.1607965306417201,0.31282182957909754,451.1031508684373,451.54722759438465,463.7025429705266,stand
23.639398998330552,-0.011080649142276147,0.052475883043931595,9.789658574613492,-0.235699300250764,-0.23448969725787525,0.44634648487234696,475.15495580913296,516.8912846196146,520.0364659556544,stand
23.689482470784643,0.08492894907487834,0.009721646485287075,9.857036265315795,0.5139524630655358,0.4168397917214338,0.3095421907161982,531.9687618464609,561.3519843450566,464.42669571387756,stand
23.73956594323873,-0.0199254126521781,0.03874310417443901,9.83041277532216,0.2340338135544585,-0.28053720369643736,0.0917827924634092,547.9027745689378,484.26392510589153,496.5492784743114,stand
23.78964941569282,-0.013628838499851123,-0.016025455939373517,9.735382158023821,0.2955448294355181,-0.23459209408806483,-0.18214701183947968,492.7143831543089,461.30997924652354,476.5773181452056,stand
23.839732888146912,0.026199419389179912,-0.03865018534496538,9.839232854758242,0.11865934809651942,0.24323531511472185,0.30814393166000603,439.69800998413285,551.6408379096399,511.12278652078504,stand
23.889816360601003,-0.05923301975041001,-0.03062173969289643,9.816859935842187,0.11402370467166957,0.030098787637713526,0.07706677263165305,475.7232092804157,514.6590089917512,557.4014248221204,stand
23.939899833055094,0.0013458994355065312,0.035415810284194785,9.814183971543022,-0.4643489598069143,0.2603796017895378,-0.21703874879729065,601.9503186049232,500.3595050607337,526.3120588231449,stand
23.98998330550918,-0.03356214942829827,0.015754423569567674,9.800197645882154,0.03537874473796053,0.22153770879361037,-0.7255872447793651,572.9764766311903,402.86860483919384,474.49263473961906,stand
24.040066777963272,-0.0002470095197557032,-0.012974297978342278,9.774447117804403,0.204739482449633,-0.4407388601359929,0.22274537959880744,440.0793061316487,466.37804000055564,576.6974216900243,stand
24.090150250417363,0.00428141404483838,-0.027408029516371196,9.793884917474388,-0.190642375556049,-0.5272111339240443,-0.03509609746203942,547.5256873283308,538.6750901560717,464.06532120391057,stand
24.140233722871454,0.02666085957637064,0.014260625304471065,9.856617920506046,-0.12913115710794384,-0.5298092010377599,0.07686295127883966,513.6770639220758,478.94389412778844,455.07384016317536,stand
24.190317195325544,-0.05102884471895457,0.043402546905241535,9.833188792516646,0.41707477565106765,-0.048255356822714264,-0.06987974575922506,455.73275453599786,533.9735818710691,424.7892288689464,stand
24.24040066777963,0.05510017311888411,0.011349403781899074,9.832628027218643,-0.014917672554200692,-0.15057352922990433,0.019075667006111827,483.73948763143983,527.112923954426,501.26187437726065,stand
24.290484140233723,0.03255911855565037,-0.061322916309489606,9.75311710894149,-0.16869067992204442,0.46846641656713645,-0.025940920007666256,505.8196942474018,560.2452130446857,597.6813934142446,stand
24.340567612687813,-0.0014761956464111187,0.004956086042223702,9.789551811333954,0.279571481627684,0.4043012922438662,0.4908316032116769,533.7300426514578,501.0637691022975,510.69685208534776,stand
24.390651085141904,-0.028236429858465473,-0.02204284494001478,9.802045903265022,0.14750604434670073,-0.36471234685409165,0.5139319351196372,517.2454139767003,468.5335371947132,463.4799288988454,stand
24.440734557595995,-0.06482748452589518,-0.0339677067019738,9.783894063991177,-0.09540021334775087,-0.08961586541858038,0.282226938149589,546.32741678174,541.1388217889161,397.24938932246005,stand
24.490818030050082,-0.04407288971900612,-0.014529532845634019,9.78888732407942,-0.21095619393097417,0.25725639359728886,0.2291494254320381,493.865698825577,462.2365310526774,515.8954658376547,stand
24.540901502504173,-0.011918454535396833,-0.028824925492951153,9.77415605222731,0.07761147611988556,-0.6620089918349158,0.29617849767685217,490.11094695508547,530.8929505124562,482.86187216323896,stand
24.590984974958264,0.029057601698812954,-0.006251680550869429,9.815103726813781,0.21153351727095857,-0.27111468421094426,0.5670099965148537,476.95636037625945,550.9742523706165,470.96013282756917,stand
24.641068447412355,0.02962693283605862,-0.027445929208081393,9.79147143212564,0.16256319011302184,-0.6212703728925507,0.6959003412687907,523.087430174684,507.99733205891494,556.7241255937707,stand
24.691151919866446,-0.008824721679340813,-0.00889116849951764,9.782281146132933,0.08584086171680531,-0.04653710077926816,-0.30163733751196264,506.9299891562925,473.1894776473051,481.3862197458768,stand
24.741235392320533,0.0407861706826851,0.041493888853413555,9.826685560009365,0.19448316880008465,-0.4386468052204674,-0.14174106360801997,506.551372841256,528.1504437691398,507.5738661724216,stand
24.791318864774624,0.013275568897135312,0.006712796190623899,9.8257483246369,0.05832252703800004,-0.28847893755251425,-0.12467721626012826,461.69782329635837,510.2016608543663,566.7186131456235,stand
24.841402337228715,-0.04755835499234715,0.009926097366197886,9.830696079821598,-0.18294304591098184,-0.0639322279909701,-0.11262963134611902,510.1149607547195,502.68024500722845,539.5537310132092,stand
24.891485809682806,0.0017043264418069443,0.004484472447517936,9.781446931244806,0.22568398593792735,0.4677987008096739,-0.07731872318165302,481.99581430293284,547.4990798045964,516.2412201548431,stand
24.941569282136896,0.030877598189827146,0.022418185996421217,9.746947064784212,-0.0828289870531543,0.4880861495711427,0.16994219062457358,500.5715328912993,503.26125932841825,551.7172290773849,stand
24.991652754590987,-0.04417885666898736,-0.04085036705320891,9.748274413078587,-0.006977059740393305,-0.07057149299782653,-0.09984257211365283,469.8175509850346,477.43703278539414,507.81130251447087,stand
25.041736227045075,-0.005793741026901306,-0.018663635524301697,9.787037069467624,-0.15371068623960718,0.17483162718631537,-0.2839895760737814,574.6590089449907,560.4094093994045,477.89447313706665,stand
25.091819699499165,-0.021149475288795537,0.08439288852918113,9.852121619323821,0.027450489773090555,-0.05416076839393073,-0.08407420307599359,484.24234003212626,423.1703892524125,535.7219698239878,stand
25.141903171953256,0.028803026462992598,0.0014277937240581018,9.791423963566428,-0.008203859931871275,0.25398707123372877,0.23847397209048096,458.6715696807255,511.88579803138384,493.72284150329244,stand
25.191986644407347,-0.02883946624514104,-0.014507152416246838,9.785844575003727,0.03737541623192429,0.23997160724394231,0.2655193816320552,543.0247160053918,510.7021783507577,515.7443709263338,stand
25.242070116861438,-0.010404004844756912,0.05272961800276869,9.782162024826484,0.43304235921217465,0.4691706766657669,-0.11865844764407316,445.8749716498556,462.23095494433113,537.6714802694756,stand
25.292153589315525,0.030805210211221692,-0.0065283250745363924,9.745695943008483,0.029686990940215485,0.4076913695731881,0.45587060520544637,590.7887339195777,464.51226730284594,431.1683311917638,stand
25.342237061769616,-0.017049520074150296,-0.02990054254090771,9.77754434726465,0.08628138457594119,0.013085462390579202,-0.08871427024330232,451.13648566750396,500.8422938445237,491.74336561645384,stand
25.392320534223707,0.022717821882209027,-0.03235912689696896,9.794332354318442,0.44625833516850466,0.35235659078262416,-0.02904536121435209,442.45335017497246,559.7838965804242,460.82635333031277,stand
25.442404006677798,-0.007039222690874328,-0.006574867442386376,9.81574609382703,0.009255816421601488,-0.00523161882429238,-0.08561595560424115,520.3170018769208,590.4951174475062,469.0359701150909,stand
25.49248747913189,0.021407924821457106,0.030086379480506353,9.78265862528275,0.01654222472925593,0.2788955533231846,-0.3148259853074363,427.7721344155324,483.64042224854546,477.82892975571957,stand
25.542570951585976,-0.016986135797767407,0.02320851732754798,9.794036345621626,0.07200100004976977,-0.45542281483120806,0.2034254719388563,457.6533630043968,487.5003169882132,457.29439975946974,stand
25.592654424040067,-0.031207874729448457,0.010901224826036074,9.774171422737316,-0.1525397803699448,0.1908419522054341,-0.8304392730981774,506.6199256970718,492.6973316417398,473.58669388778026,stand
25.642737896494157,-0.011423274599357658,0.04462074438866497,9.797017606866648,0.11857979887630742,-0.15597511309057452,0.043702483700169846,566.5483733931515,475.46506643909885,497.72558738586673,stand
25.69282136894825,-0.015982708281660776,0.048992302452135685,9.819248425374214,-0.12176930858410696,-0.0962744258368636,-0.1929311604039289,456.0551740439127,437.0542269760026,514.1275154692163,stand
25.74290484140234,-0.0054645869619233955,0.002332267632067328,9.786780474645246,0.24132951576368522,-0.5505087107666772,0.20797425712340342,490.35566709856,490.9290077342589,519.0182028605883,stand
25.792988313856426,-0.027386422660294438,0.02050612587146717,9.844261239492798,0.006712514150679569,0.34384221546696303,0.6608804577988809,413.70037202078646,528.0036020453161,516.2601551372551,stand
25.843071786310517,-0.06735588698776748,-0.026013156683985766,9.816267214292662,0.2726541045622624,0.07081734126200677,-0.37243417482501695,439.93676402579916,514.3659452922567,521.6822970531199,stand
25.893155258764608,-0.016771007668203136,-0.07867072692140709,9.769770256649824,-0.5347852218112169,-0.07827858162394613,-0.315665078764746,571.6720821698511,479.4257653188849,427.71522723918366,stand
25.9432387312187,-0.026017164946454528,-0.0015160691300680484,9.7993856696909,0.20921498281062118,0.2162705762034016,-0.24825744328978852,462.7856815899001,486.12697071922435,507.0911174247222,stand
25.99332220367279,0.02228914225347353,-0.02035415480127231,9.805979562954633,-0.16066906907033665,-0.12562976057614297,0.1482024687665992,422.52806832659155,439.0835814251613,484.78460040073725,stand
26.043405676126877,0.001386855484401664,0.02677182554985181,9.848562974805986,-0.07692122943668861,-0.03074411720658468,0.08285199163737345,539.4824824946298,483.25966426111034,501.6471096990848,stand
26.093489148580968,0.03946782668432898,-0.010052716560526198,9.811075305146383,-0.44134400272515906,0.09983704320977398,0.34368851283243645,484.9769104041451,461.4998033670888,556.51962780276,stand
26.14357262103506,0.01635111947001225,0.010106087851602316,9.810351874753117,-0.24331766391313367,0.19453350474520706,0.4902336511041126,489.48462234981946,478.97558733136697,543.7985453651146,stand
26.19365609348915,-0.009295167667422513,-0.026935732498499315,9.80126709267322,-0.13496289530257274,0.4233893442749088,-0.3286683201359322,564.5818297517816,428.1974207960608,519.2132483644406,stand
26.24373956594324,0.009632608714836205,0.00014213363510715699,9.811777318389511,0.08661961507421426,-0.2806914018107529,0.06707756344934274,557.6563326283971,487.0075950502867,583.1064908744306,stand
26.293823038397328,0.00010129048684773267,-0.04056352133521107,9.830726380626148,0.36341496365823894,0.26810115604348833,-0.17946913736526734,476.7842663097912,469.9765852092511,490.4970838117171,stand
26.34390651085142,0.0061256434216891,0.015556149136233717,9.79504997949788,-0.2220487835841147,-0.05015723588770665,0.35361377167607705,493.9861075837172,451.59922670794066,536.8890127964282,stand
26.39398998330551,-0.007307925062589579,-0.010990580618979506,9.732065848945325,-0.1019307004732817,0.05991989725857067,0.32372592965656144,510.22509098475393,435.0093536975927,574.9899078116388,stand
26.4440734557596,-0.007177494708826018,-0.019527559543944556,9.751177331477912,-0.04808382356603411,0.0064518608702625775,0.018305670216414764,543.8703633072879,491.26345210830357,523.9316507088184,stand
26.49415692821369,0.001708128756002264,-0.0405063763367627,9.82038198265598,-0.08212320322932584,-0.22668178472327014,-0.009420239099561061,521.3258192159366,451.0515980490477,540.6089119476277,stand
26.544240400667782,0.010412472698734063,0.029971796208773473,9.83141678712683,0.29057292607457613,-0.13980056556888676,-0.09767310607258313,520.9045259526252,498.4487168004447,531.0238453893531,stand
26.59432387312187,0.022657719927515613,0.036247513519398755,9.849450832199699,-0.6315613560241193,-0.1160212516398247,-0.4946635241023358,555.9901378880857,485.5044439587467,499.8881571953783,stand
26.64440734557596,-0.012796050894820221,-0.006997152876702231,9.796948122734772,-0.1518000650547298,0.09564974100057981,0.49220178539590476,470.60237863476374,475.8782612671602,555.2182384432336,stand
26.69449081803005,-0.03714042349813102,-0.0028439396079572993,9.773778276072822,0.027980352098728352,-0.07280983991817129,0.38458677130178964,518.655566845197,494.5671006954441,500.2772019482325,stand
26.74457429048414,0.020639051037471226,0.008882091402633116,9.826280960811626,-0.05507239276606197,0.12487261961674033,0.05196809721736231,560.2896600831222,519.2681248489351,473.79531951229706,stand
26.794657762938233,0.036662827901157505,-0.05547537989797299,9.784833856271323,0.12052028028773706,-0.33022152556887485,0.024377264224364512,427.7564672816721,465.7192050807622,554.2623401939071,stand
26.84474123539232,0.04505021568314503,-0.09173580097562539,9.819962351904024,0.08374960975955259,-0.10965515101550563,0.27811686653163536,482.997760206476,501.6382018942226,437.9134579398454,stand
26.89482470784641,0.05077434177092384,0.0676479440014531,9.748715357919723,0.18077166717128393,-0.4914324123493521,0.06246351104623416,438.86141862852054,508.5737215678809,574.6908783327666,stand
26.9449081803005,0.017325024438935785,-0.03285978286020133,9.810023187324605,-0.5319458708468758,0.07786405885026314,-0.04037001892730238,501.7878713265044,517.809265333713,528.057079928157,stand
26.994991652754592,-0.007981315187049753,0.024149305023745307,9.789259710563567,-0.15018022143161835,0.32384173313685233,-0.4801898537680176,582.5107178163966,465.0972467884329,500.70608474524903,stand
27.045075125208683,-0.03196963994064666,0.03150098710808295,9.854918244807676,0.3956524768155789,0.0188622955818049,0.02708975763393251,539.2701638698239,482.1774123067859,396.19331840164955,stand
27.09515859766277,-0.027822338224803803,-0.015946410645330186,9.798435722321246,-0.40390936044224574,-0.026857325246851235,-0.18709616320542935,467.39947446535723,497.1328579999187,539.4764858749921,stand
27.14524207011686,-0.028281681262310968,0.03574859312749237,9.773288560516113,0.16974216455506094,0.12635530364721265,0.1826130921457156,553.6850834254474,538.0413383712709,494.9717552049363,stand
27.195325542570952,-0.019132435663130096,0.00528443898626197,9.82386504253801,0.33395272253103897,-0.159730036686474,-0.24357851697812943,522.7005699479064,538.6928150822584,551.0885584990846,stand
27.245409015025043,-0.0449678674375958,0.05197652245966654,9.805727733873008,0.31277670169707966,-0.17658785926171336,0.1489659734086972,460.1473111694966,547.5523731602643,497.4691531982247,stand
27.295492487479134,-0.010623548748641465,-0.024505385884729974,9.748013243143214,-0.29734025686613846,-0.008472291058609832,-0.14381631401014844,504.1146939020381,520.4155224045011,480.29956349050497,stand
27.34557595993322,-0.035148599444352696,0.010680454150437876,9.757978608026667,-0.11609623587373906,0.3844141026554423,0.17406865648338524,530.0427356304492,531.664682643143,539.1122680290762,stand
27.395659432387312,-0.013353350041732548,0.014566742634741198,9.788055501287324,0.20924887669561068,-0.1472690226898401,-0.03813756793828228,535.8548706232328,493.69246371799,527.3075281637115,stand
27.445742904841403,-0.025178134398085708,0.019335106767572566,9.881464297897269,0.3712310248071376,-0.1444858023167614,0.17874414554372356,533.0717321106124,480.8007043667214,522.519707984367,stand
27.495826377295494,0.004977253539943174,0.03278695018284488,9.841101373425811,0.10298293793423946,-0.01623487631490608,0.03702513511277927,489.30532070110377,456.6831964606581,478.4688312973653,stand
27.545909849749584,-0.03384821146834266,0.04411363323687355,9.818936060962802,0.011647965054272262,0.0035783204051890683,-0.1125621264786157,551.543142763439,493.5113278638017,520.8518136571723,stand
27.59599332220367,0.013081149506635734,0.02814201108965532,9.81186904312907,0.34538306026959903,0.7478378219681039,0.8134892614829058,479.4584230731057,550.4809497475497,485.93397038395295,stand
27.646076794657763,-0.06135007339095339,0.022947119382161152,9.799590234598018,0.15354035632052682,-0.13305748329503245,0.07700269603743957,521.0702772610755,469.05427177664126,521.1361702077364,stand
27.696160267111853,-0.01964238166745208,-0.056794143706621544,9.7947884350959,0.3113029226699922,-0.3835953502339079,-0.31700757970236276,531.1210848856797,510.22156022658373,487.2876443435852,stand
27.746243739565944,-0.0023566402939835668,0.016843734338017863,9.808620960086904,-0.18824049190829986,-0.1456556346838841,0.18074540443313994,523.6949342684406,454.25279585976034,540.9415704366053,stand
27.796327212020035,0.00817355765089152,0.01734436472832037,9.76156691374359,-0.055018561784894324,0.12547257533146003,-0.03583976757032452,459.63613771169713,463.9374531682806,463.57936552048056,stand
27.846410684474122,0.003859154194620601,-0.014288715910052735,9.799010717959199,-0.23776115621453286,-0.32969216053401684,0.05087752149803933,501.68713994619407,420.49924609953246,431.5094215937594,stand
27.896494156928213,0.015389172951030122,-0.022505707470031,9.801714193093096,-0.019479892510946967,0.13631554606158156,-0.4587801187447742,547.2499196429876,484.0846795857646,446.9725119537916,stand
27.946577629382304,-0.07030500807552297,-0.03988227088105753,9.746954005835114,0.5483767546014781,-0.13125089871986023,-0.29225313962917904,515.9061066037544,536.0887215911617,541.852053698339,stand
27.996661101836395,-0.03983054233120755,0.04161853585945407,9.804226718823463,0.023576291905725865,-0.6939027055096412,-0.2953515719307305,528.5354417370214,469.76818564319683,449.37026341111846,stand
28.046744574290486,-0.026460456167460705,0.023918538196149836,9.777825809670038,0.17068276050663603,0.043057915192654075,-0.1478352437583782,525.7734463092884,449.32611751441976,508.96938822311546,stand
28.096828046744577,-0.04504863705423504,0.03294364046145612,9.8565279343678,-0.24026562783098157,0.33537510390296776,-0.47936422307570337,591.9833120089071,481.1079167326908,541.4178442084655,stand
28.146911519198664,-0.003737602931766476,-0.03586977186371759,9.815444032205694,-0.09555917930730615,0.2879813174552958,-0.19229745834523537,535.4585250609581,585.8840835035147,439.546859795189,stand
28.196994991652755,0.043254395521496056,-0.04491168139795321,9.777125841224775,-0.056222127666953475,0.15495104274246974,-0.27540976250451954,443.55062164050935,482.1249951504095,578.5451030630204,stand
28.247078464106846,-0.054611785580562816,0.015510534035056159,9.790664612642159,0.1447932032727505,0.0739478888899761,-0.015368974431587332,570.0565222479473,467.8051476938159,524.4495914164518,stand
28.297161936560936,0.013007892554688497,0.04570444098001926,9.742481863770822,0.026815551526296437,-0.374937806559551,-0.11441538875394973,561.4363299700309,433.1190645660936,522.0712602516109,stand
28.347245409015027,0.014884460449037254,-0.07296477098932616,9.753009489178655,-0.19109843436185295,-0.18587706777961283,0.7509141188951268,532.0823192932467,504.0632359236454,456.65974434873067,stand
28.397328881469114,0.0073356938717981796,0.01200446351233024,9.808191857621088,-0.026453493060125007,-0.1345006869206505,-0.5451844430433443,440.68757851255435,505.36026772125433,447.771748357029,stand
28.447412353923205,-0.07297071843088879,0.025465250974967768,9.863864724683213,0.1898508140805897,0.41050657970429066,0.0017730574608938493,486.3065984938901,500.88207555399816,512.1793114954958,stand
28.497495826377296,0.018714714845848412,0.02348794649537915,9.815069025052868,-0.13395917759706386,0.018073135976424865,0.20613826914640188,508.2352764005725,534.6333870329947,448.9232539668549,stand
28.547579298831387,-0.006702897675653505,-0.01606091190731322,9.789811611319832,-0.011315986538621682,-0.4983596003885051,0.12244695094441804,448.4821697167443,509.78229204828483,453.6244606448803,stand
28.597662771285478,-0.04788553946981513,0.01907221017310922,9.804079467593816,0.010862975566715097,-0.1885764631545051,-0.3000711527970864,498.20626137106706,512.9962490299037,482.1187057332071,stand
28.647746243739565,0.0028029702773740284,-0.020068975181575854,9.801013826631841,-0.32970514914749605,0.2366652178706034,0.006024681276382244,568.07573813407,427.89653648673004,437.51497207472096,stand
28.697829716193656,0.010497298513458792,0.022806744952715896,9.78833844547288,0.014020372223065418,-0.007095897345505256,-0.29577162575358446,474.40082631275794,530.9370926601335,513.752707560412,stand
28.747913188647747,-0.019319549484778605,-0.043091976856733535,9.813003539204171,0.049991498341804046,0.4307274675107426,0.5474764884488807,512.4002978230774,531.503431723177,516.6198681158905,stand
28.797996661101838,0.0004882966663437016,0.012726171628893737,9.792375488267254,0.4313408372943149,0.024084214981363466,-0.26041008237876223,451.77789888358836,515.5504654884984,505.5148835329795,stand
28.84808013355593,0.033932729886967175,-0.03946102461049317,9.824949599050479,-0.13555534000560504,0.1920830900613931,-0.704134300952526,613.1112223766194,484.7722757576634,525.4446128103657,stand
28.898163606010016,-0.01635594755070119,-0.007284008776140077,9.838378349304758,-0.22017705207905994,-0.014989338300951335,0.3973807793695872,437.385036439103,538.0692589665811,504.2549334128419,stand
28.948247078464107,0.019591857657234188,0.012666912363925663,9.806696941865468,0.05550294948442984,0.1898213282269915,0.04160759091542259,526.6628166709977,588.445571095259,509.2810900856883,stand
28.998330550918197,-0.04842872277361879,0.05664826197166603,9.813261029698747,0.14355599168666727,-0.045867896967430793,-0.009302354170301478,573.2699169676382,444.98278856645385,449.33258837293624,stand
29.04841402337229,0.04927708262341281,0.039408399229212125,9.803287398604148,-0.008078391678528411,0.592733461026728,0.10622962890915831,469.02491601047967,469.9160045213386,472.23565280549457,stand
29.09849749582638,0.04033901960554527,-0.04343075081430918,9.798805482108108,-0.031115189790534417,-0.3013148768651242,-0.08151640023348793,427.52582782934104,486.0624234669181,484.73735346236697,stand
29.148580968280466,-0.018226022098052505,-0.008571872516346585,9.815557081839007,-0.14245798098310233,0.6800044446866752,0.047853708467925284,526.9319206494157,477.41606230715576,538.7652234619668,stand
29.198664440734557,0.0033380491671070045,0.023464056236932422,9.832706398213888,-0.21803817640268022,-0.16448048106763397,0.1797479087368707,521.8439267397489,496.8190337861278,457.78738571240115,stand
29.248747913188648,-0.0334826883338185,-0.024433895689337654,9.845861315623818,0.20309548127935131,0.00951378509605759,0.27169967393264677,450.9371306909432,472.8907871350324,454.84571323301424,stand
29.29883138564274,0.022094531885998525,-0.037892889076917666,9.796155153773743,0.2626410653022634,0.01065571677067503,0.4275088364847901,499.3725783769139,483.1115018733371,504.8907249647484,stand
29.34891485809683,0.019113431449774634,0.053433412288008235,9.775946975585295,-0.21024959550474817,-0.04491410866621605,-0.07642068721735568,490.8447092037936,479.9647837952645,565.5350804123462,stand
29.398998330550917,0.029057664497512445,-0.023399553244196236,9.770941113745994,0.06118656163670657,-0.2998771629551976,0.014150604452802765,405.3793106666333,502.75508189867486,453.52594294898256,stand
29.449081803005008,-0.016507841532969983,-0.0014518635186743165,9.77310119204274,-0.2012385998915804,-0.10019135172234503,0.16114840132196087,520.1587653106544,459.665664879764,435.7499904607991,stand
29.4991652754591,-0.02149911220294013,-0.005302867172582132,9.737199046435128,-0.3462179685522338,-0.05498879638777309,-0.01943788859945032,532.0949814897971,491.32563773578636,454.1663219354816,stand
29.54924874791319,0.03162856756678002,0.033094960297002166,9.780826058598729,0.1699870519321388,0.36496055805984245,-0.07985502270048823,490.3145047510008,507.8763952037385,482.829049735214,stand
29.59933222036728,-0.04504602208737036,0.04836518169873954,9.788504658531954,-0.10469647565928532,-0.09306102792137931,0.3229334837529464,511.8285704336301,497.70821660889715,392.4668413348604,stand
29.64941569282137,-0.009992327927792241,-0.010029700815769468,9.816741955335736,-0.0903187708868576,0.5449038287606268,0.04143174201915301,496.86296607603714,468.4816892345658,502.2902176809159,stand
29.69949916527546,0.0014364364229053073,-0.011813152000182403,9.865333117215465,0.0586517182705823,0.3009301148291463,0.03003006564772222,555.1546827254051,490.08304256041947,471.4408067200411,stand
29.74958263772955,0.04784907043031909,-0.0013483923282812185,9.778599381917696,-0.12270187578829293,0.025213388597619173,0.20791632235969656,536.6262270179325,523.461536545085,479.82352539769704,stand
29.79966611018364,-0.00816882036415817,0.044396043891029566,9.799654371366119,0.004689667493231006,-0.30752299543788886,0.28873161945698245,474.20976976589026,485.3571221374843,528.5238736021374,stand
29.84974958263773,0.04065000047425972,-0.040723123584305604,9.815631539062958,-0.27273909644438815,0.13372471180833542,0.17291924454347826,413.99317575509195,477.3765530098432,497.5985766482517,stand
29.899833055091822,-0.016962933581384468,0.028979486541662356,9.85336519807466,0.2121914592127607,0.1542115851805467,0.48506561541713167,516.9467782057309,387.6128596795283,633.9118568287361,stand
29.94991652754591,-0.006220398595851759,-0.030838324436095438,9.816382235265653,-0.15888581897983062,0.21257394592358284,0.02366641279465916,505.33304686542976,468.12829547378277,474.8755864010999,stand
