timestamp,ax,ay,az,gx,gy,gz,mx,my,mz,label
0.0,-0.19128298068113306,0.3338232422936813,9.176073129240638,-0.1670134620844997,0.5137592592918575,-0.09983607744732996,550.1681260622632,505.66180549430646,514.9766433547582,downstairs
0.05008347245409015,0.587952319072342,0.599629362714782,8.266167665784971,0.5084509873412879,0.9125185732285019,-0.3054115981604172,547.7155969004325,574.0067176485783,397.8770224476207,downstairs
0.1001669449081803,0.5131005150430771,0.45435644992607516,8.306437665856178,-0.43388011754146893,0.5104862108053735,-0.9059218122893931,486.3619254998543,525.5112134433222,529.8648189974874,downstairs
0.15025041736227046,0.7742615057427562,0.8462919466053656,8.16158979226412,0.8843399859929529,-0.46314594223924904,0.9497375395500197,457.1621679194234,517.0801213962209,534.846858824182,downstairs
0.2003338898163606,0.8161917442377913,0.2719833109398563,9.088848667586438,0.6476272820091307,0.6637364984389988,-0.8081929204853021,498.816457021633,465.33362122712344,522.5101416440298,downstairs
0.25041736227045075,0.7225878400934412,0.2912712100769796,9.57076859359649,-0.9735003819614004,0.37281029274914895,0.24877030799321534,525.191723804977,477.5417337797207,511.1237600039304,downstairs
0.3005008347245409,0.4092111996091392,-0.20484910697670045,9.89891505689524,0.6263033911554943,0.014396579292485409,-1.2377764485919576,484.57038251553536,492.5197605360343,506.5148634318452,downstairs
0.35058430717863104,-0.03428992695957743,-0.25064162402395007,10.604555118323331,-1.231873449668436,-0.043392464807091115,-0.5284402497771054,513.6096241408248,475.37173148089926,488.18100492173215,downstairs
0.4006677796327212,-0.18402832660027263,-0.10727980108789137,11.172650629205755,-0.1739285512360409,0.5210802487246017,0.0014681470766695355,506.5442280119441,517.9131052639436,458.9808951131225,downstairs
0.4507512520868114,-0.3741802210641353,-0.45425067051032036,11.06711201687653,0.6215928880603957,1.1654964016479514,-0.9675678563647057,407.71130825976905,507.2176898847086,570.1699197866719,downstairs
0.5008347245409015,-1.0410194289361945,-0.7995752986049178,10.88787986652149,1.3835805710653908,1.5485456925070509,0.3733317907775531,518.4903434336537,508.1837723113141,530.6712533776337,downstairs
0.5509181969949917,-0.822224881592328,-0.6154421744130467,10.45005415926925,0.7057626421704386,0.29547818156415734,-0.6780829686008593,473.8007528094573,550.0882487662492,481.3153581815497,downstairs
0.6010016694490818,-0.9490290946213145,-0.5814458955828734,10.486457496531077,0.1418340922702157,-0.3112879078773813,-0.6410726596069595,494.8067203615244,534.4435469951195,489.074163735647,downstairs
0.651085141903172,-0.4500362702473976,-0.25494255750830697,9.161173356534709,-0.07631637901917854,0.36802172403177846,-0.694676061846468,505.2984645235648,489.9447171310606,570.8103868803768,downstairs
0.7011686143572621,-0.18649734903623222,-0.1870717936457851,9.031286561781071,-1.086933712955029,-0.3600671251110932,-0.1911054387878908,421.11475283446117,512.6155209785039,505.1539290015572,downstairs
0.7512520868113522,0.04684239198201358,0.4219064008672087,8.37944836526525,-0.6000646386011211,-0.41271104254740043,0.23327358483343902,568.2752323523534,480.9771787108567,501.90965130262344,downstairs
0.8013355592654424,0.7773563047082634,0.7935305869564739,8.31235454569882,0.003523289841404015,0.27514335873123125,-0.6083442121691773,462.54020483956634,406.2441699132223,510.72682514838317,downstairs
0.8514190317195326,0.9770871618411595,0.6651425559667721,8.869489214424473,1.573216477161281,-1.4740947734262322,0.08372861212323969,470.50751051833385,539.5225081562453,516.651619068028,downstairs
0.9015025041736228,1.172471827455987,0.8392582093978065,8.962608557985579,0.26410551437795005,0.6012131292397691,1.0042106644386506,500.0106103028834,529.5584111968795,466.36839660409134,downstairs
0.9515859766277128,1.1865733492763924,0.8424376238232003,8.8605816317648,-0.7991424772984648,1.3215264107506124,-1.0073718456409364,450.14536765962873,606.0328175654711,446.92075266206115,downstairs
1.001669449081803,0.29128085101076207,0.17438304158861545,9.873518940999194,0.6829383443032969,-0.9357047832963422,1.9688368220411863,462.24905970620983,485.6079025586542,536.0596121843773,downstairs
1.0517529215358932,0.4142933373582406,-0.2124476714771955,10.285959530578582,-0.2620280485195068,-0.4045066769858215,0.2724436345380609,530.7543129023628,471.76547966556456,558.1165027037883,downstairs
1.1018363939899833,-0.3010675705122573,-0.2321032130486334,11.11101014224263,0.8468485543406432,0.72224547820563,-0.23396781074443543,465.777951616033,444.0633739359779,427.29780235639294,downstairs
1.1519198664440735,-0.527240006377655,-0.8521311458996101,11.277465567463262,0.5225389230744046,-0.15529566173238293,0.3210362889880409,498.7129027669102,577.5637717852046,459.6021970484026,downstairs
1.2020033388981637,-0.7076403542421217,-0.7785697470912942,11.107453231325021,0.04004111445526707,1.3418178869633248,-1.2133433696035927,512.72834858004,497.53635922402304,471.51191484132966,downstairs
1.2520868113522539,-1.1417818795322139,-0.42797581087919734,10.578431784233501,0.004633258045351512,-0.26862940053053885,-0.9344412254277855,529.7283197326153,540.0050354680127,511.3929196838948,downstairs
1.302170283806344,-1.1341945037183276,-0.4189107626752152,10.100536605308244,0.9434363915899556,0.05961890738231098,-0.3284667758427325,502.0418797453889,452.46494079588825,432.21077707963826,downstairs
1.352253756260434,-0.48922704738294936,0.18247947939153,9.633732429889674,-0.9044275136352833,-0.6597660814010228,-0.5229247410286642,575.5818904339958,474.3111045801641,540.8111071267332,downstairs
1.4023372287145242,-0.3936813538069009,-0.10426932996348484,8.956334068948959,0.09628310416372456,0.18580039479151383,0.6613326451140137,500.52233592717937,471.8543756104107,439.454627231438,downstairs
1.4524207011686143,0.2985218301637356,0.2537870787516697,9.042294924672607,-0.8066272161572817,0.10000521884118767,0.25280834175972405,527.1767997468701,503.32315471111946,502.00264097979834,downstairs
1.5025041736227045,0.511136230684992,0.4720837416998075,8.464045317167905,0.32720048551690145,-0.8061649912137345,0.05938804445160139,469.64235366992176,576.2846445867596,500.6361778013648,downstairs
1.5525876460767947,0.7744337143449361,0.698836470720529,8.596089697388614,0.10162295231973333,0.672624774128108,-1.0299432631448864,549.278590872916,495.6796860650384,392.83975403082013,downstairs
1.6026711185308848,0.533448753472799,0.6471190229711334,8.925383952526852,-0.13502705742464227,-0.06004057718904278,-0.279146588472857,501.1490773369659,521.64493024734,462.8028451779531,downstairs
1.652754590984975,0.6003706595987236,0.1822062852526654,9.022727789381987,0.05233753460148163,-0.31910198066507894,-0.5395485013924589,485.30495320320176,473.5933243907803,505.85890116729905,downstairs
1.7028380634390652,0.5967063508178543,0.08451819381310535,9.377505148799619,0.7331608885638623,-0.3476442178970333,0.8988839480650109,535.437612504379,565.962629868916,531.1754388202098,downstairs
1.7529215358931554,0.09150720200660047,-0.17239813704765528,10.122077178031848,0.2934495595829363,-0.2446924262668111,1.0471356814601402,465.74280413316967,484.93053968241276,442.7582404006248,downstairs
1.8030050083472455,0.11709794456528523,-0.27584683191182363,10.509878160557022,0.6522456341541323,-0.6523951757932118,-0.4174719295671618,570.260264834527,452.82653857674114,544.0594288026672,downstairs
1.8530884808013357,-0.5474608472724631,-0.683190430620007,11.057222908682945,-0.002720334677704359,0.8347201440009397,0.3533508707871676,515.598489528488,484.05831436871574,493.53007851414554,downstairs
1.9031719532554257,-1.002698986031779,-0.2699703849425754,11.283168362694273,-0.21548155469850466,-0.4137375965056261,0.27375503068964774,505.638106110541,496.01950335177,490.70297926522767,downstairs
1.9532554257095158,-0.7419159443641477,-0.7005325335152375,10.947856999962557,-1.5823592000794813,-0.9564423930569991,-0.5867458660625158,514.9186137515861,505.7970778891113,590.209659274409,downstairs
2.003338898163606,-0.8645222065522778,-0.42760945920888466,10.215851760499753,0.8581528467570074,-0.8372049989002683,0.8302561326959902,528.5116222029403,496.305408198099,488.19967729121896,downstairs
2.0534223706176964,-0.5268237328340788,-0.4610445215544347,10.153768069611441,0.2134207646987053,0.8168015265581201,-1.2238335698032543,540.4838448851282,466.91186200580205,546.4576864419674,downstairs
2.1035058430717863,-0.263106286479661,-0.23863144588761848,9.53739502002875,1.0591092127908799,-0.9070771143737849,0.12625057927386388,448.4296826857248,473.20993886637916,535.6401517468616,downstairs
2.1535893155258763,0.09660652735421206,0.33970589423921543,8.658503649363615,0.32031129516287316,0.11352755717544741,0.32903550567270073,456.10600621262284,540.02657190939,491.79865809748924,downstairs
2.2036727879799667,0.5105963950850175,0.5560259910017117,8.563345808017552,0.042754104531096675,-0.33510685614370866,-0.16018855619834782,479.9540396740001,501.67363832268757,567.619384917725,downstairs
2.2537562604340566,0.9627305545126973,1.07842887157294,8.675581412885018,-0.1623183679003357,-0.5407786430571153,0.13697610736506938,542.6328621857256,578.1666657158408,407.9291618982557,downstairs
2.303839732888147,0.9061734409694215,0.3727783357640513,8.42022406953494,0.46612345709248865,-1.4150413926396188,-0.03619007544934672,470.65864279229334,480.5969714184671,475.33632063952314,downstairs
2.353923205342237,0.6096228233803349,0.5307200583775463,8.969066626557419,0.5691535754290854,-0.3855134705426685,-0.41130190214724066,518.1503649181664,416.67571568415104,527.046208082076,downstairs
2.4040066777963274,0.36798368900763084,0.3794115684268038,9.315822683584674,-0.19660274884191536,0.7061689129005195,-0.0358629474946128,406.4512513793424,409.6222542623855,469.61699204754126,downstairs
2.4540901502504173,0.32933647086769174,-0.03415631676234074,10.375962195497012,0.7666875383276638,-0.3204523009967065,0.7962370599211813,504.80023646074005,532.917585811156,454.3253886859644,downstairs
2.5041736227045077,0.08172801571972889,-0.11798789862350481,10.531837260662657,0.35794266546421016,0.13054088426239444,0.4373425603248378,593.917676272659,542.6431946708005,437.01761444434237,downstairs
2.5542570951585977,-0.3997197319764692,-0.6928856271160271,10.621532723300913,0.5794927124402185,-0.41156696029047535,0.09293571101319133,584.3614329900087,515.2171733455986,495.4999412784336,downstairs
2.604340567612688,-0.6216036497250665,-0.5858362606797463,10.757405170311397,-0.22846711491796487,1.0461050050881724,-0.27421471359411503,488.4653902596048,521.7618290921212,465.98137140678324,downstairs
2.654424040066778,-1.0109067236125284,-0.48170485769578303,11.059662133583354,-0.607698078328044,0.13625849332328502,-0.5785471153665025,489.9493216975505,501.8623732809651,551.5382810835085,downstairs
2.704507512520868,-0.7185780069322903,-0.5222605442209252,10.603780151412082,-0.054275899972375835,0.48244100880359037,-0.5752976133832235,513.8039838376229,450.2343688465297,543.7027613463274,downstairs
2.7545909849749584,-1.2169726335867168,-0.5292215077442344,9.641876728914715,0.24733024184896601,0.2748885348675424,-0.7118172778987936,565.6512577283896,486.7756016646205,418.45491215356145,downstairs
2.8046744574290483,-0.610290824569508,0.3747527789724594,9.363609458839644,0.005839508914114289,-0.029299305135053574,0.49675519111836436,442.5583927276416,520.256695719751,444.3085287501068,downstairs
2.8547579298831387,-0.05207500054677633,0.4905530584069745,8.795863356978401,-2.010104071417675,-0.06935240129420508,-0.18103522968754643,479.1950699925813,483.0226809068905,505.01748970918624,downstairs
2.9048414023372287,0.08244844683396758,0.4646491922263454,8.403089615635393,-0.024133272368845837,0.7730441223167631,-0.003680147709607474,474.0860118085548,524.4606659165229,481.78840796149154,downstairs
2.954924874791319,1.037306427843148,0.7891042682162297,8.20646103725521,-0.7740562049512716,-0.6401119635126221,0.5341762037721697,468.2912878830019,615.2672261470329,549.5107436670947,downstairs
3.005008347245409,0.8486862067906183,0.3878773276703687,8.335857436484964,-0.3317236068605612,-0.8763092823662783,-0.3434849967574121,438.8558124666086,494.9125603866219,424.5814974302083,downstairs
3.0550918196994994,0.5976318975205873,0.42738335208257394,9.135002812124334,-0.010523801141692372,1.1804192262711608,-0.4513046674975347,514.8810757524328,504.05718638473263,558.6991728888041,downstairs
3.1051752921535893,0.903847592765602,0.39201489180033705,9.417842148273817,-0.022438712426962666,0.19939732346597452,-0.11856468372594105,516.9296752239502,456.34569833158326,415.79896146077374,downstairs
3.1552587646076797,0.34044149494557163,-0.025724697011698508,10.03238408380809,-0.2757806621216121,0.11320433194932691,0.32535680236966935,482.6193854130637,498.3340955789571,493.362640146358,downstairs
3.2053422370617697,0.4103077542991981,-0.2115851328647494,10.745090831030582,-0.2665977925862293,0.02986669397872087,0.48747249202818416,431.99839220826374,543.1857730936906,458.3012941790103,downstairs
3.2554257095158596,-0.1938200050386733,-0.46420963464207615,11.188546228652033,-0.17841755252238733,-0.07571232680982604,1.0860883636676912,497.6467281689833,544.4191412467167,521.627369682076,downstairs
3.30550918196995,-0.4022241380980997,-0.4595608901397706,11.154498310934844,0.36352281510399864,-1.1373700410669327,-1.4889469273073341,497.7367427778327,543.968261292622,392.5651654454501,downstairs
3.35559265442404,-0.859141155508738,-0.45101683097278694,10.969208927552804,0.4453891492373621,-0.4885918997795361,-0.6303909273463019,500.6892652928304,514.5100983634001,523.1934386800061,downstairs
3.4056761268781304,-0.8022949712402688,-0.6993960393283853,10.703848327578019,-0.4161749550636242,-0.5473212065207673,-0.4412151566819522,522.0758223518047,536.3868264508006,555.6345028369698,downstairs
3.4557595993322203,-0.8013534407634321,-0.6538319582423506,10.321505212106898,0.04356827599747182,0.3170214292215955,0.9103859199365946,510.14425145201,499.2261232555236,490.44943334416274,downstairs
3.5058430717863107,-0.5782742897192864,-0.49048953911048404,9.992487051577886,0.10245860696005031,-0.13171405268625133,0.23280244214192897,537.7577113031772,469.868683134021,442.88504349202594,downstairs
3.5559265442404007,0.016911948001293947,0.2195633734253576,9.129495024487902,-0.18804569927221146,-0.4659604126964982,-0.8484486936248322,531.3250739710082,514.3833743177574,569.9632991307334,downstairs
3.606010016694491,0.45999772457379,0.2916678317325814,8.624332754168986,0.15655110695069685,0.21484362016121394,0.2733649009021367,413.4924717048333,449.3525045314891,566.4052866584781,downstairs
3.656093489148581,0.498402557370722,0.5736397726031301,8.278047334153754,0.9419180664773009,-0.6355217213053683,-0.3373821202211403,404.0515778980983,525.2282144556542,494.10183109801915,downstairs
3.7061769616026714,0.8998435874569743,0.6231582881023294,8.589483378958118,0.34050369336079744,1.0824554777234383,0.2138865505242361,457.68546484385325,437.7284394839001,560.2198721986592,downstairs
3.7562604340567614,0.7927580286918685,0.20069048152419905,8.836290493857748,-0.7226354259978041,-0.34425177606849733,0.25892672089815433,497.78500545766667,516.1344720058743,484.2717409387959,downstairs
3.8063439065108513,0.6462788352500197,0.4411410656594638,9.396530656576578,-0.09403406175831083,-0.8963192149814566,0.22828928391652323,464.72962968715717,550.1976387352436,486.6332201458917,downstairs
3.8564273789649417,0.10756327614523982,0.19820555629432196,9.908766130427578,0.325197004073388,-0.4322444127829233,0.07745920369396314,558.3523991356166,567.817122423086,496.1363901666564,downstairs
3.9065108514190316,-0.08100781107487365,-0.06405687277620876,10.435828104465104,-1.6504441246599817,0.01589777318919382,1.214400218442744,474.87484771437744,522.6131243517927,495.1872463325078,downstairs
3.956594323873122,-0.04649648480253035,-0.3454174037929997,10.77989040506096,-0.29201530784045043,0.7190016837650474,0.7702294855946304,528.2900870617826,473.330856843266,503.5135831392489,downstairs
4.006677796327212,-0.16138817516543302,-0.2982104805422198,11.146468949377999,-0.3012136945065728,-1.8326998379487043,1.2371505880336688,542.223775366632,510.72233521212985,433.1910703583651,downstairs
4.056761268781302,-0.4267412232616228,-0.2686835086289418,11.267972060355754,-0.37989278309217717,-0.5390974960090449,1.6288953368821342,508.4693162279926,506.67013446397596,456.8902038314969,downstairs
4.106844741235393,-0.7526296327867302,-0.22602637975403467,11.12258783935639,-0.10695232277578832,0.3945568863904473,1.0556841265736927,473.5378715725755,521.2621214723696,455.5770802330381,downstairs
4.156928213689483,-0.7276135494575752,-0.4827003792950853,10.533009300925825,-0.5528601711420624,-0.46275581616336126,-1.0831643273260667,524.0226333970479,494.818404334995,559.7002912590718,downstairs
4.207011686143573,-0.3816248747813549,-0.08709479055552952,9.82722274442249,1.290681043074988,0.40889925933475074,0.4507024237363297,453.9931653575422,477.49290236877675,522.5679720582123,downstairs
4.257095158597663,-0.15183349017484593,0.14016530453310216,8.802652341530985,0.539702900318954,-0.4195435232064346,1.7857681697713168,548.690404204191,525.0249276751223,538.6243775279935,downstairs
4.307178631051753,0.17341060259690344,0.31659642922116377,9.138135357106462,-0.1662578245786877,0.1706042591764218,-0.8222532459996649,475.32440350198397,467.9597243532132,526.4349865934824,downstairs
4.357262103505843,0.6666043165043227,0.28278007618206347,8.482251584875472,0.18216020420497261,-0.23632611730864478,0.6853313523354291,591.6881921842833,568.7532754493176,600.8939733109686,downstairs
4.407345575959933,0.9307143474095568,0.5230823776868936,8.096281135759433,0.06426966395024872,-0.04398506769661885,1.7035751964409205,502.18042955497907,476.5252115583285,428.4598351498079,downstairs
4.457429048414023,1.05822101749742,0.6151268171401039,8.446957923409533,-0.09007595793614855,0.7783130157527586,-0.18216430465215938,440.62557210515587,537.2300432870356,543.4037159518618,downstairs
4.507512520868113,0.6920579717347223,0.36895400199480227,9.073610907491977,0.5642147869798977,0.6549077973396571,-0.18686161777952795,461.5090555433877,471.6862971694049,512.6852421526874,downstairs
4.557595993322204,0.057009186371236656,0.350349095968833,9.816438748940886,0.14923829232804792,-0.8891474581933766,0.22912232586926295,521.3756162566376,464.76934308661095,458.27938476853853,downstairs
4.607679465776294,0.18443990392461906,-0.30352146451553175,10.205885000193149,0.3405568810810142,-0.9139176289184228,-0.5756616774694924,561.6807624638302,561.2917027780841,487.0889530059642,downstairs
4.657762938230384,-0.0869828436238504,-0.14657242323351977,10.45306535609079,-0.4752710894855255,-0.7758423976480296,-0.020247004880434245,489.769946406925,567.4960252638547,415.134353107903,downstairs
4.707846410684474,-0.7646171799350836,-0.6126736388810976,11.14860256361429,-0.5546923671306917,0.5615067196804383,-0.34275693326306883,530.2543248567858,501.68112579125864,428.57741802007337,downstairs
4.757929883138565,-0.7239371948649077,-0.5268275368867121,11.17745899407686,0.3748255427720269,0.2535504573088122,0.649561878996501,491.85514850401717,499.5379947591631,578.7408905629253,downstairs
4.808013355592655,-1.1001634025934046,-0.25236239385553116,10.70203124683805,-0.09766296392050267,-0.9445595517954712,-0.9361503463161075,492.10490136577624,508.7678627203516,442.8716890997014,downstairs
4.858096828046745,-1.094355523514401,-0.11352709313904574,10.742282660556944,-0.07249398771886617,0.5130282040720552,0.15863714388091055,497.7854603108765,523.2154963252809,441.98782533456995,downstairs
4.908180300500835,-0.8686502195516344,-0.3626039207924592,9.87035442817711,0.9828138054546445,-0.5228086536363817,0.49237242063117503,445.17758129991387,546.5614984886653,577.164380593856,downstairs
4.958263772954925,-0.013736321439070887,-0.24546905220586795,9.296728313939145,-0.3802333240128223,-0.0894803877609793,0.16973671938883153,440.3877288814232,467.87192275580645,533.0823736905093,downstairs
5.008347245409015,-0.01871390362322585,0.14691275323658873,8.522049879149508,0.41588431656284114,1.077874651907428,1.7769801273922416,508.5716004096942,479.0114384262055,521.5449223086539,downstairs
5.058430717863105,0.5457095035980093,0.7413041546041108,8.430853672300346,0.3068345724042548,-0.3844999505739228,1.132567830478193,469.89923391233043,487.8068569635239,481.7928768125823,downstairs
5.108514190317195,0.594003883719776,0.8793275527378248,8.501006607389742,-0.24150923011196088,0.44451436265762734,-0.6301193567713036,540.9889088581212,469.5010584300005,406.6823291607817,downstairs
5.158597662771285,0.9856166868975363,0.4460123177373356,8.46844893111964,-0.05406259149725158,-0.4610954006428824,0.9530205654940136,518.8761099799675,489.79370116010483,497.7457740604997,downstairs
5.208681135225376,0.8661133145730391,0.4902091991886482,8.859766218595768,-0.05518374232622705,-0.055988049825206984,1.3976365705079472,466.3301411287181,486.35316596788215,533.614226892284,downstairs
5.258764607679466,0.8229374675366645,0.20754091168416694,9.483029113859681,-0.45220279060182705,0.47796230443651605,-0.599361733556763,422.30628366597455,517.5681188074344,490.6844817956509,downstairs
5.308848080133556,0.9635334897602018,-0.13626202721809802,10.243276576284108,1.2750584819548916,0.606489722510552,0.6297430661483556,451.7292449205909,488.87737312609937,525.479165497206,downstairs
5.358931552587646,-0.1666333969519558,0.0242634011182139,10.931218921097964,0.488912064455517,-1.4101600277528936,0.21652861028220435,529.1730091170937,530.1304277423859,496.863225877174,downstairs
5.409015025041736,-0.4955278692122338,-0.5291398905307145,10.862634149365482,0.560171713240335,0.4100152091436312,0.5492661939698598,532.0709573222856,483.50969785698925,506.25333501952827,downstairs
5.459098497495827,-0.633685416079347,-0.3114305131580813,11.156112431506628,-0.07579867988999249,0.25375885927784403,0.3893942342984632,519.9228608565194,578.9262188597023,475.363131095927,downstairs
5.509181969949917,-0.9657317441367039,-1.0175238227142238,11.008398805348785,-0.37067359573889663,-0.14750193157664226,-0.299334529048134,512.4073435292953,543.563445931121,496.1984835227736,downstairs
5.559265442404007,-0.9613261190595846,-0.40236710631802186,10.712699456765488,-0.09173350051129832,0.08725848380381786,-1.2759910255637303,381.5890716304244,560.9837989779643,554.9383325637091,downstairs
5.609348914858097,-0.8286537184963457,-0.18224202046700183,10.010377510679545,0.190820868864609,-0.45342368573384517,0.24224798457407684,469.1772762268094,452.35297139796086,426.09025655293664,downstairs
5.6594323873121875,0.034629244159522066,-0.012127916152488774,9.402303223468689,-1.3934063870235014,-0.16952490058558473,-0.37094361660342384,452.6392079846335,566.0930355768198,494.88427896404767,downstairs
5.709515859766277,-0.08937605299868613,0.2624110969208227,8.79996769499439,-0.24098664679721182,0.3740204535704907,-0.7227135577227185,539.2302509616769,477.1109855647692,493.1161936321813,downstairs
5.759599332220367,0.4085065916186857,1.0141910305727444,8.513651482376387,0.08208511390303101,0.03168699353750974,-0.4370222533118727,512.3163723581149,477.24606131720094,584.4027000212127,downstairs
5.809682804674457,0.3613312141818827,0.7997958123075721,8.403147584247423,-0.053020591906142334,0.304846420441477,0.021222029874973673,562.4307303812662,526.0146241468127,514.6285977701667,downstairs
5.859766277128548,0.6083264431153228,0.9871252013173,8.906640629962347,0.3565391663971138,0.9698358823852413,0.27660631759122184,510.02021609062797,494.66357310247525,486.78017934321184,downstairs
5.909849749582638,0.6337978844296772,0.4348817283725908,8.83949086015408,0.09473668700699311,0.33066049992493934,0.45546925994564047,568.5856963041128,459.31497270720683,494.27811798908,downstairs
5.959933222036728,0.841253792522484,0.5862759163389717,9.570388749943207,-0.7226700079608437,1.21590074123413,-0.2635476972951847,495.95533870250176,490.7984239374814,512.1920920082762,downstairs
6.010016694490818,0.5322861830432252,-0.12661103597902515,9.875410356446507,-0.5632369556840472,-1.1041578429991705,0.13520974171329117,484.3879867721074,449.7232827017693,485.52968090575865,downstairs
6.060100166944908,-0.4299492720208677,-0.44507807479630773,10.630607775185124,-0.1302702625975186,-0.5473492383971954,-0.3571306340972156,530.2927398982149,422.72057783264484,454.7680228917285,downstairs
6.110183639398999,-0.43821568970527175,-0.5937404061405123,11.19356735216118,0.43957298664138444,-0.8224178266062063,-0.5761913803712476,451.2732026797755,483.4458162512349,486.046735412232,downstairs
6.160267111853089,-0.48827924905079495,-0.36773910145839556,11.160098256745059,-0.09754883765711983,0.39345716725870483,-0.9500413714977748,494.58122421002616,440.8622170049103,508.0252005905828,downstairs
6.210350584307179,-1.3256833531394752,-0.7830260704752257,10.909018638728071,-1.4743362660229007,0.3590057047803833,0.311086996175715,479.71468709410465,504.6224182348187,481.26480999628797,downstairs
6.260434056761269,-0.8666226095015218,-0.3580131679128876,10.669118837748856,-0.7061429953507264,0.09233369102652271,0.5357272987185581,498.2900252513924,607.543058968422,546.3816281221101,downstairs
6.3105175292153595,-0.688207701300138,-0.46432244006115925,10.03241559740307,-0.6621297190390325,-0.8495634091974801,0.524346897506826,580.5131956845673,500.6202901545114,475.588807790539,downstairs
6.360601001669449,-0.6673378938662639,-0.028185548768984645,9.527167595096616,1.2697269908537596,0.8740373036764606,-0.17808929940811546,507.5109302924353,529.4283946623377,512.0716812578596,downstairs
6.410684474123539,-0.46086305642907255,0.243354298701131,9.43857502689422,-0.10587890923958382,-0.3009881334647399,0.07865484706918076,521.8327270962388,486.4033154270042,490.2396615799908,downstairs
6.460767946577629,0.13840257574594655,0.275799668056731,8.4639729677038,1.4772764739023927,0.20194832087438772,-0.28493867573651555,489.5723221915984,561.3008501279046,440.7302942530586,downstairs
6.510851419031719,0.7018399448952324,0.5618223093790593,8.260857686556555,0.27821845717958177,0.382047755369091,-0.9422142857001091,510.92612672153143,499.77639517064046,492.6216602698941,downstairs
6.56093489148581,0.7236579922139621,0.41237081492042604,8.404095302817069,-0.013854741340885606,0.42311050732856453,0.9752913389816604,454.3495642800347,508.5193157518724,451.09441343996616,downstairs
6.6110183639399,0.6573167705969474,0.3835204414620768,8.990970212446136,-0.7636018342413596,0.15460416681913436,-0.32395922268230287,457.6767251891302,451.207184165575,514.8873548578524,downstairs
6.66110183639399,1.1830676708071608,0.3384912376289629,9.043518275745345,-0.037290547783127036,0.01481534910439348,-0.2139853414808736,511.6395056184892,530.0747353211035,473.1214855735936,downstairs
6.71118530884808,0.44083643820180635,-0.041081383381185665,9.703058248720358,-0.13002219902915324,0.5683457871852563,-0.0003419774661555024,530.958721190876,438.58959826840595,500.57170833239286,downstairs
6.761268781302171,0.21737983928269872,-0.05236588778515762,10.310494247942641,0.6019152192383713,0.2623527726888299,0.7370028406906459,458.90583874177065,533.1045884775172,518.6706526074017,downstairs
6.811352253756261,-0.17969620951556295,-0.26149988250121853,10.87812657702449,0.5836524532497809,1.0187022261752565,-1.0298728591374644,469.3018570771866,470.76041066011663,526.5980105859812,downstairs
6.861435726210351,-0.8823631200133826,-0.9021415831299424,11.133275123965678,1.1524099120833702,-0.0908492388207223,-0.5400613508911791,503.503550452067,493.73754054327543,450.05586377974953,downstairs
6.911519198664441,-0.6668270902131583,-0.48656196594835915,11.113573862052082,0.17377135160418475,-0.5565565819372008,-0.12958842548982896,471.58338210161736,486.3968402814585,526.3260039514205,downstairs
6.961602671118531,-0.8335497906456744,-0.6232568427628791,11.047150427627917,-0.7207747586570991,-0.23002355380266107,0.23866088646724612,476.2195716986358,537.9183750633839,586.4206324205161,downstairs
7.011686143572621,-1.2495870364355373,-0.5327367924636515,10.553938705762638,-0.06411331943832206,-0.0675569207919354,0.3263441255981153,504.4277303492572,581.4523961527755,468.56482865930144,downstairs
7.061769616026711,-0.3402094767891447,0.14758780363826457,9.600511779444503,0.14303360896217285,-0.5213880347084447,0.3558935517452709,492.86925259600974,495.57492153916814,471.5141986730656,downstairs
7.111853088480801,0.06245338330425455,0.13909387837103956,9.150280054480866,0.367996025979714,-0.01621701458085952,-0.009433979370218962,545.1576949791454,532.6932246186989,527.4587951169073,downstairs
7.161936560934891,0.2949677328165381,0.5572340656614433,8.59640266580787,0.48865887915672707,0.5103954558098375,-0.3273683739103429,456.2713975040883,436.1761871581857,559.121022753984,downstairs
7.212020033388982,0.4500020614767371,0.26363806251069,8.737616193885305,-0.1897716814479376,0.9356138144130276,0.615223991189215,463.76687890576864,555.3195411181603,490.15761305799236,downstairs
7.262103505843072,0.6351051878657511,0.3658983206894061,8.537354706517798,-0.5737340351196669,-0.4139529666814548,-1.4012932216961143,540.4193256341301,518.4031710193404,509.5481703741835,downstairs
7.312186978297162,0.9102728194454374,0.6778780237540769,8.882951738797976,1.2727284924017288,0.2500951552446499,-0.7312737846327351,488.04744475579395,473.85110479584944,461.897503910731,downstairs
7.362270450751252,0.8272776469445866,0.30501502367029276,9.207399887766144,-0.35166391268857644,0.33198343099713545,0.7879317481478361,466.6648678394118,534.2943223470645,490.92303300737245,downstairs
7.412353923205343,0.8197750706580775,0.11983647189896723,9.851289353475822,0.8755000909378321,-0.05450761114170352,-0.05333750110194624,441.397153716306,516.2933521876109,524.351870564338,downstairs
7.462437395659433,0.20007998628709356,0.031434717094979484,10.258959630358737,-0.36944392629288736,-1.9381988809315958,0.034671110052224105,558.8406680788282,516.1392564437189,511.8062127347715,downstairs
7.512520868113523,0.09239453885865952,-0.346002021634124,10.550829475714565,0.26549978118961304,-0.2513415243482511,-0.07408563443680813,514.2995459974417,465.6594204267769,466.360232582346,downstairs
7.562604340567613,-0.7043565018308534,-0.5185575803680078,11.134489177278029,0.8002836317261448,0.2553062590452077,0.13432239711976574,588.8101351259957,482.5449305252086,520.5801552200331,downstairs
7.612687813021703,-0.8457040436118402,-0.5324880437408133,11.007486805501498,0.051358081213632646,-0.31726851384230975,-0.05702218677217271,564.0804817658171,510.50307025440287,480.67843003919575,downstairs
7.6627712854757934,-0.6573141501574401,-0.6352261832394563,11.619015604719515,0.5317333154154363,-0.2124809293185135,0.7122441571658393,510.1460525596269,509.75480828106396,514.8661770390477,downstairs
7.712854757929883,-0.8924052736711042,-0.27696268532657825,10.640148069769392,1.3452216100288257,0.8032533941624282,0.9795946663884929,545.9900199954772,514.0432708307646,463.93130438517977,downstairs
7.762938230383973,-0.5781433538958581,-0.4400411418641071,10.111549302024567,0.5790632879410734,0.09232654215137961,0.8425151121165273,514.94252454699,489.7851045034284,460.8540456071377,downstairs
7.813021702838063,-0.37637352691081605,-0.07573496265395985,9.436164913367596,0.6783978666533094,1.5698905355155184,-0.7551989109255095,503.83381160374455,515.3575775779126,469.97521531040184,downstairs
7.863105175292154,0.12732344762343295,0.12752162754751958,8.865628792882468,-0.6365901145332719,0.30041759347918234,0.5548172512965615,513.8166080449331,391.2879272935985,518.2952442021063,downstairs
7.913188647746244,0.6137530447890528,0.547248570157457,8.544914192998677,0.05080498046910857,0.5087434592103032,0.47876701536063104,525.9704600592518,466.5034553375695,525.5212735005523,downstairs
7.963272120200334,0.7756394563449301,0.5127085793407437,8.45641589986418,0.8352551681619378,-0.3863450509799395,-0.443174218218716,552.796910898956,555.3720349082414,466.7035327534414,downstairs
8.013355592654424,0.9442630731859057,0.3793545778009737,8.756175538463197,-0.7373905679548086,0.12662376471895948,-0.2179052205367774,467.1181755788072,500.1179565773842,471.084797506667,downstairs
8.063439065108515,0.9243915287801655,0.46932513034887047,8.89987989106061,-0.4260639142454135,-0.7274245209060846,-1.0176034662286224,549.9231030777611,484.56692532699526,494.50512362876805,downstairs
8.113522537562604,0.8085923672896276,0.5509939659443335,9.347403650558416,-1.2211202780360177,1.2427287402126193,0.7098110015295346,505.5327575665941,469.1716640352321,482.4408559205872,downstairs
8.163606010016695,0.17816818326359302,0.5388739786674894,10.300471826275896,-0.5170927521223357,-1.7521060307459146,1.2176691353714484,460.1088918695655,500.8500279616058,462.20392936431017,downstairs
8.213689482470786,0.1102822579328659,-0.3618513846138126,10.700321839852213,-0.23083001623733476,-0.13208498220217113,-1.1477058399564013,568.405618556622,398.34340381155715,503.5970176099621,downstairs
8.263772954924875,-0.41447685388635,-0.3757550256380224,10.978507450000219,0.500903680634232,1.420923336264968,0.533706752424651,473.05935225588377,501.04330327426453,476.697859596955,downstairs
8.313856427378965,-0.6463139290733767,-0.49431989071022003,11.29098464858086,-0.5627581205342139,-0.3276904314462615,1.1877340445321356,510.4092183421759,482.13648832054133,533.3209483654581,downstairs
8.363939899833055,-0.9011595299090778,-0.5899566614270411,11.454327558821086,-0.3494141959255435,1.2688480583307762,0.8452001058077153,490.6260489762137,473.0203843149152,440.73771599554016,downstairs
8.414023372287145,-0.8124328147866218,-0.9564274099939536,10.505476314929641,-1.161185491474768,-0.6892927027929316,-0.15839365260077995,488.7730063283808,483.9320517222421,584.6155494641118,downstairs
8.464106844741236,-0.6173795188912845,-0.2565902266646452,10.076642375910506,-0.31448402042605395,1.181543049234723,-0.37753218975921443,525.1633304511274,485.5416390291167,474.877833475716,downstairs
8.514190317195325,-0.42619170661334554,-0.02546380673497256,9.290980065299857,-0.008757123867902622,-1.0372480203529726,-0.3511002391194227,590.7027740967396,526.7049885424555,491.46241629115116,downstairs
8.564273789649416,0.1294992063797623,0.22602341389156413,8.816597835164055,-0.72272406770449,-0.3601282138756401,0.9588660049307616,488.5131744394354,397.2761090468235,559.1921832566059,downstairs
8.614357262103505,0.4477975233157235,0.01393250519867556,8.865447231075358,0.9479784586933705,0.20295797459215498,0.3208133864533533,490.7895822758275,479.27271762966575,465.9093805775104,downstairs
8.664440734557596,0.6381349712701376,0.30619551218275814,8.135652944038494,-0.6034355956576676,0.2710138905338894,-0.8901255041299829,488.062537968307,422.60551562900827,506.8945903146875,downstairs
8.714524207011687,0.9669531095194749,0.6728758919846696,8.414720538991464,1.4042265849694868,-0.26844409451535356,-0.011498675856142199,477.5585084647275,489.74803964361814,488.15299733226414,downstairs
8.764607679465776,0.8497782489331257,0.746358196912847,9.046263827404275,-0.3258990339178583,1.2485480426242663,0.11306257179961321,468.5653042430341,534.6131018212626,449.5351736600763,downstairs
8.814691151919867,0.9735810043255336,0.6603255583595955,9.44856862582197,0.8902607939569727,-0.0174464477935941,0.5471155249940655,437.80086364630876,455.12070047893224,501.7689981052564,downstairs
8.864774624373958,0.4503640646094463,0.26172281603519354,9.739632528246272,-0.6002683020865905,-0.23106114227613284,1.222534301897477,474.87298110924485,496.58455835109055,478.4489022928634,downstairs
8.914858096828047,0.27059457092615063,0.025744590635909004,10.363167487385118,-0.33844128958506087,-0.6565887086022681,-1.311936763454147,464.18392622232415,471.3651286037357,505.3298027530119,downstairs
8.964941569282137,0.01903055671963494,-0.42445584809901254,10.585487668806195,0.5171680890260145,-0.42525900714171183,0.24218038801919045,528.020222252464,560.0179224828424,418.5973555589569,downstairs
9.015025041736227,-0.7207454685609296,-0.30928848046028024,10.715574518049632,-1.585173022878037,0.11831752021130061,1.1438698121422917,463.99545282013855,506.9445614638944,535.2788440002735,downstairs
9.065108514190317,-1.1264930003979634,-0.31958890643204024,11.153491195685058,-0.07080252082804273,-0.7504378772451102,-1.6756510211263627,524.5258873963177,504.6861908101782,505.3690024418902,downstairs
9.115191986644408,-0.9378194791696196,-0.217898577066656,10.751448345226452,0.3289186430989474,-0.28877471408351285,-0.5786458256289789,473.0915953243794,512.4933508843997,437.0955142963133,downstairs
9.165275459098497,-0.5363554853490635,-0.364223250694135,10.38213063455402,-0.40768220234878944,-0.6601545744557799,0.5584993344152499,543.1553904547359,565.5030345488357,526.1005345255419,downstairs
9.215358931552588,-0.6947844921037022,-0.25330038549960976,9.555445604111924,-0.3302511696069499,1.204454301871028,0.2598767987194772,566.4119055935278,430.390645209383,475.66240709974574,downstairs
9.265442404006677,-0.36112114591407346,0.17445917141630787,8.878642714748421,0.6677318066265536,-0.30672176353806974,-0.5502857377583598,478.54504797320186,462.6134294223263,511.6733806822381,downstairs
9.315525876460768,0.19195558980230437,0.24661433439144798,8.879831665386876,0.2867330441302091,-0.7381354572075128,-0.20896050720856618,459.7018938480419,440.2380833153667,425.5377953283047,downstairs
9.365609348914859,0.5694425912806275,0.5256728191712838,8.527547239513138,0.2812723827580594,-0.21426137175846843,0.5787810677400821,427.480605659198,522.3172050346067,475.92869717095044,downstairs
9.415692821368948,0.7065886429027506,0.8056895289562376,8.562907144819851,1.7448040739565056,1.1961589201512532,0.6574811043949566,521.1866655943708,453.45987286798527,527.8106022177568,downstairs
9.465776293823039,0.8085856546391412,0.32172553119403446,8.640184807852048,0.6632178312027198,0.38768813634604693,0.8625438112318655,582.6192823412862,551.7805619402592,447.17211889456473,downstairs
9.51585976627713,0.9110067062707999,0.44716853688602093,9.078976524495559,-0.15292517716237292,-0.21354628506986398,-0.016635987172058223,503.6177467644755,457.407961768166,525.0314468611679,downstairs
9.565943238731219,0.756145237086228,0.2673916184114361,9.86922884305987,-0.32456488557850216,-0.4041877595828625,-0.056677832552121526,494.38562707533987,384.50274085098835,489.8506201234885,downstairs
9.61602671118531,0.46338674880251723,0.201580535906618,10.720605962050282,0.22053566381762962,-1.6306957697971767,-0.9773654445129905,499.75530003202306,479.9566924763899,497.9195697331812,downstairs
9.666110183639399,0.20989671540172278,-0.4702045726316531,11.01422707775624,0.8368074305103106,-0.5742539347439307,0.4660846485282988,516.9489744458276,480.5088197238962,435.24574236717564,downstairs
9.71619365609349,-0.8548134114445053,-0.5645932058665375,10.870161914679604,0.2901525027231012,0.35805600848929386,-0.414132438715428,513.4836828739778,506.20418752384495,520.3878579020504,downstairs
9.76627712854758,-0.3820028015789184,-0.3008884069977226,10.965151141818545,1.4551359659370642,-0.44853156325475924,-0.353763444346722,553.3466969017611,504.9461646678377,476.42697181147145,downstairs
9.81636060100167,-0.8185542879546007,-0.5773337261365072,10.966328546531226,0.022029185343295267,-0.4141972192775562,-0.10096347609966994,471.8089553335763,531.6999904367234,462.1924630193618,downstairs
9.86644407345576,-0.6920453988736603,-0.7334964138101572,10.646592190749336,0.21134439549195494,0.42892631229058015,-1.1181223815389831,516.2884062332962,486.5905796784622,496.9970502715656,downstairs
9.91652754590985,-0.6205706947637231,0.01978919647757124,10.15927792263616,0.2508543298788618,0.963102419959411,-0.5919298940453525,533.0554087966219,481.9740027214333,509.70952431923877,downstairs
9.96661101836394,-0.4187393340364206,0.0025238826501665576,9.322274020713085,0.0437278248684869,0.6612939833239931,0.23026964409781342,492.1630154330296,503.8695271856483,468.3412461208733,downstairs
10.01669449081803,0.36621361957028037,0.3539421460594381,8.891647893889237,0.15499662345851511,-0.7055968617508002,0.8720803563953138,513.9822942999054,458.7193501364183,560.9890951805104,downstairs
10.06677796327212,0.3873619546951994,0.5117818163423709,8.538827172629338,-0.7925936150858213,-1.38670447044237,-0.1962188791575585,546.996717732167,458.42442929118437,486.410412558522,downstairs
10.11686143572621,0.8495882926432804,0.5669262282813075,8.585637170924727,-1.1422461154496582,0.4677879037288954,-0.8778740380461229,563.0278698107091,526.0561913880434,519.1632268683593,downstairs
10.1669449081803,0.5209431921391241,0.37006063099189734,9.210221001639875,-0.21387545752713563,0.07065033792962722,-0.9156388294773938,513.7363651918072,476.8053105197708,512.5579310924893,downstairs
10.21702838063439,1.151937380993728,0.5094916106452604,9.259137551306713,-0.5655598349619727,-0.441714178663543,-0.629071754581273,490.73639527296115,513.3368757651817,535.209394373507,downstairs
10.267111853088482,0.5839022094580548,0.22074406498275573,9.82097904124267,0.2254581650167843,0.6902111962501871,-0.7685478540553755,512.9097348126185,432.76029991592503,523.7933358383098,downstairs
10.31719532554257,0.36128306017515666,-0.5342024263611498,10.045637988163083,0.4520784548530564,0.21558457057432082,-1.0394091404801549,549.2787429400621,500.068709625805,517.7763625993541,downstairs
10.367278797996661,-0.09573637303109067,-0.08627302884275434,10.759576130751018,-0.7808835700881309,-0.012430163094158191,1.2081778992168517,484.8488951241512,523.758960133411,489.7363515989997,downstairs
10.417362270450752,-0.20596514033389934,-0.24470759131387604,11.272609702151986,0.4075224295433768,-0.4221748656064655,-0.06376480703284026,503.31192686195664,520.1342718807829,499.2381329574702,downstairs
10.467445742904841,-0.7548271545818432,-0.8086920058669296,11.2765063273818,0.5454462474277849,0.4761039350720401,0.42390981482783,540.6516403773076,493.83529801707385,523.1069372736213,downstairs
10.517529215358932,-0.5127580410837003,-0.43406531231739354,10.889011810042607,-0.3748558081875427,-0.08478797900927228,-0.2768890286840934,516.7828584482719,522.4014536818835,537.8294044787949,downstairs
10.567612687813021,-0.866635888892687,-0.44202363585874965,10.581434803067744,0.2079716070473345,-0.07367990314698272,0.4084980909163546,544.2119716480203,468.3680068630048,524.9368766283577,downstairs
10.617696160267112,-0.6631385325064979,-0.388667964543602,10.186258912735966,0.07985978849515452,0.2266572931538826,0.6504169295012416,502.5249941823163,510.8489436891988,450.3564845511353,downstairs
10.667779632721203,-0.32140157137005254,0.045752021519088415,9.46082246148661,0.9680168681203799,0.09691870008148731,0.5023429517837955,546.4717264653558,474.2796217309754,504.1728339913183,downstairs
10.717863105175292,0.24749667701379752,0.3374008240919354,8.735398745355461,-0.8891839131263445,-0.21526143857500976,0.08260301162474007,499.38990544330704,538.819026772255,478.87138350733204,downstairs
10.767946577629383,-0.05140801218470298,0.5638540102095633,8.221571198633887,0.1715743632394492,-0.08168889100604665,0.4643344960569491,498.15332038003487,515.1944025435959,442.26701594819986,downstairs
10.818030050083472,0.6857869670278205,0.7135105549566343,8.34682672912323,-0.33109426144071025,-0.6034138033996685,-0.595018745474854,491.04335014162547,499.13188952327596,446.4931757924711,downstairs
10.868113522537563,0.9870372435773821,0.027270750314555614,8.64035359895379,-0.825982287148849,0.19875840215351792,-0.11466580941571432,550.4846793067659,480.9948337727131,526.9794015089147,downstairs
10.918196994991654,1.0110089100730475,0.4536139659159543,8.957413908451057,-0.5901471673665735,-0.2667716787034253,-1.5387399281791723,489.95588964707207,492.92372081806434,463.3464182682671,downstairs
10.968280467445743,0.623495117888194,0.4090966855141308,9.43212862506167,0.36860638032271753,0.5489003440600301,0.04398188224750109,452.82547027140345,514.1644420935285,500.849141706688,downstairs
11.018363939899833,0.7877522123702152,0.2694826504954265,10.076281985527407,-0.05034542013490943,0.3941583986491305,-0.430333133072903,498.7918232166089,476.63290834178025,443.32399975084587,downstairs
11.068447412353924,-0.11073547187573016,-0.389358459243933,10.85088383253617,0.447688828472002,-1.118860091202029,-0.07371368274922936,593.3678671533947,451.0946519996901,546.8015896063288,downstairs
11.118530884808013,-0.44786960546778326,-0.661738393572483,11.29532149766568,0.7036491738051934,0.35850951423655963,0.1924406886433813,500.8271965420849,493.1589793615976,566.1702273266958,downstairs
11.168614357262104,-0.5561674995197495,-0.5206050422471196,11.328657340174408,0.12649363226841345,-0.20276018716926136,0.4692290005974914,474.5117169127984,469.81079773753544,549.2932685332324,downstairs
11.218697829716193,-1.2689348251061365,-0.2912001786870034,10.491400209158696,-1.4771096932445813,-0.40282173393384135,-0.28012883791502763,480.7190409860839,450.45036815840615,542.9885109677145,downstairs
11.268781302170284,-1.0498414355228731,-0.31489501053955127,10.521234029900366,0.892793627770477,-0.14804173362672793,0.9848641653645884,511.90092948488353,485.5464827327571,468.14271604326035,downstairs
11.318864774624375,-0.5401879805949508,-0.042421788300496366,9.931414816209433,-0.24275861870160986,0.4041036255701407,0.47951090061299806,460.75359935029076,531.7279016063783,516.6120471426905,downstairs
11.368948247078464,-0.5713225861726171,-0.10268575765712562,9.60706701549957,-0.5182408078539585,0.38948034703733203,-0.339075850062668,473.2071607404443,490.7929239132846,449.11955352838226,downstairs
11.419031719532555,-0.2245767545126252,0.13671912312031675,9.04107107637252,-0.3747802540174798,0.7729987693384373,0.40797886053898286,486.69017271490344,446.45263945650703,490.00555352969593,downstairs
11.469115191986644,0.2800992153902193,0.38155422496263836,9.127079707464167,0.34108954624108756,-1.1153499554031032,0.6589707341515864,463.0162236886054,503.06742191475627,479.39792215367885,downstairs
11.519198664440735,0.5668661246033387,0.8913099186560696,8.415608565473402,1.2090013929822603,-0.19325696197621092,-0.669314655399826,477.41208601816896,538.6264192368893,500.2341155559241,downstairs
11.569282136894826,0.8330478542866872,0.680424685995191,8.552866904562377,-0.5205081167646912,-0.488922476289881,0.5838333189375238,467.4676407001913,530.0975552715512,478.5828192403866,downstairs
11.619365609348915,0.7963819083809475,0.6210080578840214,9.282258898140665,-0.18795651809490357,0.23188567716979244,1.1384356665493423,560.0025406527433,522.9300782020622,461.22940206879287,downstairs
11.669449081803005,0.9886087062034193,0.3215836555510435,9.33889115855467,0.02593615009089941,-0.37488481256259143,-0.282932228806682,506.57342694269863,496.7078878291684,542.2511108026474,downstairs
11.719532554257096,0.7214089435469725,0.12839260858949836,9.862385028977645,0.40659698793776233,0.24893458697919463,0.3854775447718901,436.40292647204836,524.3676909739805,430.9768944610821,downstairs
11.769616026711185,0.07803700515439811,-0.1864490647661429,10.705894399943466,0.8070271163140544,-0.6082033378174118,-1.064353000688623,471.7992608500342,544.7239995117129,471.6493581751425,downstairs
11.819699499165276,-0.29328717634929097,-0.2883371847726287,11.135999684453076,1.0517129468385014,-0.363084920184029,0.1333833568515814,502.5976002872274,537.1950688081682,514.0272698849011,downstairs
11.869782971619365,-0.9254656783559974,-0.6866634579052171,11.256156453422005,-0.6166345580835229,0.34507310731804897,0.3500318803173666,472.9227814582721,466.5931049737971,487.52485407156547,downstairs
11.919866444073456,-0.762000505232865,-0.6927086519014403,10.902339910757416,0.7554006851052574,0.1725553174748332,0.4635736582939672,500.81769571761555,471.7096178684493,500.4402971404962,downstairs
11.969949916527547,-1.0021684372218254,-0.7526024793200692,10.554616097369783,-0.8090990721121447,0.48880438276804117,0.8241587638970561,470.88211515585004,541.2749831112833,502.3684945503389,downstairs
12.020033388981636,-0.7567324614502136,-0.46368612604893183,10.10253602178229,-0.41710792177197936,-0.5347081510539783,0.7414041527323126,489.35947565482905,469.6562103065263,536.8017006190134,downstairs
12.070116861435727,-0.7785605057715251,-0.4462841952730528,9.531463033800868,-0.10330623359589108,0.3302971971138004,0.04306363917218047,486.15950492859844,533.5343360213726,507.302408452543,downstairs
12.120200333889816,0.1457484267586006,0.41439272588851583,9.121631999139518,0.07477494893121583,0.4233685257540745,-0.18146683779790268,511.61541120181283,421.32687920406454,535.8897631047655,downstairs
12.170283806343907,0.21025159317646236,-0.02378239283172029,8.760476145414232,-0.7464118650302167,1.1573191489013006,-0.06690113855426617,431.6880926561095,561.4938930183633,498.01649217624464,downstairs
12.220367278797998,0.6424372781801762,0.6043788853778107,7.844296933373994,-0.018516772135760074,-0.17710940445980447,-0.1830432691672257,444.21812955990737,492.5862663172458,482.12932091728146,downstairs
12.270450751252087,0.9587475368706585,1.2012798469297798,8.676030972606537,-0.5531985204161721,0.21493081895747,-0.6865491808169889,471.1919034243353,552.1630500819259,417.07018413170175,downstairs
12.320534223706177,0.815252094107734,0.449197294179046,8.479307677937301,0.8882629617987053,0.40478044513281713,0.5849988477372531,494.8619768112215,570.2555314959916,533.0147477451985,downstairs
12.370617696160267,0.3961848864107308,0.5619833977294051,8.761441302863458,-0.095479782520339,-0.13315862159931402,0.8660648442091687,387.21619402827895,490.812721452579,510.93541591401043,downstairs
12.420701168614357,0.4773750514844594,0.4791546577442235,9.424830590396887,-0.248063276690754,-1.2193628713300257,0.37230464862092333,527.6995789659013,548.4671933594777,449.7888558871159,downstairs
12.470784641068448,0.34629270596979533,-0.17090414437589774,10.629969315116478,-0.08853771085068468,0.11466623496796742,-0.2012969512110069,522.1115762632896,456.76005387334885,438.8847766919125,downstairs
12.520868113522537,-0.15997869345163743,-0.5511125101309617,10.897484927955109,-1.2627003088015956,-0.674176050587128,0.09922328255988283,486.06080136529147,462.4215605163977,488.1279254137425,downstairs
12.570951585976628,-0.4394000020867695,-0.4279406160532089,11.363888375678542,0.6060236558746402,-1.5706141741932842,-0.047878535149829385,442.2147139928524,503.2476069945457,539.577622827338,downstairs
12.621035058430719,-0.7681629492129863,-0.8303003869834984,10.941839518661572,-0.019114522055694097,-0.07045649511190201,-0.5998950609457808,591.4670218098951,475.74697261654126,459.3285838274478,downstairs
12.671118530884808,-0.7703437853138474,-0.4909505650505504,10.481409526670415,-0.1635487286866555,0.6550988061176779,0.32730502882975204,516.8363955722122,491.8633850445213,512.876076187279,downstairs
12.721202003338899,-1.0071937633662125,-0.1756289581330986,10.330798086909823,0.6606614467593419,-0.19182088237100645,1.1111554310146137,573.0114495613767,489.6950727959754,546.8349715153663,downstairs
12.771285475792988,-0.4671592422721509,0.009597929331894295,10.136141670372966,0.17921615233405916,-0.3996280916210263,-0.5654594286881198,522.2030630836559,521.9922841936484,394.2625784316036,downstairs
12.821368948247079,-0.2469564247185808,0.07411110006291821,9.11138509214924,1.256426809208778,-0.13682271382304373,0.7016624830103075,497.22891447435165,479.8828111897788,465.0858554546615,downstairs
12.87145242070117,0.06635713141541406,0.28251592283855265,9.069181754758226,0.13484120248189027,-1.4841889108465192,-0.06383748131387734,529.6956635869773,524.8745121907516,406.39757815887333,downstairs
12.921535893155259,0.49475875233414496,0.5720768572029828,8.407918210217643,-0.1994634220163547,-0.53503913866509,-0.7611355231930202,559.7353126812199,475.3395076290025,505.2430771083493,downstairs
12.97161936560935,0.8119590720920664,0.5075033695535422,8.15262770248792,-1.412334151117353,0.059903538908302544,1.2694231831817049,496.7341152149826,569.1540375034022,533.3473528617415,downstairs
13.021702838063439,0.7216556015931063,1.2122124751875445,8.83692046256052,-0.7187789701381149,0.5297154732629464,0.0627866635252184,462.7157656068251,484.36769057699195,414.99458900787425,downstairs
13.07178631051753,0.7521009373350246,0.34251490958272474,9.084751981794735,-0.05581875926801878,-1.5387065558403472,-0.4697133296042948,486.2698847263893,489.256913219054,485.08216787876376,downstairs
13.12186978297162,0.6023430264745083,0.7199510526481918,9.602295058405215,-0.15569871719017395,1.190994407447487,-0.8415220335562891,518.285248726298,564.6486143856365,537.2602480349282,downstairs
13.17195325542571,0.688431160531235,-0.4539998435216693,10.637797138742398,-0.028962320401775037,0.2334460898244084,-1.2911918693864035,458.9550447299718,549.987529792282,505.8007024301468,downstairs
13.2220367278798,-0.07886115135317534,-0.2609268102593738,10.676946734085977,0.5832717652160597,1.2163770271762437,1.19816040240228,538.3006755818456,438.96056677120566,489.83101572744283,downstairs
13.272120200333891,-0.3381860215968886,-0.34759629699946837,11.35881242921145,1.1574397075733225,0.31454562094905303,-0.6063315669903314,506.8298131322197,450.3336137805476,526.3177101781401,downstairs
13.32220367278798,-0.8134593299702856,-0.5496442142870459,11.188611220048143,-0.2844657760245205,0.29350729664685427,1.0821915773162898,450.8658367081969,512.5841495849727,554.7413540026673,downstairs
13.37228714524207,-0.6717533704687131,-0.5390738360053418,11.092153825529756,-0.12952962292171477,0.7353744877077883,0.5311665551161588,474.5081659115175,486.7341828259352,465.9731023575286,downstairs
13.42237061769616,-0.6470546450115802,-0.42324220721483136,10.369416208600274,1.1878153555077366,1.3766535614986282,-0.03498500510559028,516.8232112365498,529.0844160093012,486.7633896471659,downstairs
13.47245409015025,-0.8261935069249042,-0.4307619600021052,10.359798968962634,-0.29630563798132453,0.44956643143024544,-0.6536465057988129,521.4377854459126,570.0795704275938,500.9992154134617,downstairs
13.522537562604342,-0.19060353058514107,-0.14613571725767568,9.282122505205935,0.07933865746093323,-0.40180197445902666,0.9756138014442002,563.5833649138133,487.4224209820654,509.4953283876839,downstairs
13.57262103505843,-0.13663481298135,0.28445252718211234,9.111840656836288,0.9911548311442324,1.1089827002454682,0.10939911071132669,492.3531594563972,481.85845814400403,461.57151629434236,downstairs
13.622704507512521,0.591064451126572,0.44206891038493606,8.406787134694774,-0.7893320491590068,0.0874678362855325,-0.05437635409232662,446.8122046163889,493.0017946981389,480.0683461097352,downstairs
13.67278797996661,0.41664986385869945,0.7440040246564428,8.34937920443003,-0.9438815305661364,0.8309062775542575,-0.6783275258826714,502.4047120569119,499.98412869800694,499.8977424841064,downstairs
13.722871452420701,0.9433353548421121,0.519846438237601,8.380176392807268,0.3081380870411931,-0.19776832450907908,0.3704124515967136,515.9447032061619,500.41172225285544,522.739324091639,downstairs
13.772954924874792,0.849166282591092,0.4150908318028441,8.815371275254737,-0.6622793419894779,-0.6284190002696859,-0.34775888357171764,446.9525955360019,490.8177790954136,494.577966085158,downstairs
13.823038397328881,0.898799785627126,-0.09977354942993744,9.6676127783228,-1.0195631828702658,-0.2701354659074726,0.5747873743372359,469.3273851540753,523.2636897139464,500.617334331502,downstairs
13.873121869782972,0.33709030129728645,-0.14308212905841433,10.153696337842305,0.1396346204209487,-0.9437350599839064,0.6784003100456324,434.17795312478563,560.2689891410483,449.14657125438254,downstairs
13.923205342237061,-0.02264627768135785,0.07445360911685936,10.554512065253393,-1.216325890582572,1.303814852344869,0.3549887492002799,444.6991393866278,548.2113341823325,516.8530610411625,downstairs
13.973288814691152,0.04324826548325994,-0.009075345767409093,10.78331928473011,-0.47361098122384787,-0.4558588838448227,0.7270122133300886,515.8039099288281,435.22726412074655,480.83238150218517,downstairs
14.023372287145243,-0.43443020276525424,-0.6942411195001474,11.076852417595205,-0.6153800668252815,0.44194262749456475,0.6299492052004749,529.0749240250852,509.2633118671235,472.3511341938345,downstairs
14.073455759599332,-1.085769143111995,-0.505877631243252,11.400205075412,0.14504759909033915,-0.696468079424124,0.5001108289043973,480.785040090987,449.6141907505226,522.9593981750179,downstairs
14.123539232053423,-0.872382704658427,-0.5162936407510239,11.046204664831441,-0.8725419030056766,-1.0751037144090814,0.14812557001007504,496.1410107476984,481.8267916847596,546.7861205483296,downstairs
14.173622704507514,-1.1100470580051258,0.13306880655548314,9.891577467852235,-0.4030843632820194,-0.39159603297634604,0.05046207890974518,515.3723741085265,420.6742204216837,519.2734723313803,downstairs
14.223706176961603,-0.2281634995586282,-0.42207473727926303,9.119379231444963,0.3628580444277507,0.2974316814912155,-0.0409750337137838,512.3990205483318,458.0380269430585,492.74516778438493,downstairs
14.273789649415694,-0.1254470066406324,0.33208215328951574,9.229923856862722,0.028154823031339128,-0.27113533147170527,0.3911702982451894,436.302048628443,508.89825048099834,540.241459697574,downstairs
14.323873121869783,0.6351600018933565,0.08714216219573989,8.706540518534041,-0.27816318136221574,-1.0728199322520977,0.030229472470826295,513.9070480556467,472.78849552765536,521.8605504359093,downstairs
14.373956594323873,0.7183971894950215,0.28764476471556427,8.200498476439213,-0.7497453871318834,-0.7149561678117149,1.0496020806424549,606.1971312447683,502.06324562323385,477.23448218371357,downstairs
14.424040066777964,0.8770789017673533,0.7452338167848771,8.906243551749238,-1.103124160094911,-0.37661223124509347,-0.7149238345461353,587.8363653470409,464.3242200013919,602.4306196389422,downstairs
14.474123539232053,1.011426860736109,0.48081794049997306,9.160530559704686,0.21285572461529692,0.8400677902610749,-0.6999359494468044,438.8359894561048,467.0368524756138,475.94532540006503,downstairs
14.524207011686144,0.5193395576980089,0.345383117026913,9.319523040596525,-0.934534075478797,-0.6310125018829348,1.1688286434681143,521.4053223551374,521.82954806377,471.8967154401261,downstairs
14.574290484140233,0.268337181384728,-0.0449741635030213,9.770095693914863,-0.4013796098670431,-0.5071129824126146,-0.2681027729195563,469.5773117174955,504.2219512746583,511.91701959108656,downstairs
14.624373956594324,0.054292554659101,0.2221853763812945,10.38117527940895,0.008072321506167796,-0.5533688526102919,1.0396770372354838,419.354608914018,541.399346313972,531.2384798533623,downstairs
14.674457429048415,-0.24828101735865243,-0.3645494313485577,10.79269396108804,-0.03465737871104868,0.3445615754611438,-0.7994876840597862,553.7704286410698,453.5955133223965,521.1676668774263,downstairs
14.724540901502504,-0.6052461709443988,-0.4328806528746493,11.08970374362046,0.36851794472130567,1.583392617466294,-0.11968090871919135,529.7237332107874,520.4661164646371,469.7182972094645,downstairs
14.774624373956595,-0.6830570824922007,-0.6255416728164398,11.39898285024904,0.037166747817732396,-1.4323581866595108,0.9722010759114924,427.1472412968691,496.8454223255608,596.0912620936717,downstairs
14.824707846410686,-1.0155507584685353,-0.6234779130751658,10.534681031924986,1.2666655871354588,0.5839644955293732,-0.3928623356487431,470.11654552728527,489.38805660138524,530.2589747874471,downstairs
14.874791318864775,-0.8903820578283628,-0.40519945887871234,10.067767729948418,1.161378199900259,-1.0178623015854702,-1.0190046254679785,498.35331493358336,483.66392468876035,445.9446258172263,downstairs
14.924874791318866,-0.6021021216798168,-0.36624930917642673,9.853498218943086,-0.4953998193784367,0.16468836796830003,1.089695757018912,440.0046377919544,387.3164181031657,493.2364203968735,downstairs
14.974958263772955,0.01926769817227722,0.07125341151578615,9.263089520409501,0.25096580209446673,-0.9272737497402888,0.8649942294561559,537.2866146032391,512.2840461558337,556.8209516773182,downstairs
15.025041736227045,0.20954049653573786,0.47507869012513215,8.835525774629723,-0.5530230133499684,0.4876680079637817,-1.074293159036085,476.5061118953523,625.963219604281,402.1587059851233,downstairs
15.075125208681136,0.6740947139876223,0.6569524916595946,8.63434847076765,0.580592697089749,-0.35786315351191317,-0.23104123761596815,494.00407610426646,496.1994622926485,508.44175724791484,downstairs
15.125208681135225,0.7217909820184335,0.5585811060049786,8.22232841775168,-0.05797388310875482,-1.046395688819342,-0.4176641630858251,496.2635826967278,467.955876885383,429.1225014361239,downstairs
15.175292153589316,0.6457763711181148,0.5226448823992339,8.793265260353087,0.010657743831155485,1.2172103002919439,-0.6937326473939889,465.5245154417378,466.76645233607456,489.4034790779393,downstairs
15.225375626043405,0.8685189016078375,0.4522124323257475,9.238256713024697,0.3497073468562505,0.3957117848745619,-1.247412071767497,549.7999566968457,466.4727367114975,487.289570782677,downstairs
15.275459098497496,0.5886502196269083,0.2467771538614127,9.649271208363317,0.7226604189406216,0.7811299564641311,0.7637803679844308,499.82450807605255,539.6909956841323,502.8818918158719,downstairs
15.325542570951587,0.2916895036123568,-0.26338378648274674,10.171242310033978,1.158540722695983,-0.5759723464941167,-0.4011879436373939,527.8984686627242,513.0565098331948,521.881818083115,downstairs
15.375626043405676,-0.15986549091279673,-0.13967217037646013,10.985888428652276,0.15923774794370416,-0.417935027591741,-0.06445011747770124,510.9517811737005,485.0483338778595,522.9979431703638,downstairs
15.425709515859767,-0.7394607939674268,-0.5131454094493324,11.115829635121687,0.3425906819557682,-0.15145516027169378,-0.3615302879460243,504.11834473877536,517.7263011819224,463.550411000967,downstairs
15.475792988313858,-0.8761119939632834,-0.3562535996478639,11.229229990072456,-0.8555579078601407,-0.08363996292614947,0.6286585233117222,466.295305427924,458.89072467409346,552.0783364157345,downstairs
15.525876460767947,-0.937757548488841,-0.6768989923588722,10.719171592340995,0.11598590622852004,-0.37168175542604687,0.36147539206867013,493.0224767609459,513.0799618412068,517.7079208324615,downstairs
15.575959933222038,-0.9340540842050915,-0.5233286083027238,10.516109243072677,-0.20460143570301437,2.015027900311385,-0.9806372811482725,534.1235468133754,516.1607761625909,534.4570232793983,downstairs
15.626043405676127,-0.7476136131070623,-0.2192677798228751,9.85684733539816,-1.2528771870320972,0.09730090251337961,0.2899590607488914,547.3991872300874,537.5130571577123,479.4073047237842,downstairs
15.676126878130217,0.06851555351482554,0.2575348729445739,9.177778467796184,-0.5280401546011927,-1.6932230746620271,1.1340603439364585,480.67391370655037,545.9795695905581,553.1054431553446,downstairs
15.726210350584308,-0.12837207765798903,-0.18201165604906305,8.844229443976946,-0.6806006895147159,-0.33150523506010426,0.04823195832322929,506.2920156778867,485.10730001139103,528.3846960210232,downstairs
15.776293823038397,0.5106963791912029,0.25105712862808394,8.697563505232127,0.6238957152530935,-0.27440007973255715,-0.6177269541855244,478.06552067813465,482.30701796876315,527.6433284772241,downstairs
15.826377295492488,0.687814340602058,0.36773183250214636,8.458788265308423,0.19698989351971805,-0.48662467651231817,0.5203717357825356,469.4243295316282,532.3497090263988,438.74359130116096,downstairs
15.876460767946577,0.5500461664421928,0.37024172102724273,8.633847151981634,-0.10573417718023846,0.12462399603734542,-1.0951566872669225,500.13551037793974,498.6337708119454,470.7526659105192,downstairs
15.926544240400668,1.033602536369161,0.18829030694840249,9.083911741085512,0.16382851714622063,1.0976437212692276,-0.243456004322511,463.5567806995032,566.6640780085943,599.1871018001264,downstairs
15.976627712854759,0.9504229956469649,0.2663993556661896,9.465392836149016,0.01599701665086077,0.04909273326184044,-1.461382159165523,506.39100723826044,546.2846778650646,497.49253313557796,downstairs
16.026711185308848,0.517364498714451,-0.01168783909790265,10.20293764245995,-0.1768270056232441,-0.026578376492091556,-0.053224957954128266,460.3937067547153,494.0845291223757,481.0257735914212,downstairs
16.07679465776294,0.15854053059512768,0.05913348920941125,10.929614900381257,0.9258978336458102,0.23896956121013224,0.3322083458352537,492.97317721081856,459.45211957658654,470.5039439295257,downstairs
16.12687813021703,-0.6971185033086411,-0.5571016708398231,10.956678409362834,-0.7716626917102356,0.8595219138374032,0.08033640461418637,472.04101407566975,472.87173576942916,534.6187363036579,downstairs
16.17696160267112,-0.5241321939152253,-0.5317566969264298,10.898875533520561,-0.5490924564390146,-0.041406443686971044,-1.0358694246804125,485.3695698455564,453.0173016852684,527.2697790681638,downstairs
16.227045075125208,-1.1959980747797556,-0.8764359533695631,10.944096161779793,-0.6131842703697037,1.1199474762480504,0.7001041593206012,502.5541427855014,578.8885055992374,484.61987157386375,downstairs
16.2771285475793,-0.8345725575276773,-0.29260189536119463,10.554517680246347,0.19819219023010176,0.26343979317963745,-1.0223585166246036,516.5444331659951,528.5401578981212,489.75349232517635,downstairs
16.32721202003339,-0.7959515268621151,-0.3114046541236622,10.220829167796357,0.40333869974141107,1.126155449073175,-1.2135823046439342,486.63327296145883,481.2067088926999,475.24036277859693,downstairs
16.37729549248748,-0.759747227350692,0.11016955900459721,9.326330776839393,0.07361618468728519,0.5710605932788061,-0.25458106823447735,513.2552308121968,479.4467509481298,472.707787168939,downstairs
16.42737896494157,0.32576473179022924,0.20089863999857635,8.783134212720356,0.894529292032059,-0.6326121485545321,-0.22329290588712594,469.22952613265903,448.7357619684743,552.0565965731761,downstairs
16.47746243739566,0.6636279472784783,0.31295490002683635,8.165319672034302,-0.4437341577893056,-0.5397898357964351,-0.8378920778616167,502.4305206477535,481.07888470433824,604.4108206292417,downstairs
16.52754590984975,0.6560224845612286,0.381341561188973,8.226131480987297,0.8423527614808489,0.7250747207720554,-0.8218303834008004,541.7621457687217,530.830828673392,529.0064884752143,downstairs
16.57762938230384,0.9699110213400147,0.8292200752005598,8.384077202957611,-0.08381754278158468,0.6074855781091041,1.121415167451161,544.3074446890292,475.3643293945257,465.26337427646706,downstairs
16.62771285475793,1.3861017018000772,0.5341697001658509,8.542302128173535,-0.18318367157724846,-0.14871198596027813,0.5320357974081473,435.69899493204156,495.643788772383,561.7545263445957,downstairs
16.67779632721202,0.7012663484227586,0.265487065298481,9.400574197002427,0.5404189591965876,-0.4855816127076424,-0.6221112949556742,463.22187559200387,579.2638515814426,557.858097947462,downstairs
16.72787979966611,0.31709200043372593,-0.3380228527810788,10.167698723515311,1.625684885001642,0.08422417015674796,-0.27741436454077517,486.0188183103762,461.6462533474148,481.2884193802133,downstairs
16.7779632721202,-0.2126033111178987,-0.5840350025238641,10.426006460833156,-1.0389157281229289,0.8068849843335986,-0.224415018908645,497.4627839766302,557.2439905384958,534.3342229983034,downstairs
16.82804674457429,-0.1610156096528646,-0.11058542114355374,10.807568616082708,0.7801711269996592,0.4519309257285985,-0.2822786715605869,457.89422414178995,458.0726808759152,461.1131071803999,downstairs
16.87813021702838,-0.6007738117091718,-0.6093305994081097,11.040427343451192,-0.5757655322730332,0.4204886519832784,-0.581045434003504,494.6763810120258,472.20436103899686,533.9254579067804,downstairs
16.928213689482472,-0.7205861668044937,-0.44182799083763197,11.08466260086124,-0.6316815346157963,-0.18384376488777818,-0.12389547658733104,485.259305403151,549.2962756925367,501.75415254293176,downstairs
16.97829716193656,-0.681064825623609,-0.5191724953093044,10.709376466602404,-0.9704848580389285,0.4022480883513579,-1.3950730899717498,532.3034075315002,532.4573079016557,428.3437166284053,downstairs
17.02838063439065,-1.0257362019744423,-0.18895503851647394,10.207523854869132,-0.5006185203607945,1.1578662314196828,0.06707030362633423,525.7063282043894,586.566740420617,492.7552850034166,downstairs
17.07846410684474,-0.38263580918930773,0.1313925693753759,9.559395439502683,-0.1301198035360449,-0.3277155457958947,-0.4242527181192816,478.4056364080892,433.3633201532597,531.1413792713057,downstairs
17.128547579298832,0.06766864564341458,-0.07688202772220476,9.021624972927917,0.328907856300221,0.6519676889544492,1.0727420833475696,491.52429667158214,486.56505099366524,505.8913820602025,downstairs
17.178631051752923,0.5624594214356115,0.2171137572502733,8.761215631990494,0.43452345931729536,0.41672151443801353,-0.2865237737966395,509.0396090862522,491.7637706413651,464.60897759237116,downstairs
17.22871452420701,0.4365685261382252,0.5177643909620799,8.517659100251812,0.0713897454289539,-0.7105299441244449,1.4387898071735545,604.3787955535618,513.4008560757111,516.9256526753389,downstairs
17.2787979966611,0.9111982597925873,0.24933984535924597,8.337944616068809,0.9651941246882009,0.1224193241958569,0.8604865660276666,540.2808423580445,503.8822728968832,458.46594561661607,downstairs
17.328881469115192,1.15315690610908,0.7968764099880785,8.825752394087305,-0.5228894153499667,-1.210172549556391,0.748713916428637,535.2905238207596,473.17021621391035,538.5813179113634,downstairs
17.378964941569283,0.5966246712259534,0.05383065753647853,9.335697218028788,0.10431952015737607,0.13056299201746546,0.8080815960406094,517.3181989363309,486.46684285624553,508.33390916799027,downstairs
17.429048414023374,0.38511127146109375,0.12153021901064193,9.905410233319591,0.16118802881372934,-0.08030039541109482,0.1536583623832264,516.629255163665,436.4297971133279,528.9589569949135,downstairs
17.479131886477465,0.07217368091658162,-0.259923099641135,10.266084104088012,0.3101683118276643,0.37432889765438554,0.6865283699863933,494.0052603285041,515.8576926824672,406.4585778688623,downstairs
17.529215358931552,0.1181153779298554,-0.5182244479316134,10.799906617772313,0.2838445098440913,0.2560716153433598,0.20093027718304482,547.9779273624,564.3419707030929,475.49219332383944,downstairs
17.579298831385643,-0.5308461726059658,-0.5717029132531335,11.249783711832048,0.006993435780964041,0.6005712259212451,0.7634604881019473,508.7470653315773,486.366374549714,416.9051302825703,downstairs
17.629382303839733,-0.8451420115531117,-0.6637673971895031,11.318172582206161,0.036566099334547846,-0.17001355973818622,-1.5599864106966412,490.70353248955024,554.458228182529,495.4977923440026,downstairs
17.679465776293824,-1.1480951118845013,-0.7464464074662158,10.781642440719095,-0.2684589130476014,0.031518363551097404,0.34243368640493305,486.8715111090781,458.4233593966067,520.5141151231697,downstairs
17.729549248747915,-1.0225572489951382,-0.13207231275877473,10.057925891470614,-0.544906873818762,0.9027751978654289,0.34417569743247145,450.0434534240551,556.0720177538209,475.3431444949004,downstairs
17.779632721202002,-0.5427232061048173,-0.2778901436558112,9.529796754352427,-0.5633164056020757,0.0479864382384799,0.9141201438161846,519.3543878188851,525.7385544906018,494.89479531878663,downstairs
17.829716193656093,-0.5443863885038239,0.27749279896135337,9.166226397803419,-0.21032235058330734,-0.4240875073259158,0.24218092577886619,541.8972428769781,537.7018394541094,534.1946973773457,downstairs
17.879799666110184,0.07251723075002321,0.24072086070878104,8.854726269165798,0.14535446439868907,0.2919253166703263,0.5981252618777672,406.84937410829986,513.652010125075,463.046870845894,downstairs
17.929883138564275,0.48958315846080064,0.7745171551262755,8.648331304807572,-0.7129748500637685,0.9477759544168611,-0.6533459383604892,499.0691239740293,544.0516074062499,518.9578790428967,downstairs
17.979966611018366,0.6411244812683476,0.8397904004062673,8.514235518977317,-0.16066807283298326,-0.26150167939194774,1.312426695162399,434.4070759433215,479.14119711834286,443.02240273277675,downstairs
18.030050083472453,1.2326127667554188,0.5781602435903355,8.951929590789783,-0.12493859433394139,0.43030135895432053,0.5103235387256883,501.3359218611315,468.40935468057876,536.379411470419,downstairs
18.080133555926544,1.094437573933626,0.5251977403023516,9.082013274669944,0.09631152104235247,0.0632088088949914,0.4826085625827339,514.3088934164088,517.1093323680551,511.2237231153887,downstairs
18.130217028380635,0.26499027007681203,0.22858319756673795,9.654558407531987,1.0497792670452153,-0.31305156096286585,1.1702693520149914,486.41867324409577,574.3496698343818,576.2632705970441,downstairs
18.180300500834726,0.4094766039404659,0.16078479830786452,10.273425439260057,0.8515922854241259,0.33440125198669385,0.194379557315208,500.4245564565183,514.3640325244708,527.072939892585,downstairs
18.230383973288816,-0.17326596395984034,0.03271770024975873,10.713941008685982,0.5339559522676987,-1.154449442584704,-0.42073289332994485,495.1335082421369,520.5869119988878,529.8562716772464,downstairs
18.280467445742904,-0.2694938985999339,-0.6887008903460521,11.052011051784763,0.5555934721303132,-0.3551559987790024,1.826247692746875,510.5169040419765,501.3526250809234,463.6146478163394,downstairs
18.330550918196995,-0.9072116260750994,-0.5167901619602975,11.581595326257213,-0.1346663273163922,-0.2453631055741093,-0.16097482157229362,484.8297085542877,511.6827779920346,473.9456851997567,downstairs
18.380634390651085,-0.6230800606758463,-0.7778283360347698,10.988194570707885,-0.4226104734858557,-0.7548202225052261,-0.6509415587994729,507.7595629351758,458.27501586961915,497.53362037894664,downstairs
18.430717863105176,-1.1296496703443457,-0.6660118536597353,10.404737587456948,-1.436096486589434,-0.5315337720136705,0.28966147478060233,468.29199275682623,504.37686784352087,506.4414782734665,downstairs
18.480801335559267,-0.8392588129547067,-0.258255886454523,9.767904520915229,0.5242856616624556,0.24368860466708953,-0.3087412945172431,403.77383106759953,471.0649176779038,512.5040322127438,downstairs
18.530884808013354,-0.6073009639529052,0.03126737097760675,9.185019311430693,-0.5196461890597901,-0.26634190012528486,0.08764003471209099,532.936635810518,417.6729075893663,485.4200303837009,downstairs
18.580968280467445,-0.05388852657556295,0.47582889945996554,8.535208599555789,-0.11575097677138474,-0.2763427129516466,-0.02986528585718279,548.6062244956495,503.38321913607024,488.6497283259824,downstairs
18.631051752921536,0.088269425981455,0.49647418794408826,8.32604448709092,0.19608982134718514,0.37455039858671696,0.5686940355581813,522.9258052602435,454.47688314784375,480.45411982502026,downstairs
18.681135225375627,1.0269892588047935,0.6602347362683298,8.120261612900322,-0.905385250066337,0.12779080103757112,1.4075533304308172,499.7503626896283,451.4265100743961,446.4969822971227,downstairs
18.731218697829718,0.6925376306787513,0.4830185689624277,8.506916336993875,0.7407566901116801,-0.5357860000038328,0.46302279341240893,482.30145550121927,546.8755329090478,474.05374202855734,downstairs
18.781302170283805,0.8400880331519964,0.40860396782874026,9.183144231858314,0.8869509343736143,-0.30546343969307405,1.1824877165773209,507.6681644345498,525.3117135729547,446.3706008108278,downstairs
18.831385642737896,0.5722626337026923,0.47578255150335225,9.915747576298859,-0.32323654344803127,-0.25641025355294805,-0.37510056378425793,511.04177937746914,508.789105142078,472.91766768927323,downstairs
18.881469115191987,0.4600217309694315,0.16506344435930925,10.19720198694774,-1.0008449894457272,0.869532560092472,-1.108797165322857,595.8505170694389,531.5316532291899,462.2461429246378,downstairs
18.931552587646078,-0.0731469749890846,-0.022726680373822805,10.463920829979756,0.3401380406936531,1.1426237942038837,-0.1415913779135846,518.9829417130785,496.43531347267344,500.5159929470498,downstairs
18.98163606010017,-0.29894559123267694,-0.6368506781615364,11.039568196812715,-0.16830631435428042,0.09651507602932276,-0.3548663816878859,443.70653218740847,446.15997995239456,479.3568048884666,downstairs
19.03171953255426,-0.7417334398857122,-0.44335447691027446,11.309166186132167,0.4627612088140066,0.5894308436059573,0.5048624579902246,513.770495526433,535.1287204860494,525.2888556767168,downstairs
19.081803005008346,-0.8777461104690395,-0.38822814383829896,10.958442860580469,0.6351819350866013,-2.1121368248508534,-0.6771848781713734,534.4333202987356,499.90337834282224,442.11725878469224,downstairs
19.131886477462437,-0.6833046439935335,-0.753206660794911,10.878943837923337,-0.8245160745742822,-0.6924745535863018,-1.1726074736231706,390.4085709058632,506.489462064762,471.6350975660831,downstairs
19.181969949916528,-0.9819829172424621,-0.06347108650417277,10.380520971192377,-1.029280156514551,0.9139487383736989,0.4118831061411862,515.0870456784228,447.83623131022654,487.91068358762396,downstairs
19.23205342237062,-0.39361685859499274,0.02446275889067058,9.901250162468509,-1.4784078787025927,0.8653681523724498,-0.45642446056608976,454.4461438234813,497.5213832413229,443.0803788930908,downstairs
19.28213689482471,-0.0231281001492471,0.1989842625556641,9.366843444202345,-0.11573672702927267,-0.09468170834425017,0.6154725691448795,525.5709081248672,482.78873634068583,534.3911988542045,downstairs
19.332220367278797,0.10297871825354106,0.08104139548568906,8.61192230503756,-0.22463365619777953,-0.3011687616288009,0.6500627741076297,442.12441771677726,547.2921000429031,574.126146786942,downstairs
19.382303839732888,0.7857391552422737,0.36422006976158605,8.155307549088286,0.059286365119836634,-0.04861764818609184,0.31140088680838196,451.8356458653719,527.269449266983,527.2812350770657,downstairs
19.43238731218698,0.904377412908122,0.007927035825553541,8.327473746200805,-0.5539200502732048,-1.769864815998417,-0.26020519233009065,517.8942376309142,530.8020900360624,429.4619832915508,downstairs
19.48247078464107,0.9122089505552025,0.5484845290663869,9.172065582265228,1.165578622071994,-0.15230219140665122,-0.20163889312804228,455.3445952693331,443.8421125692444,474.1905731782575,downstairs
19.53255425709516,0.9573355359455126,0.3090344587594952,9.172646488340753,0.16944953674939042,-0.5039781012970346,-0.2517641569104181,379.38539188109365,541.4268865417224,570.8284158996187,downstairs
19.582637729549248,0.6623773473266517,0.13941451562398985,10.007420446557624,0.7712355630773953,-0.0914566290247845,0.011543389659088162,489.993572088911,466.60301789028415,516.7934548325773,downstairs
19.63272120200334,0.07768973402607189,-0.44259715543095685,10.718740512992321,-0.48333984426883364,-0.6924132967837673,0.2933740858299098,524.4226238141194,457.5510607921819,467.7458285895257,downstairs
19.68280467445743,-0.5103820222649837,-0.6058791200221922,11.121524233419512,0.13644371827770727,1.2494851329400263,0.0799337852583889,512.012235903476,472.86818678674746,546.1447264449338,downstairs
19.73288814691152,-0.7412031925602038,-0.7724297523337755,11.015919159123461,0.4661580562755377,1.4838116765180913,1.456534163868688,447.6662717915149,451.0599318973342,576.6121156788138,downstairs
19.78297161936561,-0.6097027531505644,-0.4563327427778124,10.942872052335167,0.12096596875741147,0.2762580132989746,0.942293777639976,447.20254154691287,443.000559964304,496.5668469345736,downstairs
19.8330550918197,-1.046474425718345,-0.6426463894319359,10.723128656649159,-0.32867516438978983,0.6422600385616473,0.4728584074580559,512.6952262049415,540.1268589071528,470.33119070814735,downstairs
19.88313856427379,-0.7757065169358253,-0.3414327697513545,10.0358786846094,-0.2743334475969195,-0.13069326362306377,0.6898245976653051,523.2223352652319,522.999213202877,557.0392132570346,downstairs
19.93322203672788,-0.5761650827077555,-0.07776568204461015,9.501692002479572,0.7795271369088482,-0.30978182505284185,-0.6249897318458518,565.4641299502628,505.7764094340778,578.3591683027895,downstairs
19.98330550918197,-0.05832779424062519,0.7298012712345341,9.257420142359148,0.0561550145350451,-0.3660234296126726,1.4581685969810314,475.0830257313858,424.579453603546,430.5738173095189,downstairs
20.03338898163606,0.07863727400092942,0.3228048316593302,8.383541870993199,1.4047269183555497,0.4521746292905477,0.06704610840969359,536.6108866050317,476.1913461280395,549.6025642818008,downstairs
20.08347245409015,0.47758292099051863,0.2503732715067747,8.59546535237775,-0.23929270679040374,-0.2208672445064699,0.12845244251341256,538.4850034696774,544.5533996117731,548.1150394348205,downstairs
20.13355592654424,0.7656928946459051,0.2894937097033896,8.704833080666223,-1.7426991061915778,-0.46626874754658965,-0.7601631472809924,535.2688075728416,498.2897435879642,574.0908938633693,downstairs
20.18363939899833,0.5660692770462825,0.38514702120002964,8.711681116518871,-1.2134463051073876,-0.26089887987389787,-0.5671901902372157,578.0350225551014,595.9885582129383,504.03839290266467,downstairs
20.23372287145242,0.5022930224330943,0.16213750842960611,9.101364734275394,-0.8509957348604907,-0.7605850894947324,-0.8180026326018909,493.249165910011,516.80162496057,547.623015425109,downstairs
20.283806343906512,0.3194429128029999,-0.16834476182595834,9.944586286958689,-0.45322268907121016,0.037063794937002424,1.7317489267612285,473.0405639680784,491.63119570963875,509.88465797922237,downstairs
20.3338898163606,0.06969028790035127,-0.681291578778511,10.410471886172935,1.028566585743887,0.17446384218496297,0.3360422851584727,503.5440014559004,457.0412632883621,540.065907971548,downstairs
20.38397328881469,0.09618998364438476,-0.47744629940003863,10.833863094840362,-1.3238477156164654,1.1606912336548838,0.17303741550835786,509.97448189663925,483.70240786844465,550.9781246414645,downstairs
20.43405676126878,-0.6391180582546672,-0.6850441507647309,11.14904817591552,0.013883807032888879,-1.5488725733930528,0.04222348084765371,512.7754982557917,526.1530789130019,468.7142441079757,downstairs
20.484140233722872,-0.8722817797876954,-1.002356071653323,11.227507128522662,0.32669534273330386,0.9598960289729,-0.2305932808820045,437.29144688830365,575.8460824309877,525.8373316191517,downstairs
20.534223706176963,-0.834594408021521,-0.6267050219839851,11.066702073022572,-0.5693386695331832,0.45950961158903525,-0.48171830954079536,593.2118359070248,571.4595451212472,502.15141242413495,downstairs
20.584307178631054,-0.6510304558216433,-0.12013447523320359,10.505390401539806,-0.013459873524824972,-0.8713554644874313,-0.14944205212387823,459.57436838785713,520.2754577358234,505.5099608266661,downstairs
20.63439065108514,-0.3939702407206651,-0.7384590201178913,9.474285305905802,-0.6797183387885609,-0.8384705846789229,0.07198925133771453,479.85156919526065,528.0471928307301,554.2035450154024,downstairs
20.684474123539232,-0.34035653904597646,-0.007177320454276978,9.153185551033332,-0.8752016950913941,-0.8530932285314735,0.5484876615910317,469.94349629691243,436.0274126677546,528.4597797595013,downstairs
20.734557595993323,0.07070886282700246,-0.07216024032832846,8.7608242381187,0.8026297557247561,-0.5636290197293957,0.3120422941192581,435.54957406156717,411.7754812955151,487.74256041487973,downstairs
20.784641068447414,0.5383858605025128,0.5731582144545126,8.680960308680639,-0.21913577915611146,0.6959255206712766,0.7526187394990566,491.90068166570006,545.0796686079011,496.1278265864193,downstairs
20.834724540901504,0.6980253218933463,0.6433974499045418,8.598786079614445,-0.7187965904652751,-0.5729952998769812,-0.02430650621750519,571.2146513201889,476.5576286736443,421.1451879902256,downstairs
20.884808013355592,0.9484464763614556,0.45695973391520955,8.80216425137625,-0.3794309549525145,-0.010218590694453411,-0.4093110993356254,509.71623567171264,553.1981465068353,536.1900458597898,downstairs
20.934891485809683,0.8767792472212945,0.3171162206686142,9.16735932215764,0.4016757573211647,-0.21807262529213325,-1.0224670535862037,536.558028939995,560.1417590942679,540.7052015532868,downstairs
20.984974958263773,0.301301350274022,-0.04626271711076721,9.741993325425417,0.7365104639700069,0.4858079252003612,-0.07140286982836645,471.7387011972441,460.2114550493512,540.5283690623562,downstairs
21.035058430717864,0.5645910850079388,-0.2821275670133086,10.33332385626136,-0.6626654524496214,-0.8760874556303113,-0.4454325492210071,515.8932196137818,436.18875455545856,550.27988154286,downstairs
21.085141903171955,-0.30896021861121925,-0.5347558258466218,10.380425558341116,-1.0780194521657864,0.7214014357862136,-0.06569768935086683,523.7706138797448,514.6368025998215,450.9821996914252,downstairs
21.135225375626042,-0.4529917956712988,-0.3831184991837983,11.050646390016933,0.7453315214307313,-0.5897449963262575,-0.5631833045865562,518.9732978926585,450.19770238600483,546.6798353128104,downstairs
21.185308848080133,-0.4477224582637547,-0.7360323530008146,10.984519580660292,1.430645088487647,0.7449823786387494,0.1441729941700731,446.78857347490714,483.3505910471725,487.2289646744449,downstairs
21.235392320534224,-0.703577529237739,-0.253959891180999,10.836957326029918,-0.34851550533847847,-1.3301606098166574,-0.010884487714155018,506.57839105190857,510.97442969019016,507.3233028808965,downstairs
21.285475792988315,-0.9165552579718178,-0.6913687033134059,10.72679780353341,0.6627971189267247,1.0219104628151647,-0.5860552603369878,562.1027925139443,465.76558749692913,430.7674053783691,downstairs
21.335559265442406,-0.6565035569745015,-0.6391443430624579,10.204056435621798,1.0449319868104419,-1.3934875912163325,0.7736709911185007,473.1196294568423,483.084021794803,497.92581342408766,downstairs
21.385642737896493,-0.2546826941299644,0.048021478619219765,9.547498555261063,-0.6172427584700086,0.8614508340644735,-0.48583806047839995,533.2808430833071,516.468386532768,524.732633968755,downstairs
21.435726210350584,0.6590439733630182,-0.13803626210868825,9.172378414365348,-0.31714133929653504,-0.4567913266461077,-0.3933990499201231,483.9309425812054,416.11349466072943,470.72937176544286,downstairs
21.485809682804675,0.4770267333442442,0.7302242089056945,8.506405891529335,-0.07654459694485727,-0.2458234259097376,-0.2239170869316583,509.41509297037885,511.70914423229027,577.1135288938299,downstairs
21.535893155258766,0.6921124985915684,0.6563290316654937,8.60089811542748,-0.8761009367328182,-0.4056468681020481,0.4879921378189978,557.8531481026992,449.2492839445523,451.80848154514183,downstairs
21.585976627712856,1.289790840429237,0.5584529832786388,8.722138339721749,-0.4118735286837996,-0.14550161616051654,-1.3796410641483574,553.4985494810139,428.7062948839184,459.1008501491141,downstairs
21.636060100166944,0.7798516747858095,0.17871864099190965,8.93760407383838,0.6829528991499396,0.4167269129616367,0.7137036876942766,502.5855322958051,445.5452839700367,527.1687010896529,downstairs
21.686143572621035,0.5198893163144643,0.16994762769702543,9.579709750111421,-0.20604669988873098,-0.2021531040614738,0.35897327925294453,470.05336853079297,439.2604176956852,392.815091981367,downstairs
21.736227045075125,0.6311698347495569,-0.18167161272131008,10.144674953093313,0.5329561221523422,-0.39431332329412955,0.20057441981743337,475.8587279610329,610.9176090091056,518.081886813128,downstairs
21.786310517529216,-0.14439939835785107,0.01780079143642732,11.037292240775429,-0.6246014684541936,-0.23967734515606715,-1.5757988688169184,466.48306128347326,464.49857646469496,421.7418205637734,downstairs
21.836393989983307,-0.2593287201838401,0.09258701467169317,10.945876170965597,1.4810338638309322,0.29412418463169926,-0.16644725892920864,463.7784255392032,502.7121194458506,488.0936119460746,downstairs
21.886477462437398,-0.5909866157425976,-0.41531798294543915,11.099765311891568,-0.21521707409749294,0.9079911157026082,0.3538919416223505,567.990009099525,411.32881545973635,542.3692563471403,downstairs
21.936560934891485,-0.9894982602686987,-0.204376188996495,10.902309773922582,-0.848270036025089,-0.6922733005730297,0.4265394757482358,518.0344687976395,492.70643765425575,474.21894522696635,downstairs
21.986644407345576,-0.79783708469166,-0.658047958312558,10.441111752982684,0.6540547781723643,-1.7830174596086525,-0.6226768412734602,471.82795559194216,444.11033200083614,489.63117916452427,downstairs
22.036727879799667,-1.1356406820494667,-0.47997400992599576,9.938103179348227,-0.9902050736821277,-0.17438790409692537,0.4224471163749914,541.4828842146043,497.19778087632983,477.6611021777442,downstairs
22.086811352253758,-0.5361248321343136,0.3059540666662925,9.568856583337354,-0.021811863648036216,-1.00822475434951,-0.12030358798956668,415.40998109161086,631.6564823570367,465.8364147136198,downstairs
22.13689482470785,0.010933282648479078,0.5897866714843398,8.898680390306417,-0.3692976733295713,-0.2022338595286023,0.5994718054125968,475.3790689152318,467.65819319812675,512.7141507515321,downstairs
22.186978297161936,0.591187312172403,0.206761513867722,8.57970169829719,-0.5090363059444007,1.2916453308627256,-1.6411683339339587,475.059841625375,460.56276730229797,526.1217053928339,downstairs
22.237061769616027,1.0172891598730551,0.6670107576108286,8.064591369081128,-0.357189063134914,0.5602273070362144,0.9514499267721339,540.5334681638169,552.8877045293073,448.72154613685876,downstairs
22.287145242070117,0.6108618569338953,0.4644702195137196,8.35503104200828,-0.5752836168619917,-0.6109334835771252,0.2541502393539873,529.154211420159,517.5693980797727,432.37041733745167,downstairs
22.33722871452421,0.692514724601212,0.7406387202519138,9.054038060428255,0.1880906119796548,-0.7688129016745633,1.642033323798685,455.37121977526914,466.2018658465483,488.3435978543567,downstairs
22.3873121869783,0.8654452385985991,0.044748039221552016,9.282046017909575,-0.014349854842816805,-0.4635832951252293,0.837001457078348,507.837375284137,503.63670383633905,467.29734101624285,downstairs
22.437395659432386,0.4993694975201807,0.17860135689991924,9.855674376907341,0.19118397921742875,0.7764507379167824,-0.414560832206106,523.9861197177989,450.3806018287222,493.03537112582177,downstairs
22.487479131886477,0.5202839635881082,-0.11624738944231272,10.792960695154417,-0.5980503094773971,0.03856315973967098,0.6081573383223824,464.01460805806806,434.8956027442812,500.8361336037664,downstairs
22.537562604340568,-0.2860090500747487,-0.48085295838963665,11.201554671459384,0.0013498376848804752,-0.3777421289259704,-0.5524440808719681,462.78556572617117,455.1899954367115,492.5996047704178,downstairs
22.58764607679466,-0.7894544502831982,-0.014950218912483826,11.500427864989595,0.6498327785560558,0.9089118191923505,0.10184928174069639,447.80387827972476,513.2709398419377,501.871126449911,downstairs
22.63772954924875,-0.9481532080567657,-0.6709374737790672,10.872658925977664,0.7906141997475528,0.15314669515220874,-0.26218703535829013,484.28498998779173,505.1503793201121,532.2132177185263,downstairs
22.687813021702837,-0.9455943924852471,-0.6355397821452164,10.811212398365468,-0.03920171630224876,-0.18335579964898616,-0.8529608973177825,485.2366056121154,419.76561210239583,522.8966709601341,downstairs
22.737896494156928,-1.084387275404082,-0.48028748690429973,10.664468394649138,-0.0948535783917953,0.29382636783726107,-0.385462069766896,598.0702863478364,559.4814412455246,436.0914914866618,downstairs
22.78797996661102,-0.263252458362141,-0.35539338695579803,9.598920918507533,-0.7239911994311283,-0.37739969683166513,-0.49550433052698717,468.5509336040372,504.15984139740414,573.5746921399749,downstairs
22.83806343906511,-0.5624179443020405,0.00572888879484959,8.501429856366501,0.22968441305075984,0.7793816958373881,-1.4632263440369162,523.644957905442,523.4687275061043,538.442011655168,downstairs
22.8881469115192,0.2751295414010594,0.11609868832623377,8.849837343391682,-0.37167217588075446,-0.09029176307405558,0.7641841458089654,539.9455959611741,494.69057023616165,495.21263583427975,downstairs
22.938230383973288,0.5635694345894895,0.2650929872007189,8.404993302691306,0.8370736521284791,1.0860784588494843,0.15843641496685038,515.7496765949578,500.30978381193256,514.0183540497156,downstairs
22.98831385642738,0.6750814504335674,0.6039938337287043,8.4071533172081,0.45339097985007276,-0.8181038984305651,-0.6393666051575349,481.66092353352644,524.0451860940663,521.4491230652307,downstairs
23.03839732888147,0.9053358735049862,0.4819392038592484,8.58164086223629,-1.6474539588289292,0.6292469324894953,-0.1733625987698045,542.5493532521974,398.93972948736246,513.075242263839,downstairs
23.08848080133556,0.7177159877438317,0.154991931538503,9.241149310633897,0.46444873268505427,-1.0522727344697993,-0.9314175497749763,520.1565702976935,494.78955782505744,476.7390107943878,downstairs
23.13856427378965,0.37650141525747216,0.5372435328540948,9.951097195194231,0.051526471008078924,0.04414579858183392,-0.6495586055001846,500.08261415959737,460.7894343675394,480.3597581462644,downstairs
23.18864774624374,0.18909079883683988,-0.17694377608990625,10.307465095241843,-0.13363175599302957,-0.5394679454380985,1.2899918951136906,479.56552464438744,509.89175384985305,481.63718337157303,downstairs
23.23873121869783,-0.3528841979238422,-0.4355958960639112,11.368229579283991,-0.19179206839076818,-0.6758994858189031,-0.7915424266043508,540.4322814459094,478.85423548058577,526.4349609555434,downstairs
23.28881469115192,-0.8412783487120614,-0.6640408943233833,11.178591139410896,-0.9380385652723624,0.4019160513088242,-0.32102962784223216,512.1583901681174,466.41582950393274,438.4848899148845,downstairs
23.33889816360601,-0.6337212176760569,-0.38996838758062746,10.893199038028342,0.17049791397577005,1.0396119336650966,-0.42386988534234626,477.6125198041384,530.3480674754492,415.1797918008286,downstairs
23.3889816360601,-1.1077212903277398,-0.8087133371341773,10.953410227188483,-0.6074439338611914,1.0373182025821337,0.49203056539625645,447.96445150166954,515.1800174957547,498.743941918311,downstairs
23.439065108514193,-0.9602616745156152,-0.5450599375282306,10.191725747799346,-0.005151856285690111,0.05946129466998657,-0.03064380675738944,448.74282343813013,525.8013704804853,469.99968996501315,downstairs
23.48914858096828,-0.4467515575871317,-0.30783295020928336,9.216734451758688,-0.08567597220524287,-0.49437949060619446,0.4994553705272302,492.6184506004468,455.5530194312798,464.8607395941875,downstairs
23.53923205342237,0.21902994542131576,-0.017224002754617412,9.351608598683017,-0.3717292564038687,-1.0506200224222322,-0.8201274504372009,476.2303617457956,422.1986239426582,512.5391040029307,downstairs
23.58931552587646,0.4974042596087613,0.22154733575612887,9.0968943688456,0.5191682963028472,0.5145692851052822,0.5638959736401908,475.68635316214215,556.8985163091791,523.3219063507252,downstairs
23.639398998330552,0.5640335699192757,0.19551068458603832,8.308916572312016,-1.1821950024963903,0.6191880639797257,-0.28020243731641054,513.5532742735071,491.5400101815776,551.8645435753289,downstairs
23.689482470784643,0.82529852916056,0.714812652611118,8.655178615624877,0.2641961427639333,0.05629971813789204,0.2537398325457931,464.8211298838816,529.3026952201355,513.7522633157521,downstairs
23.73956594323873,0.6193705413786643,1.0847380123624681,8.412158733714048,-0.06670335158913966,1.3554115564677207,-0.19275688472079014,440.91359213616727,461.47360360669853,472.2408513558361,downstairs
23.78964941569282,0.808918256557938,0.5222378174840749,9.11160771870855,-0.5515967971355002,0.9519648585028018,-0.7210777833240399,515.584716416801,486.35483677820037,545.1502091046983,downstairs
23.839732888146912,0.5996445269955245,0.4317399265585775,9.678902663786689,-0.729366664193659,1.0541544734456065,0.7158730977552467,526.4992589107391,514.4401788726834,540.2476682825888,downstairs
23.889816360601003,0.3223584847569835,0.021954078348475417,10.481026203362218,0.525741790168632,0.1255960762301033,0.019066942100587514,480.8482003385031,502.76279298501566,515.67647759421,downstairs
23.939899833055094,-0.12182728477913271,-0.1570662932613694,10.696558090726061,-0.28531333908244433,0.013420747605057709,-0.7657888426173076,419.77023579152126,562.0136572785786,488.41432494768503,downstairs
23.98998330550918,-0.20698885779776943,-0.41130488153430783,11.108430266872539,0.4138035603702839,0.2919752567299938,0.34860099024884844,462.9223556324639,459.15219675689605,476.73620812583954,downstairs
24.040066777963272,-1.2576677370774787,-0.6531857603446471,11.204146676505097,0.3286176570123989,1.3123095623319772,-0.3612042068962225,487.39667100980165,439.00605943812616,524.2483999541307,downstairs
24.090150250417363,-0.7778417074395947,-0.6119464080453383,10.572073021807775,-0.31890195159568696,0.7561617914456025,0.009163107584292491,470.3724151191185,557.8232291159303,522.2247692757692,downstairs
24.140233722871454,-0.8636964824854674,-0.5240204602383065,10.68244576793345,0.39809883316417766,0.5222917891524717,-0.8665681797141231,480.104956748363,477.8148027866924,427.25277504417045,downstairs
24.190317195325544,-0.8620315637996885,-0.396479024196018,9.977529160762234,-0.3266485425052435,-0.2300873513489039,0.026254617290706737,499.50026567859675,479.24720651592685,516.6710963044064,downstairs
24.24040066777963,-0.21761223695083587,-0.13489586947161217,9.418135843914948,-0.7817973615362193,-0.11806537373122584,0.2995157281234927,561.5431457907509,520.6581432688018,467.3742522559135,downstairs
24.290484140233723,0.2509132226160134,0.24383435209366944,8.83196404844622,0.4392903157076353,-0.19003222146673115,0.5536903379363102,507.6828796667028,454.96600995542747,503.6151819208461,downstairs
24.340567612687813,0.41392301015751437,0.5283595444888854,8.44499874107444,-0.373164602010744,-0.8368687906711663,0.23045097754895905,415.86849032847243,510.72439980229666,512.849643282247,downstairs
24.390651085141904,0.6954901055462336,0.9034712856716485,8.439413309330714,-0.9598080805652526,-0.6262699904620687,-1.1039567027354213,432.09940623495265,555.5075468604924,523.5367568903871,downstairs
24.440734557595995,1.1844585545942985,0.688538185123958,8.448214950902623,-0.5915696459098309,-0.7143161301359416,0.2184168065785836,462.95989807672856,454.47190939715006,498.76807703147466,downstairs
24.490818030050082,0.8502723796391506,0.48645567916631344,9.201352659174724,0.5378052068393789,1.3383727076080403,-0.6274192419798067,481.79592787891494,486.37476184395285,498.90105057922204,downstairs
24.540901502504173,0.24030090420756983,0.14586743331816607,9.453909299328025,-0.5282610912321144,-0.08426580143816634,-0.4657745932580126,494.13942964137107,478.3637557969626,438.38018803401957,downstairs
24.590984974958264,0.5001149041080115,0.06136356000530874,10.100432072417043,1.2767761702347526,0.8550340137673729,-0.09340706365917541,556.2107307046103,480.5573747506884,517.4871511455347,downstairs
24.641068447412355,-0.23017422227626605,-0.13894904536213515,10.526696067265146,-0.26502583492716725,-0.08513569951123863,0.5138109491225018,487.42927556938406,506.2187214865935,546.6648789518994,downstairs
24.691151919866446,-0.15785994933981895,-0.6022144581582929,11.063169888403118,0.6022758609299913,-1.0583667628697866,-0.15705877560135978,513.444605683305,493.23347901183405,551.6745215551048,downstairs
24.741235392320533,-0.39994356341018744,-0.7086411121882723,11.378338697525527,0.15289239741664362,0.7266931211093548,-0.6478958369369412,490.9046627572079,442.772249466543,442.3491512926418,downstairs
24.791318864774624,-0.7080400925007851,-0.6131056784922744,10.862222522728228,-0.23094780829957962,-2.131411712824564,-0.010275678081003416,509.16346050244084,488.13302747071896,459.137759080063,downstairs
24.841402337228715,-0.9047108702749209,-0.516444755061173,10.634355602706016,0.739401274550081,-0.9226245450882921,0.14020301814323616,498.67648050427357,483.68819380299493,647.2947276388333,downstairs
24.891485809682806,-0.26356056874145306,-0.013761237505985902,10.043247809313657,0.3524026190537808,0.044900337247699464,-0.27236367242514836,483.35213470162955,480.1127211248015,491.7057308807943,downstairs
24.941569282136896,-0.5762746746901732,-0.134360105467781,9.294506291202465,-0.5708252042577663,-1.2248986550188714,0.11156607675950941,495.46480408697477,552.0134182821686,567.9394149085548,downstairs
24.991652754590987,-0.12997414010710884,0.14395721167970807,9.137129705033134,0.06129338731744756,0.22029405996570062,-0.2530183277528893,580.7376182377267,481.9010916363667,520.6440204630379,downstairs
25.041736227045075,0.26414439074911383,0.09550072165552231,8.892631423267474,0.5473295670238822,-0.9825435167643344,-1.314441711201608,514.3484102962342,443.084147181369,516.6357547110515,downstairs
25.091819699499165,0.48222555623630065,0.4055128046966697,8.546334740573887,-2.157611819333415,-0.3872721544225892,0.25921203788352287,372.7445243014076,506.49619342609856,535.3658974970555,downstairs
25.141903171953256,0.9402618781555366,0.8805277198200525,8.60672865660451,1.1468879205799094,0.45493899914710517,-0.22228751567446056,553.9959849122321,478.42076476010953,500.20175685394827,downstairs
25.191986644407347,1.2425138514424527,0.42207104369138915,8.652379246734892,-1.1834035519544859,0.2749318661748139,1.0888235225622753,467.2945809291405,504.78829375771494,474.2433156041741,downstairs
25.242070116861438,0.5424238047825255,0.5214708817662721,9.030353657849108,0.31050371231616347,-0.2631574163832028,-0.5989140803694238,458.6507991713706,513.9251668090168,504.3834674211889,downstairs
25.292153589315525,0.7426670109152614,0.2437948090054447,10.08976521094599,-0.1203760743018241,-1.090001753434222,0.5370699168978997,438.17665690744195,498.7579878325713,473.8442147141696,downstairs
25.342237061769616,3.2321583334410375e-05,-0.24924500112976783,10.206925819252877,0.5144055361629865,1.5413640907989945,-1.18517816558562,569.5245507072985,572.1857754114085,524.4923398743349,downstairs
25.392320534223707,-0.34141629902730836,-0.40828887772812794,10.811073695186632,0.3682350720654539,-1.7087296061580437,1.6994122973013397,492.30877123456577,512.4401753420918,490.1518375819513,downstairs
25.442404006677798,-0.7005098893059287,-0.23926926969328055,10.86343975063703,0.2745932793129111,-0.13168723763731097,0.359758852710602,475.01754628797613,552.6568295112543,594.2454533895545,downstairs
25.49248747913189,-0.8882958273514424,-0.801374921490555,11.094831852104207,-1.1206834061982038,0.9474323170112515,0.5796292727690242,531.4646560225171,516.6842264269765,497.577754632452,downstairs
25.542570951585976,-0.8336803202744034,-0.42172481582854093,10.609436600006351,-0.11011878885036583,-0.9323574691453785,2.093995714631155,533.2176822547679,534.2059615365005,523.1505897098251,downstairs
25.592654424040067,-1.084049648613218,-0.23620488635420162,10.111961292208523,1.0314661664904023,0.8142197563166218,-1.2164203697873317,537.4032831467563,496.4722948764448,470.46148231386843,downstairs
25.642737896494157,-0.5722293189870403,-0.255546717688374,9.754387347608743,-0.0970218084656776,-0.33081695552798884,0.04684666624958101,503.33509771840744,515.1522104956338,449.65502222806714,downstairs
25.69282136894825,-0.15733186580940384,-0.20446295936775843,9.505516124512287,-0.5331673333794672,0.6726664734791544,1.7586250103117922,546.2871030329451,441.1372801602539,505.35210059105646,downstairs
25.74290484140234,0.27096162728775436,0.4808696767306657,8.717319830550123,-0.7221721657368857,0.4063690800000352,-0.5504745891351431,530.3674734207675,525.6493935182508,505.715788598397,downstairs
25.792988313856426,0.5620581956870027,0.48966859525201756,8.485020676684705,-0.6916784514543407,0.38763676060495106,-0.4654178110787766,500.70947700997647,522.2048161013228,471.8654648213991,downstairs
25.843071786310517,0.86414500074409,0.6001599783108937,8.43735274024304,0.025112527409404995,0.1574861164783405,0.7243620419406543,513.8366238372256,490.7405656725559,464.7646263054751,downstairs
25.893155258764608,0.8505654644095829,0.5514374987406758,8.89717809517722,-0.4024009201272474,0.957657333754695,0.891968287941053,476.22972537523776,566.541972612136,548.3752943885504,downstairs
25.9432387312187,0.9896844212455825,0.24493699477417874,9.396087733954852,-0.5793367528908495,0.41285064139394756,-0.04124959085727464,521.3924343950175,519.7093062900482,485.78536270070657,downstairs
25.99332220367279,0.588422029849157,0.06109916978335134,9.783255972930545,-1.0927119195320756,-1.1603575861212265,-0.21408959483600393,602.7303972655341,547.207849723968,547.3516599980081,downstairs
26.043405676126877,0.5203886706418884,-0.24320801307972367,10.37285079751994,-0.26521842070059803,-0.05113725573502998,1.7145563254474594,531.2937986172924,546.4235207942022,491.49802343706295,downstairs
26.093489148580968,-0.24471971010209448,-0.46763006076636643,10.7304404394426,0.542055922007863,0.3614326585268041,-1.3850783085658398,514.3460277713438,535.057197696012,491.7791251939374,downstairs
26.14357262103506,-0.4314397993399841,-0.7453223683793362,11.031025022804158,0.25379233388939065,-0.802608078468722,0.748673288486092,478.9645599065171,515.4945072213002,494.6390359325532,downstairs
26.19365609348915,-0.5559030036930478,-0.42333849293194326,10.967122864828333,-0.06731451495107739,1.490076161543924,-0.35413731826608924,511.5669384419424,498.9829363601866,511.5545060438878,downstairs
26.24373956594324,-1.2305614835235816,-0.6571310742601866,11.164694119371203,-1.2497486139997165,-0.20123123609942906,0.6878918438148703,481.7429372945565,468.38383371491733,477.52349474084855,downstairs
26.293823038397328,-0.9611754010911235,-0.6996418725065623,10.458829659042442,0.11274540122166697,1.0189810916757416,-1.1557201414571663,457.47486133533556,503.5676761896651,527.5759320918572,downstairs
26.34390651085142,-0.6225164037290011,-0.3783587914769885,10.087367488706997,0.10685827307198636,-0.8559074373144455,-1.1324095490623638,535.3122388786434,562.7568434993618,408.8351227789711,downstairs
26.39398998330551,-0.6658838720862681,0.1967240651470507,9.047682863435364,-1.5434770935014825,-1.2614598974783982,-0.519851326565209,472.39382767806734,506.1796067643971,490.8211233024028,downstairs
26.4440734557596,0.10233695285885507,0.02234317631130195,8.810537690839695,1.0235867473136713,-0.7598124263320356,0.9065353834606216,460.821936818307,529.6725717797628,535.4471187868995,downstairs
26.49415692821369,0.5392510464757269,0.9352990301176349,8.249576965073173,-0.6568170102392442,0.8384376818136898,-0.9788894780092671,499.9942474008002,571.6553784900564,517.2445923834223,downstairs
26.544240400667782,0.8856262959520825,0.4505381253861928,8.375003188875862,1.7959988632745272,-0.037932629432637435,-0.1081107110920165,488.08289409874385,445.20997337878134,540.5873399473709,downstairs
26.59432387312187,1.0920021680843144,0.498714240809188,8.39914687998512,0.19905325757181083,0.08585113526745239,-0.9809820211003789,521.776090470114,470.28263882149326,574.0708407363118,downstairs
26.64440734557596,0.6698207403250835,0.48954927299986045,9.221721745463695,0.7790472585843171,1.274870258567083,-0.7285689191653745,479.80971256364955,445.4915695881971,554.1471009654043,downstairs
26.69449081803005,0.36809013975053795,0.10563807911348236,9.905844243675716,-0.17802433367388198,-1.2556487415128836,-0.32282716241952414,549.3731012075232,532.8682047698242,524.7220758219634,downstairs
26.74457429048414,-0.004211299250167666,-0.1207863417846283,10.245426076391162,-1.0291821292661367,-0.023991312942899603,-0.06230721691236785,496.7331306449667,517.373971348077,454.8637860720084,downstairs
26.794657762938233,-0.36652698563713576,-0.44141601600852337,10.851437971260129,-0.5975164558566163,0.16569602946047834,0.703959343558914,497.6287922721859,499.6596231049216,432.7950388805186,downstairs
26.84474123539232,-0.40014089151386567,-0.36473136306342857,11.12949946871182,1.1149083106817348,0.08203331421638571,-0.05799929883474313,515.1840403503928,459.2112826931391,485.96637961383914,downstairs
26.89482470784641,-0.6244136163250094,-0.6005668184199227,11.40639793401196,-0.1273762657133723,-0.21811650789978304,0.45367413786555105,508.64980294577776,491.86986284554075,491.28866249741014,downstairs
26.9449081803005,-0.7824973022942802,-0.5168619686910076,11.39365850235007,0.17811150030433828,1.0789908988719639,0.3700140760428295,581.4834326871566,492.9687341933422,514.4364333158984,downstairs
26.994991652754592,-0.6461705561941564,-0.22075290854067414,10.655355145048564,0.9871972446285826,0.07114384053800345,0.18705536291792618,503.5176652765054,512.5152837040662,519.5031767578286,downstairs
27.045075125208683,-0.9779161947019219,-0.3231820804697616,9.928319229674585,0.25006671599519253,0.5814717874945354,-0.06285131819788432,421.22815758915436,468.7495137680947,446.2256298446234,downstairs
27.09515859766277,-0.150804160126794,-0.07069937465895709,9.307422332795795,0.16682248501893465,0.16672862403651262,-0.04537020141718574,540.1569242453129,459.2553617773992,460.5608469876286,downstairs
27.14524207011686,-0.12968266102770248,-0.12419311524948745,8.884241506601027,-0.9313431568532888,0.7673639174974135,-0.8888254701147906,538.4360857808583,498.5536507531132,489.5482490654127,downstairs
27.195325542570952,0.5648420185327405,0.42509254421802667,8.648936182225196,0.17128258362953042,-0.5014509118056589,1.0946421475162773,523.1941752585632,520.0146197463781,456.34288315832964,downstairs
27.245409015025043,1.042546886562523,0.5767214491894948,8.443985325651568,-0.5982314969937018,1.0040556682850963,-0.7395810267803252,496.16595681495886,526.7116273178966,564.9067986618229,downstairs
27.295492487479134,0.6006032673307684,0.6317352650661405,8.443131714817603,-0.7285711164551617,0.4458177828562656,-0.1697911659038532,528.2251595182271,537.2604126777544,455.49808884843617,downstairs
27.34557595993322,0.8097149941319354,0.6082453950588018,9.174527528596167,-0.05561156252720373,0.37562009438316735,0.08217828017422539,542.2195471203031,494.86246452941276,516.1238787684867,downstairs
27.395659432387312,0.5415849885879954,0.15637842443370875,9.641137774145006,-0.7471318503166755,0.6134821458100052,-1.4093044241295551,500.564792833665,485.5415523856221,531.7558861299658,downstairs
27.445742904841403,0.42348681525227155,-0.009630124553054092,10.319876114611812,-0.39726519906676466,0.21876431682542544,0.5977983726636619,549.2258764090072,543.8113840440365,469.323739000859,downstairs
27.495826377295494,0.21991798847283228,-0.16382095134916963,10.460752913215421,-0.3862363622375748,1.3826677245097814,0.33416220605920394,474.7654848447466,556.0246358790534,498.8894176712376,downstairs
27.545909849749584,-0.1336742105504452,-0.5462108776137122,11.041844310594836,0.2943653109679713,1.3813393942641017,-0.5397147390631392,474.4248072177012,472.85837481897323,471.94471473228253,downstairs
27.59599332220367,-0.5448601733590643,-0.6471263427995368,11.340941983826289,-0.0016684199846199168,0.41478267942757174,0.36591784726385246,477.89896514595506,445.56225471676555,441.4764367680436,downstairs
27.646076794657763,-0.9718507375287768,-0.682119858868927,11.174923354775167,0.48230018900993016,0.27952060367743387,0.5659333056141981,508.74095188094907,521.3418450640613,539.0910427474277,downstairs
27.696160267111853,-1.1281031232640193,-0.4852162105950411,11.14850197399164,0.535185399899486,-0.31030467513245563,0.1649239771960426,519.3455749051874,455.85224837005836,439.84299817134814,downstairs
27.746243739565944,-0.6158160021237062,-0.4383231023288692,9.975433525784982,0.6134440073716683,0.45580808747052765,0.33089497918266636,485.5263118112894,452.02437939958537,441.893232928472,downstairs
27.796327212020035,-0.2621525015442052,-0.0026729360206864533,9.405649067416118,1.3694406585774783,0.07131969540539267,-0.6103793630662631,519.5345755227352,437.17044922260106,483.1403921808618,downstairs
27.846410684474122,-0.26906625659347727,0.21654763604605193,8.914040798237918,-0.22051825744642922,-0.29044992445537443,0.34953245412113754,547.3078985031399,520.8055673247386,512.5277537394983,downstairs
27.896494156928213,0.4596663524925579,0.44420436882631087,8.709692724915973,-0.17642945561836035,0.5059687464585143,-0.24484503591163445,515.2148107853267,540.6759591555075,510.99823926641164,downstairs
27.946577629382304,0.5196038891870713,0.30267968040377824,8.761149972512168,0.7500982639211102,-0.3589193238961897,-0.1893289352926235,476.11177209338234,479.32330863602743,504.65993122502977,downstairs
27.996661101836395,0.7894034489449118,0.4641686447722677,8.586266783440948,0.5674009419426318,-1.128995512561557,-0.2201623558755207,496.7422780321028,425.2443381192675,512.643488790684,downstairs
28.046744574290486,0.5343189097383085,0.6235251670449469,8.713525578898663,0.36406253882941836,0.4255119371327299,-0.44321126766979213,553.6228889019869,501.85861938823905,523.7049878834489,downstairs
28.096828046744577,0.6432859952314012,0.3268685885273981,9.73802471828969,0.607180527902408,0.39940089140524065,-0.45145448193422366,548.7849792695728,492.2574962468755,464.8729313255727,downstairs
28.146911519198664,0.20057397580149572,-0.2507391543915197,9.875081144984527,-0.5938197762321046,0.390678885343531,0.18167213997063342,442.12756730690853,510.0309361570308,413.04561245439834,downstairs
28.196994991652755,0.21960072409332027,-0.4334937444200866,10.533543979929389,-0.7641052789387385,0.5864218595934594,-1.2768118554408343,516.4849221263721,463.289676653513,478.3598155876076,downstairs
28.247078464106846,-0.2442816783256187,-0.26705925825083004,10.661699632525993,0.800673780394814,-0.1481082551997287,0.0038136255457182117,453.2745405543703,506.6185726731144,450.12988251263505,downstairs
28.297161936560936,-0.8490640072780961,-0.49866734153321285,10.922470502316532,-0.7174639477480198,-0.6404574272259624,-0.8145120112519544,437.16358829864424,526.3706505676547,515.5624073509186,downstairs
28.347245409015027,-0.9688954470926439,-0.47041401029601887,10.974400486324658,0.11185955145578504,-0.25502700303233183,0.04498010922641468,513.0951441214895,582.0346162838289,518.0503163726014,downstairs
28.397328881469114,-1.0643178597335055,-0.793140468365809,10.80851556725626,-0.038990988341772774,0.14957355255339236,0.4216368344852219,492.72593095356603,468.52142894876926,475.88478930506705,downstairs
28.447412353923205,-0.6903871782188529,-0.15665867107945036,10.454131791174873,0.625157017465155,-0.07410084134510102,0.35493009865852354,483.7503372300943,502.28429694746745,485.31950010494813,downstairs
28.497495826377296,-0.3084787040330881,-0.39715502856424145,9.6754716168683,0.30592109136682305,-0.10984831926771135,-0.6051477174727043,510.85037544671565,455.509823882658,501.028399124203,downstairs
28.547579298831387,-0.19658605495393291,0.1416688110717536,9.139406699718768,-0.409592431945559,0.15715968681075568,-0.32003800598487564,504.0932281104945,503.79930505143176,491.51125791173496,downstairs
28.597662771285478,0.18069187313701668,0.3989764898092404,8.45312432832112,1.004252862165118,0.15462607813709497,-0.30758730593962963,533.5657283584916,519.2591497980942,520.1594345833826,downstairs
28.647746243739565,0.3776729615284815,0.6096093884330893,8.231828702060387,0.35002078701342504,0.9936840576956608,-0.054516500452721425,464.589059616952,495.9976076007591,503.2795363868976,downstairs
28.697829716193656,1.0233864504510886,0.3569244956616674,8.659603265106757,-0.10160394181936219,0.1255175597718039,0.26482584025177247,493.54413817890753,552.6430628249786,441.90139721835664,downstairs
28.747913188647747,0.8722264882060958,0.4634029601396982,8.840776192248581,-0.42739155579166843,0.04723972429186758,-0.8278037101780588,536.9084142702806,522.274334642715,489.7173630503495,downstairs
28.797996661101838,0.781767884375812,0.588665459079659,8.92240728987984,0.755649055836895,-0.5707159733087955,1.440073084768988,471.0884074050163,507.39492743703926,487.7535102020886,downstairs
28.84808013355593,0.5420921727780312,0.12269893757560797,9.772276719589813,-0.7235094388028915,0.02031761054824042,-0.5930314021637912,482.76921763833195,524.7891732654089,456.5143405668629,downstairs
28.898163606010016,0.06358325354797113,-0.25347219442246244,10.752347686619075,1.1711712175432147,-0.24445258610559487,0.8964597598307366,489.9469471992828,489.9510957813149,464.5559643070251,downstairs
28.948247078464107,-0.32350651409598546,-0.15380289239408895,10.484759448696542,-1.0897072712764253,-0.5833696615400825,1.8438788947052283,540.2356282316198,468.2759027003697,454.1296020393927,downstairs
28.998330550918197,-0.9888654443994992,-0.4267474335374847,11.27126667042091,1.036288870443875,0.7704393485545871,0.06285286968879035,504.3194820633518,495.7695225512461,494.7408316493178,downstairs
29.04841402337229,-0.6232748366280957,-0.7047304354882513,11.57033954610845,-0.834228045118055,0.0994217919574446,-0.14003489254760773,509.8202955824233,470.1080425145502,494.59070753708846,downstairs
29.09849749582638,-0.9833515121327198,-0.8361370468430176,11.23580961767125,0.07616088042954985,0.21863897588351275,0.06850502592541584,477.79458965369736,515.8627756260271,460.19517411031245,downstairs
29.148580968280466,-1.018458075813719,-0.452459129838994,10.6053669585666,-0.1681140756506107,0.7878833331272551,-1.871330677759896,652.0802443030757,502.78662459379194,491.3398053071311,downstairs
29.198664440734557,-0.8473632864764926,-0.28980241412056273,10.358958927452198,-0.07607824986678483,0.35687436224284386,0.23944145051073307,526.8175623964323,473.0042833267977,440.9210281395288,downstairs
29.248747913188648,-0.29934444632514556,0.3371303248242006,9.32895614747036,0.6869324356981454,0.44610762579893404,0.452652107659505,499.9003038241898,495.980063944926,461.27833216973295,downstairs
29.29883138564274,-0.0661448942140087,0.4045850778175997,8.706216375925976,-0.665274659248078,0.19617546131488273,-0.23323330069803974,525.6975543397081,440.7386871304997,489.7692480769381,downstairs
29.34891485809683,0.6803735704921838,0.3709961971726168,8.642872074085574,1.0438619946374361,-0.6281102040264466,0.4903476187441956,470.9892414109472,519.7842522807263,568.1553321143648,downstairs
29.398998330550917,0.3371898656461132,0.4757898315414665,8.347350467530983,-0.11432822758794209,0.29251996692341165,-0.33682049283412707,497.64546434322085,517.4480996135535,452.0724835044603,downstairs
29.449081803005008,0.7912373116427336,0.43346169705517956,9.018163940184369,0.4905963185545843,0.5587793240030501,-0.1551635248911353,442.03597404009497,510.94083584939085,510.8616496267491,downstairs
29.4991652754591,0.4642886763873713,0.29825621001671665,8.971005017767396,1.5968192949525741,0.8191960849658443,-1.0286353620581508,432.85887844831893,515.8317703430957,459.4404080829473,downstairs
29.54924874791319,0.6106983465372708,0.23837601781181555,9.443801387900486,-0.06588348258464873,0.40299465231928744,0.14138926261886162,516.0388148969271,541.2729001293258,459.0720027974449,downstairs
29.59933222036728,0.20514551062781156,0.09051242966091862,10.348215943185902,0.2937170561213029,0.9532856703924778,0.9680706662035506,504.5194662400367,482.27592088106115,506.96952062741815,downstairs
29.64941569282137,-0.10797012867931957,-0.4205673799402251,10.88221886004983,0.724274753220183,0.07148425865311586,-0.5029432350737661,507.94713915514393,452.86898192793836,544.8291274424694,downstairs
29.69949916527546,-0.1424283079675599,-0.3402264473334001,11.115903469410597,-0.9087754541019385,-0.11119183931588392,0.3022848238879477,462.19070640295564,474.15992692716776,520.5403717005207,downstairs
29.74958263772955,-0.744470324732897,-0.4634554481674343,11.141187185259959,0.061753832434466166,-0.1240813345583453,0.687869611145118,481.6407887478172,478.61181566242567,533.383959853385,downstairs
29.79966611018364,-1.0601325111724158,-0.602531021164074,10.642808123688672,-0.3285135538709936,0.23429757153971317,-0.17016600601472287,575.823108748122,561.4961426030267,485.96781282259207,downstairs
