timestamp,ax,ay,az,gx,gy,gz,mx,my,mz,label
0.0,-0.006162124792097698,0.04190922868478093,9.842418572030939,-0.25560965249695294,-0.32827558991551586,-0.7715152277269132,519.0599620230605,501.5986905071149,514.5188106963202,stand
0.05008347245409015,0.0067572715623999274,-0.05754468945654653,9.772083868673873,-0.2785489929939243,0.2573324190940122,-0.324463945166235,545.1079662857856,519.2054155268729,494.90336705110695,stand
0.1001669449081803,0.005465280483721427,0.0047455390853399365,9.744142914309608,-0.19939209186773205,0.1867360945889349,0.18826867812988402,505.04123774828486,533.2151951027363,474.47014011546764,stand
0.15025041736227046,0.011040710372655402,-0.036035724195530014,9.807075640218086,0.06338889228324034,0.05449642132147628,0.052054852194518955,476.30680716235395,439.5442573348365,477.68634102474795,stand
0.2003338898163606,0.02099957819313894,0.025583185551642573,9.801854157236825,0.04597590240361086,-0.10644611968433294,0.12084385854220425,453.179433185379,488.19811420755485,547.3772233830106,stand
0.25041736227045075,-0.04232312388621453,0.035072589453987314,9.741802080575086,-0.23824781990953253,-0.41343337446545153,0.42849946176632453,470.8624438364909,451.59819681890644,518.5939973602224,stand
0.3005008347245409,-0.014057944328960362,0.019505073337126477,9.826870689616525,-0.2632560737284279,-0.051164485452097966,-0.361100161436453,438.65743143027015,535.786825105969,476.18660853878487,stand
0.35058430717863104,-0.0013255267485777766,-0.039143810298284024,9.824017318051153,0.08498634539961653,0.24607101230867665,-0.12557032624946296,475.7035285849728,452.08132075978335,475.83891430836815,stand
0.4006677796327212,-0.03542789856433785,0.04961994377898436,9.858012531391472,-0.3348639430886621,0.4771187105988129,-0.1842234867240151,553.9236964091357,475.4645653720646,417.5574036294255,stand
0.4507512520868114,-0.04577743065984575,-0.013900920356319707,9.805667267829433,-0.1971637152707575,0.11680782575717262,0.4758323932864409,450.52327194740184,477.3416202042757,518.7511742271336,stand
0.5008347245409015,0.0058110242886352526,-0.019571826841897136,9.773905220646293,-0.42789234510052193,0.30111240410132195,0.08292314099028464,525.4426507891106,453.2171339268076,537.9538395697616,stand
0.5509181969949917,0.05588275096955357,-0.014159551838337142,9.804626177308428,-0.1437251237350824,-0.22934860225889234,-0.011216528429432882,501.853526917549,468.6631420678559,568.8272735148485,stand
0.6010016694490818,-0.04302049195065851,0.020061999910668524,9.790041667861187,0.5179688983001848,-0.4534614465771775,-0.18883527485323845,497.9463161842545,490.9231255451048,515.8268744393871,stand
0.651085141903172,-0.025687834816073084,-0.007753813207364554,9.784745697749452,-0.016060010466023747,-0.4626012395734824,-0.08531679358428891,523.1265078822322,420.3655412304813,469.92099850804516,stand
0.7011686143572621,0.04674944814377856,0.008202538517783166,9.879970594607098,-0.233946683723855,-0.2279370485759569,-0.526888903763853,485.4205306737439,483.73384889830123,452.95092593812245,stand
0.7512520868113522,0.022810110188040106,-0.021285169410195898,9.78322955030013,-0.22442883266828556,-0.3218612528661078,0.1078282029108565,485.2166085096311,510.3111054763114,533.4967078536633,stand
0.8013355592654424,-0.019029386091866135,-0.03682665478872213,9.79161327158307,0.4458108602445408,0.061157133942488194,-0.05127591315464443,505.4840627990255,543.2440219163117,477.02944232273177,stand
0.8514190317195326,-0.015580131293078739,-0.00040978319269949215,9.83472905543348,0.2586202644374285,0.04263692112107862,-0.1842731315600376,523.4345301947094,482.7419278876509,527.7871432967776,stand
0.9015025041736228,-0.019027863023280384,0.03454387276535494,9.758536363474686,0.3372080789046485,-0.24400314676515544,0.08838625589833543,573.8485976814037,463.82195936141017,448.60508320840984,stand
0.9515859766277128,-0.047565553369094696,0.08080355285139673,9.814920218981399,0.03779856526980813,0.16087653497126525,-0.11515800433734756,491.439890475244,504.6237675992568,461.1493029443489,stand
1.001669449081803,0.04100976311294656,-0.015731521891023365,9.812574258317731,-0.19299316633866515,0.3099402417768367,0.12239380778949084,458.8857561343902,553.0070660966769,519.1688379949362,stand
1.0517529215358932,-0.03647412109355455,0.04994278113129847,9.80520042284211,0.17416942491683493,-0.7633251640580851,0.0433963868930585,470.71113356807,507.0000377316853,540.1099209085606,stand
1.1018363939899833,-0.01415280127055639,0.00032047314533418386,9.824512099477772,0.048123839197501087,-0.36223989504099136,0.21130187676425793,527.173121712822,443.1109141068707,596.7722952534441,stand
1.1519198664440735,0.04664780879599613,-0.020793521446790975,9.846556322801888,0.29207750602761956,-0.08018122241562478,-0.09613482541742553,459.08209231755905,427.72733365106603,514.9813159778462,stand
1.2020033388981637,0.010403916920135772,-0.02514903931986108,9.826280342671906,0.2072321160351071,0.17751126323668193,0.16195550239433196,507.0460749510315,487.0376317729302,554.9824782391612,stand
1.2520868113522539,0.026825925678530163,0.0630708101161139,9.824956009543138,0.2226388328201663,0.10481891461962307,-0.24803371783664696,490.7018565222579,533.1381185345396,626.3415057928914,stand
1.302170283806344,-0.027454054581756537,0.013697987841677,9.836058064043101,0.09637975677459401,-0.31335810005483866,-0.06915990439462795,436.8361544824604,446.10793663024384,464.81828913434185,stand
1.352253756260434,-0.016894149818907175,-0.025088801323987386,9.753627887900862,-0.23577321947545157,-0.027065032550917724,0.13644952698224844,505.7328575641527,554.2684147278775,482.289272830668,stand
1.4023372287145242,0.020459871642492397,-0.002404345871284873,9.79296100555199,-0.3745480955375338,-0.027435934608017635,0.3165560335106314,473.8862959218647,516.9220708846279,462.99116043466756,stand
1.4524207011686143,-0.011751284865169617,0.013220340708152069,9.777441541649496,-0.17563180039794504,-0.00405476927073527,-0.2688457682980907,475.5644934525641,483.18630485261843,524.7841808532127,stand
1.5025041736227045,0.0048017259447513255,-0.004196393517954533,9.861214121575015,0.2585370150749685,-0.07363898989434504,0.2474505978089974,483.03728345136125,438.2740549488612,544.2179150084767,stand
1.5525876460767947,0.04605453121187254,0.0363566657251096,9.796495968007992,-0.10279363418428308,-0.004668738286728882,-0.19785308443006597,570.5576080142017,531.2410786834035,506.7380133117516,stand
1.6026711185308848,0.0012574871790714953,-0.007582044425300957,9.808461278085154,-0.3934824967163625,-0.2664762586264793,-0.1419079439490613,513.3368345018245,481.7967061511634,429.8787297661159,stand
1.652754590984975,0.061202221683359495,-0.03725993018243373,9.726797332549308,-0.3242144797380768,-0.18147666627259768,0.23467202425871292,435.0461572512098,562.4685435171523,490.63688037411345,stand
1.7028380634390652,-0.01834148771499014,-0.05001166230729501,9.80556312797163,-0.2389179324220363,-0.49788835578996327,0.4787599002208846,436.55083484537704,469.3266281582398,469.05485849185084,stand
1.7529215358931554,0.020117322968777163,0.012688884511723147,9.774999948487327,-0.0952339303878501,0.3236169808060616,-0.04534856657490565,474.90999889904685,484.17357515103237,437.4862619192225,stand
1.8030050083472455,0.03971070841937489,-0.06880736636447882,9.865533795310252,0.016235758566298535,0.39707021641489004,-0.13011547215602376,501.4194226722042,536.5835308221413,488.4587312157313,stand
1.8530884808013357,0.025454548509448727,-0.06538186294330553,9.786370894823062,-0.22848669384789524,0.09683553133823147,-0.3458178571347195,561.0098690643508,482.34183953582726,500.10875541169605,stand
1.9031719532554257,-0.03262020776245393,0.016231998764865016,9.834516318361123,-0.31008985381656623,-0.061917265980008934,0.021442420175102464,509.3431539125602,506.13176052542576,481.4474939601043,stand
1.9532554257095158,0.03141357496692024,0.05110654046394875,9.826079742301493,0.14006079746659664,-0.20318031966934155,-0.03728874819693965,410.2244273041003,518.1032553319234,480.96680098678377,stand
2.003338898163606,0.033214197987393015,0.013380448117692526,9.813604487402797,-0.15490453994280676,-0.07315598858442347,-0.2109095729354113,424.14408016515654,475.8350557374833,471.99387373434695,stand
2.0534223706176964,0.028496476971944948,-0.021158445050723257,9.783203659887802,0.4095093644075381,0.2502586650771988,0.20318018368814283,518.0419236109609,459.4101034297075,541.9547834426801,stand
2.1035058430717863,-0.012618468864532287,-0.004402037918744217,9.79282665852541,0.08739174623628543,-0.2575479175336589,0.3847992502546302,457.9628642880843,494.1299479853081,453.02633358557637,stand
2.1535893155258763,0.00497804617144923,0.012174905520805697,9.794843666009704,0.512002026898763,-0.48772666668686804,-0.35734940559818684,503.61036171724226,528.2818336755124,462.2876629844293,stand
2.2036727879799667,0.027824708105555762,0.03475566278633644,9.784385606198393,0.2673117898118728,0.34214450993189355,-0.21377547457497723,484.4297413067819,470.1819335322331,481.51786571721425,stand
2.2537562604340566,0.04905817189668045,-0.04782189248632733,9.790868785438727,0.08452966918461918,-0.18123999104810404,0.2110532184559226,450.0445488929882,536.9598638577395,503.86449052474546,stand
2.303839732888147,0.01042949957347375,0.0210460473122462,9.763880593070724,-0.2734125055237974,-0.3855410667860892,0.3971461091172553,407.28302759980585,503.25968973699514,442.96768720800435,stand
2.353923205342237,-0.014084694723269994,-0.017866903098662026,9.847622251781107,0.08925993427101707,0.3313783964286187,-0.25141990033049105,517.0898679916722,558.7223035458985,503.8968394056193,stand
2.4040066777963274,0.006292689694673462,-0.0116551908469356,9.78069548475043,-0.03167824251797474,0.03829318226374753,0.19699921951203847,569.6153910502628,448.45164034203134,510.0236249705221,stand
2.4540901502504173,0.00047674606958370003,-0.05862906470103642,9.812207825157525,0.11785686550663763,0.014788788816165311,-0.09104981595685614,508.9114252097449,553.0808820669876,465.633943947578,stand
2.5041736227045077,-0.005534852064413259,-0.030958351032705195,9.761296917328348,-0.32372235899120155,-0.041491614367708006,0.09573807950074342,498.62829732644764,535.0712342051266,428.8179120104973,stand
2.5542570951585977,-0.018467709835183158,0.011299931484513082,9.837814840158842,-0.1710835408771389,-0.014248611894552392,0.12962690446771102,421.04438066809297,530.0894672441003,473.0375802244163,stand
2.604340567612688,-0.03208503626578103,-0.0047610692365388785,9.796081768256217,-0.0014035715751406256,-0.07054740906620706,-0.3665736168956273,516.5010347636035,501.5643591501426,518.077890100337,stand
2.654424040066778,-0.02274961477752989,-0.004773405602519182,9.79520305063852,0.4161230992725733,0.25158568783950924,0.2910161931881596,515.7725616112232,501.7278323083775,533.1418629866233,stand
2.704507512520868,0.001910523764344807,0.07507653267406778,9.771146501452364,0.1577115476784093,0.14800240198460513,-0.28457613598843484,544.13310315909,458.61333593716745,524.2459099682634,stand
2.7545909849749584,0.006802820675892246,-0.011839900038700155,9.780686433236626,-0.3185958221912198,0.13446861628424236,-0.2975204778525115,483.0996271734953,509.95701155857535,519.2201747290649,stand
2.8046744574290483,-0.005366858477512143,0.0033910651250710563,9.77511547293871,-0.5204574674385903,-0.34822424697658694,0.07786975105408202,470.0578602304371,497.3469982053112,547.377647970171,stand
2.8547579298831387,-0.017265346342596175,-0.028056526543297017,9.748213409548532,0.044347246559068375,-0.10799382285578323,-0.1668346747706063,495.57648845702033,515.9178268730772,530.9640910671967,stand
2.9048414023372287,-0.006095610101033905,-0.022285197657876205,9.740700342755998,-0.17064888155034982,0.18804547589920514,0.3034130524859444,528.6571786824198,429.27422514511574,532.6381829692381,stand
2.954924874791319,0.0015912562919966622,-0.007137240875380049,9.758036529882393,0.5363942740124347,0.45178956025714745,0.3451757683197339,516.1763934572422,597.3301694633765,532.7913094682871,stand
3.005008347245409,-0.026911599880743688,-0.031670132764255426,9.769206233160528,-0.15206390223653227,0.023653593487309325,0.22171321327954338,462.0901358431167,479.008291371417,503.7097315591347,stand
3.0550918196994994,0.0041703291871164755,0.0012231365680252307,9.793717479840709,0.2514059673121461,0.49925173107703336,0.18945434082247978,436.7148336976606,446.62649142728833,549.6257107578034,stand
3.1051752921535893,0.019319268696082623,0.0011405341644496053,9.870663203419552,0.41820915971240963,-0.41437971430647413,-0.10843556232800868,413.9241679624643,578.8713490865171,568.1118607943156,stand
3.1552587646076797,0.064109002798527,0.016283867572940737,9.797572551798826,-0.20203432877805264,-0.6421376974842715,-0.10326285459369307,544.463750312318,493.88614715556514,495.1974040641708,stand
3.2053422370617697,0.042203118323637864,-0.002799401988001618,9.826055945143583,0.041329771530047056,-0.12582085417938235,0.2634176994136358,557.8829530970403,535.725751137834,494.60035689888775,stand
3.2554257095158596,-0.03353182184860078,-0.03696207785171646,9.83784058910989,0.1279052624997907,0.24105061616982243,0.027881486875021625,471.32416284176765,560.9486686665693,521.4011987172282,stand
3.30550918196995,0.026815244327216506,-0.036346175303951206,9.758542086415185,0.10162312570967878,-0.3658963443819302,-0.12147110270901622,506.25284848642366,509.6644630604664,501.5432222021989,stand
3.35559265442404,0.0109288565334614,0.0005146861573659678,9.819657586465873,0.020347055397274928,0.2270921395659153,-0.0642062963849634,502.47182963292033,531.143727813079,490.4884224148361,stand
3.4056761268781304,-0.011359923338711539,0.013941873852981894,9.761837872192677,0.06708029902066542,-0.030997572451131848,0.18373220072839824,494.27652920923146,441.37847451850075,497.32471371635734,stand
3.4557595993322203,0.035443819657899514,-0.010946027515425644,9.831076947631745,0.10274212429557382,-0.022254304824333136,0.17187193695967948,504.10369517285363,499.5382940880395,439.6352767608845,stand
3.5058430717863107,-0.008087441501008846,-0.019510325326159955,9.800519093627686,0.13270995385159487,0.2570483654463694,0.017927070629591587,443.3853826609387,576.6266180658608,539.3291197049484,stand
3.5559265442404007,-0.0017819102801714115,0.011956533069578189,9.83179510641961,0.3532853102238762,0.4943345894364083,-0.2719617564563756,510.6044795686714,421.4853323005464,512.9391059655184,stand
3.606010016694491,-0.02440400632069306,0.044224974906766766,9.795855088064284,-0.17850803805060728,0.016782892685366528,0.09069930532119597,484.1491142398194,505.111694624014,526.7141458808695,stand
3.656093489148581,0.013077946432951335,0.01241695577073236,9.795691598975587,0.3538453547841316,0.3654430817865761,-0.4137139192292187,503.42149593788986,496.24423532164394,582.836448533147,stand
3.7061769616026714,-0.01889777405874394,0.02404682689215744,9.850877688766943,-0.15220515953317765,0.029988372413440254,-0.7729528773771737,568.6364206799394,451.7278299727363,404.0081977636419,stand
3.7562604340567614,0.019085482458463435,-0.010470715148601442,9.770901506213367,-0.07925545701725754,0.3065728242595193,-0.08425372192963618,516.598935621231,556.4471566432982,470.6881147965114,stand
3.8063439065108513,0.029935936277583106,-0.006346723369149751,9.840495292834728,-0.2842219616938776,0.18377059088466607,-0.47796659265707025,420.67781923984563,428.66322035058965,485.3565231300865,stand
3.8564273789649417,-0.018031436124088578,-0.029924848975514604,9.832732061877207,0.14695340778469956,0.26180508354212634,-0.014869069493153706,517.3193067540501,477.8302230207685,439.5162053318575,stand
3.9065108514190316,-0.0174868292544631,-0.011189436366092126,9.874068891403704,0.4393478525187045,0.1875668413873959,-0.2630061458132294,443.9859890116551,487.4349931811348,517.994408313053,stand
3.956594323873122,0.005389244614929747,0.025603657205506045,9.792705700063177,0.05886346572302226,0.006668147887432436,-0.10816235175447912,518.4937824248816,487.54451241993564,478.4071961101541,stand
4.006677796327212,0.025080995465460346,-0.009237812016426053,9.792838200872886,0.08053710485030492,0.33558605387527723,-0.23387210121498303,567.8909866781195,412.7155866006217,434.9594741073073,stand
4.056761268781302,0.04076024120703603,-0.0002526540296685781,9.774871676407882,-0.15163680019591305,-0.33348603888843864,-0.037778503076989926,447.2037701457095,510.24035665221356,529.4536933592933,stand
4.106844741235393,0.024781756009471315,0.05836493081222399,9.72546375701076,-0.35273360882433075,0.11477961787449356,-0.04864977732783807,534.9153721462083,480.65814361451766,501.954746277373,stand
4.156928213689483,-0.007895747565075814,0.01637417978723603,9.759639710475328,0.2243246303723295,0.3800228630852158,-0.07555684977748515,536.0524855070466,539.4137707912735,441.8439930535956,stand
4.207011686143573,-0.0198845699922216,-0.0020186510930762097,9.822668540199055,-0.23277462842975763,-0.27256964274404105,0.18494495618883153,561.5924406002212,458.9588215597845,467.1531867054046,stand
4.257095158597663,-0.0019200840476690934,-0.016076069875695223,9.812778051236323,0.414668757891719,-0.08392690880178492,-0.27861542132561495,547.6992025353532,473.422151556312,533.6821238191277,stand
4.307178631051753,0.030602641077768694,-0.003693447785914933,9.783105830827854,-0.5486189555376404,-0.28444257940053463,-0.02174528651061507,502.5000279468909,435.3449654068866,519.7996419408454,stand
4.357262103505843,0.06147036073804586,-0.042136863181986034,9.807423118855112,-0.2644333137372232,0.5478650527503706,0.32189338261931516,492.1462999623015,485.0667503707734,499.76233249935444,stand
4.407345575959933,0.021434757066102622,0.0292577147864805,9.799483525793816,-0.06581209409900138,0.3581457037287039,-0.17330646575037298,538.8824651396458,473.99005148489925,504.5973141226465,stand
4.457429048414023,0.024451705668040752,-0.018944225736477402,9.818434777116861,-0.30789625075960625,0.07653548027834926,0.1483387479584448,562.3011626290281,424.079273080643,490.6184860140692,stand
4.507512520868113,-0.02245171648536906,-0.020333810210986902,9.777116210441111,0.12779762963715102,0.23096877714476008,0.03387396506516778,543.6659523272601,526.0365754913395,550.7305536171369,stand
4.557595993322204,0.01822244857249372,0.021356313331993906,9.784892261318374,-0.02473538466159192,-0.3759496937530844,0.30934963274687927,455.09056449984286,512.4695179807709,420.60016559399287,stand
4.607679465776294,-0.037098811645773465,-0.05872961626412859,9.827176867595082,0.04833932375903876,0.18930250409559612,0.14716789958996848,477.6435099036894,530.4158491340901,486.4567186790816,stand
4.657762938230384,0.001931295671828967,0.02990103345781862,9.73206849645157,0.06993397819261876,-0.09548840055993252,-0.4447193869288091,506.95757290292744,435.73301475241976,479.10660853740035,stand
4.707846410684474,0.013831613546297972,-0.006061763881572313,9.819349266074523,0.08603920704163569,0.050860748411731375,-0.010748313985402914,536.8403162196826,508.12097773316094,490.0014535364091,stand
4.757929883138565,-0.045876137248543634,0.015249090551851065,9.80976210873638,-0.27657785136419,-0.10589079185967644,-0.2836183760543094,496.0775050389223,385.0589408856786,408.92038675318577,stand
4.808013355592655,-0.0038413634236998673,0.015868772500420666,9.771960844566221,0.12047689301480098,0.13330447766460754,0.26935151435154964,498.27138055734554,430.40544094000717,502.69430578434924,stand
4.858096828046745,-0.0481464683756442,0.03732904289553119,9.822535387504203,-0.008652718382680547,0.010022673576516034,0.16775025717778977,490.6513080369486,485.31242082501444,496.2423467663111,stand
4.908180300500835,-0.053549533867352915,0.014671975610399415,9.803182041411116,-0.19659226224857282,0.05097621418816236,0.26931159966584023,454.502097962343,499.37846681239193,466.59546499296505,stand
4.958263772954925,0.015692373714054006,-0.0013206109011270825,9.83222290616853,-0.5166583273795071,0.21628464505079126,-0.4065939200662974,480.0033733579677,463.3831019090714,535.1459829651077,stand
5.008347245409015,-0.024494631372896855,0.0030092373688157537,9.817140240448705,-0.00855024919285034,0.00605510272685732,0.2203340368290926,488.2766705744604,505.19920303994417,564.6611058663907,stand
5.058430717863105,0.007152393247073202,0.029228743777356975,9.815560844376627,0.0775863297640959,-0.10670917722254292,0.11759487301629645,580.8223245599625,548.0855889664473,510.582801293606,stand
5.108514190317195,-0.04193251246853263,0.005248694184827679,9.795930320718657,0.145000136678761,-0.2462116894848863,0.1940387402370786,486.9568877383916,467.8920001733594,510.30128073005625,stand
5.158597662771285,-0.05115171052772077,0.0021994236153120086,9.787872976496093,0.27857444634110995,-0.127444375530804,0.08694097630598119,548.7130937711955,468.81846320011215,568.266845952876,stand
5.208681135225376,-0.022888001741469877,0.024762020025259887,9.835268504835257,0.11267961057513726,-0.12954918329440898,0.1831680033446458,497.285290450181,514.6884629356977,481.41241371716455,stand
5.258764607679466,0.025139285544499998,-0.03243579247904628,9.767368525526114,0.04428466342440572,0.3614448055452468,-0.11965769615470855,489.60085197783917,467.36949819824355,512.4175376736134,stand
5.308848080133556,-0.02880907795139033,-0.010909264783836609,9.82282379597274,0.022225894111132957,-0.013342089541368602,0.25140740238642484,472.866199909444,479.79031674085746,482.7510217703569,stand
5.358931552587646,-0.006902925105275778,0.02869923845131927,9.767405783365465,0.11349843440619431,-0.10588051759767605,0.08358227634373198,496.6118343174716,475.3299526624646,505.1421687380478,stand
5.409015025041736,0.028525201255581237,-0.020843238145930684,9.755705054939494,0.47804230733460296,0.08590988085987827,-0.0944588568825422,571.7320867400429,447.62669094658406,499.99924921744145,stand
5.459098497495827,0.011154062566138725,-0.009980986014443985,9.811445909630782,0.05362309875209412,-0.10456016328357619,-0.3912632339018196,473.64105844296705,441.5065126787501,504.00866075383226,stand
5.509181969949917,0.04150770666721705,-0.03189194284009367,9.789657823572183,0.3634283953352177,-0.4105580442391118,0.4715017783494338,466.0896749116723,411.6612942628086,549.5555928926938,stand
5.559265442404007,-0.0248971771777763,0.006637558032856851,9.84947947093338,-0.009188069169291407,-0.23723471107511307,0.10011989886839023,523.2987887839852,484.19456722488485,536.6520972468242,stand
5.609348914858097,-0.014204168512071971,-0.03989211494768538,9.834557859854195,0.10932909958445522,-0.04184867928853299,0.32270189454133047,512.2403972108218,468.83967940137325,527.1785120059147,stand
5.6594323873121875,0.035295146852602405,0.017957707499331933,9.750269671660549,-0.2934987838963297,-0.20077021319984756,-0.2214872232345222,498.2368557246303,499.7841548743959,490.10098964231923,stand
5.709515859766277,0.05214327626124486,0.022113795685405932,9.825083140271778,0.16694043792716207,-0.24664246803805898,0.36616186205395707,517.2152444875627,468.37117844999034,474.7858693267504,stand
5.759599332220367,0.026726177416978775,0.015776591570286352,9.80032286846401,-0.05614462866437062,0.3488014571220444,0.06404286019711154,567.1666760093424,489.48349443856205,506.3010406673073,stand
5.809682804674457,0.00861674383982862,0.025673990730963263,9.817738669103893,-0.2286132816880109,0.44364034925840906,-0.4062900143659016,460.14963843482616,520.033534157349,501.75737424217556,stand
5.859766277128548,-0.0077723150007876635,-0.05762903000711808,9.775793383290576,0.08060204335616586,-0.35019016231851174,-0.004204889108783613,588.156437989633,489.2752338321018,450.3027779653387,stand
5.909849749582638,-0.058419470055381846,0.039529262609930525,9.85531767191234,-0.09453973480736447,0.17575162300635622,-0.0826174490114845,490.4113410890666,532.5231100594648,460.7557584359988,stand
5.959933222036728,-0.010587820708402293,0.04677868994719394,9.819208261425132,0.20261088006258077,0.16431120951909134,-0.24368637666410028,487.7722763389473,556.107515248058,503.41464568323113,stand
6.010016694490818,0.02231782717628493,0.019193327422426437,9.772496869882167,-0.10262065869139791,0.42438297348788506,0.10810169971792485,430.09826353381163,529.8026911596983,394.62345126252944,stand
6.060100166944908,0.02242715636754833,0.011237131659807803,9.812578190125572,0.22309424670032846,0.27059333467163443,0.47066954749891515,573.2535124190746,446.2416244032911,520.3186896745932,stand
6.110183639398999,-0.01597780464710713,-0.015725467045589456,9.774503864911667,0.31961479785530744,-0.2933107363652664,0.13049084610516323,496.4875598701624,484.7493322422289,502.84077491991235,stand
6.160267111853089,0.01777205617490514,-0.024113061571867045,9.796957132815287,0.26481020156714363,-0.08388425673109565,0.07792715948398912,509.42926613317525,442.25218999142845,487.04937561816075,stand
6.210350584307179,-0.019072120503509003,0.013971503830025517,9.79556421682588,0.10396502066415345,-0.030266193231956066,-0.19033772723063958,481.9037781218435,549.1522441625202,431.5905537121007,stand
6.260434056761269,-0.010042972405968062,0.031398621593445634,9.801533756576267,-0.3595007411000388,-0.029361450689505922,0.06621755293258073,563.3432842895126,450.11178528447175,457.7421295851538,stand
6.3105175292153595,0.00992150882181772,-0.033444438411834254,9.806593524548326,0.05632513682943686,-0.07169817141103353,-0.20663555282708135,507.69164757272506,450.5058289436654,551.9656149454323,stand
6.360601001669449,-0.0053908596354316635,0.009604216306477315,9.833238165699932,-0.3120431439722321,-0.020511532697335737,-0.11528625382257322,541.0712687380762,457.68404915806127,441.15485497369156,stand
6.410684474123539,-0.04795895399410924,-0.04020441343018566,9.784312632636302,-0.07077187971794058,-0.247788324108456,-0.08123586405818707,539.8030520822647,468.12360243991526,543.3815861725245,stand
6.460767946577629,0.02649003819426761,-0.010354707500743951,9.787556175347248,0.050861769210298134,-0.2732221811078892,0.019910267863769045,451.1197334861573,539.246980240095,464.2620398473836,stand
6.510851419031719,0.041277472510745344,-0.021866545847989166,9.82563277281566,0.06994587171612236,-0.19216965084066645,-0.02692717555339554,521.1568294362906,514.6252257760544,519.232709033467,stand
6.56093489148581,-0.02550654478566037,0.018857385481174646,9.794282674777564,-0.2730147541362722,0.548968619634244,0.1589191329863368,456.71304548301976,532.9304810723111,525.2972097420321,stand
6.6110183639399,0.001200267003462166,0.045181827259222256,9.83835526258855,-0.10180362340161643,0.09114285144130334,0.19331427022628128,475.81117538350054,526.5963249837571,513.9720187780646,stand
6.66110183639399,-0.055583159768839485,0.02021755335107943,9.745855260689932,0.06255753066161526,0.3522659322384423,0.5998982180384355,535.0320366792885,499.15501585991774,498.86205733321265,stand
6.71118530884808,0.0030982626563350324,-0.051694299364983556,9.798986917449493,0.0428714309997127,0.14234954643830175,0.23436638973260335,487.25822991169923,606.8604986212458,532.8023545127173,stand
6.761268781302171,0.023616010388450626,-0.0019091496600188718,9.84147627226722,-0.015217771663466266,-0.5169899525085417,0.015033223910288133,510.82082525644415,514.8283872671801,512.8068670525048,stand
6.811352253756261,0.02566825761837098,0.04643645276978235,9.781575560564454,-0.1292859607343261,-0.07241600346900463,0.4804348960019007,528.3162449054696,441.3936991498949,479.6003912297604,stand
6.861435726210351,0.0010232308513528493,0.034451641742867634,9.828575606119296,0.20702736614501543,0.5168107138729406,-0.055411901140800635,535.3805160109705,532.9115940507843,524.0347753782925,stand
6.911519198664441,-0.021431709043143198,-0.0038212510166465846,9.72382891415697,0.23827591936474926,-0.15925586951920206,-0.41735895591603334,469.41294758714304,493.76742754597393,453.2641607491698,stand
6.961602671118531,0.013473470144025404,0.04674451659209183,9.809776825869552,-0.3661485419055733,0.5728527159485179,0.3235183977842435,481.5393980113985,435.7156413975006,431.4821328458673,stand
7.011686143572621,0.010460057459650576,-0.04684669231865521,9.831008262065717,-0.012564666374257476,-0.07274068101087844,0.26879920460074624,446.2061725760447,457.6501164587068,491.73051138661407,stand
7.061769616026711,-0.029419095664630475,-0.025498138236107817,9.795524636639874,-0.1298401612871051,0.1724741274557844,-0.20636656367259207,604.9560821313507,524.9117864110544,542.0134216889421,stand
7.111853088480801,-0.0024344781011588074,-0.04744316217197475,9.825350465494038,-0.13716284476190072,0.03198117565973372,-0.08582799633043409,483.85726400943236,483.2902160216135,467.518063983564,stand
7.161936560934891,-0.015815257159380022,0.04827527873222973,9.786219861185737,0.017307945747142343,0.16161733708924395,-0.03770803184332382,510.262901692024,470.8030975205267,466.77243306422014,stand
7.212020033388982,0.052630761085628155,0.015882428028240775,9.81325650744446,0.2533145620149277,0.06305407365689045,0.3009725083904913,528.5862964189353,488.6252649663936,468.6713603450083,stand
7.262103505843072,0.02832594320532815,-0.02083606110743147,9.81152336714608,-0.03203363779003475,-0.021600065571873522,-0.012622467692283666,491.5187423691742,525.3505291256761,514.3688856216028,stand
7.312186978297162,-0.03844230362430382,0.04859123696181726,9.811990204166033,-0.4255401714764684,0.5832629338072403,0.17490407445882897,553.7765368823823,511.1469688236402,489.4756998500732,stand
7.362270450751252,0.023761608639864512,-0.0628575576264808,9.782660886011216,0.19334290585644373,0.07263646724357829,-0.24006750691648765,499.52457592787044,488.54843191663645,501.55384757076274,stand
7.412353923205343,-0.042480101882147604,-0.03695995102722163,9.797282284680687,0.22347626931644127,0.2793393277920094,0.35356179428308454,465.49451244473096,551.5609785866686,480.1221613040997,stand
7.462437395659433,-0.06531398375043672,-0.014291422978823146,9.737725078621729,0.4004706143533632,0.3063527108046814,-0.10832772149728818,459.79860380852324,518.9516173024351,568.9003395018212,stand
7.512520868113523,0.024251875463737096,-0.051635945418329526,9.836195162241122,-0.190648175128279,-0.0885233119761867,-0.23061842363729282,499.37681793770935,513.966059506339,503.16257286790426,stand
7.562604340567613,-0.04630083011488862,-0.04727588116961333,9.822800047518738,0.03955788416543941,-0.10694393014679174,-0.14424815348341535,417.5554146794951,504.4935853861631,451.20676175717307,stand
7.612687813021703,-0.011297871566242138,-0.017981846809835722,9.761387683266618,-0.20649274618219726,-0.3158916854165795,0.03962186459744711,428.25825240486114,502.19767063079877,483.8876218445639,stand
7.6627712854757934,-0.012445330545298769,-0.0007564849296349957,9.82900392178961,-0.42281829425765244,0.16430859449416818,0.39354908255048576,518.3091308990014,505.2388139977942,510.19518825723287,stand
7.712854757929883,-0.00439026720849614,-0.016283015109000515,9.843941555959635,-0.017439379738474207,-0.2034777610035465,0.47751062949406753,488.3837415799088,468.97961077003055,485.92415082129173,stand
7.762938230383973,0.023973261153554554,-0.011531701586591628,9.761650427287348,-0.011253011468640954,-0.6427901490197648,0.17955575829780232,501.3683719822971,547.6070356580808,451.59484031086737,stand
7.813021702838063,-0.01648919924936869,0.010751458102224443,9.841255506968231,-0.5588007526066661,-0.0765745693056903,-0.5315379504404353,418.3547306154354,477.66213928277136,510.79384503519043,stand
7.863105175292154,0.0004386143768358719,0.0387108804607602,9.82607359795857,-0.014277631071242889,0.19066248634824753,-0.002219460064419308,532.8366610937,494.9227810533748,464.94909503539157,stand
7.913188647746244,-0.06179972007141214,-0.017289620585870108,9.777520239165336,0.3051232547653355,-0.05204172348232352,0.06620697239243992,488.5712795331109,541.8966061997398,515.0938599160443,stand
7.963272120200334,-0.018745914697286876,0.012951798031812775,9.774415133775314,0.0702030879626661,0.5975943442112998,-0.174287469804521,495.5112886080744,437.8463251688531,542.0127461148805,stand
8.013355592654424,-0.025572515330312337,-0.030410703047643234,9.822572596634322,0.21051742417897454,0.2166567473515439,0.4043232845427561,483.2991343667908,511.9794337599791,546.432319181997,stand
8.063439065108515,-0.003155688646899177,0.021612098245997656,9.811643978601252,-0.16195704772540256,0.17850939537701185,0.24016460233701337,528.200766012318,547.5635311325772,494.0975296839724,stand
8.113522537562604,-0.019558832227390674,0.030913735072625487,9.77644362764136,-0.11502147907649762,0.10609345445695517,0.02512728720291222,467.44907437412854,523.4742096475964,506.90258306589317,stand
8.163606010016695,0.0012878121644874507,-0.013485821083104504,9.775908870036842,0.12465145592223315,-0.11052872162685488,-0.08472724448097078,507.6147516980517,527.8849672849296,528.1690327694766,stand
8.213689482470786,0.042723834687223114,-0.00806434527378315,9.831763829529525,-0.0740795200990891,-0.05865698983032281,-0.06073223642185165,478.9349398163948,500.3175512809854,492.11621924473536,stand
8.263772954924875,-0.013500259016516858,0.008998338605921918,9.783913489421767,-0.4722511088053624,-0.1848558769187524,0.04203843609904227,582.281266990698,527.5013450250764,518.6057532543169,stand
8.313856427378965,-0.022938145450063646,0.01873531700795654,9.822701955836042,0.16005103870375545,0.014159725369272456,-0.09044823789973401,501.5240138818075,476.7118324087202,459.7053298059443,stand
8.363939899833055,-0.02298785161216388,0.032833689194937225,9.791196361210893,0.4360307389893297,0.1566792204112299,0.17598593868531223,469.5939064505098,457.2555755582336,469.5017954801357,stand
8.414023372287145,0.0038304266425679273,0.010901239669912244,9.777966924387679,-0.2667161126149412,-0.3390412500960526,-0.13598695448149895,442.84806242213926,478.3081151837652,519.7126873686794,stand
8.464106844741236,0.06924102039554487,-0.00429048893923864,9.813924006342981,-0.20317538098909535,-0.0326476315354749,0.2801118107085096,491.6213945017034,490.26456489541744,481.27464487342274,stand
8.514190317195325,-0.03273370104332318,-0.024721265299417955,9.775071265681314,0.5170025326498325,0.22980770975689502,-0.018261861306905835,490.0246007771148,498.14847460780106,461.25057310248684,stand
8.564273789649416,0.0857400801748809,0.006093043606770272,9.79074910910453,0.08917049194106506,0.09757267611308669,-0.12020042765753668,480.97683877528607,508.5936759479166,466.2190732740611,stand
8.614357262103505,0.009701028533981138,0.028831117142685842,9.827601792153082,0.05200496293406706,0.1748778208936905,0.3132281148800906,552.5818406234084,500.2278369951193,471.4165446803036,stand
8.664440734557596,-0.04510156814440983,0.022243429331692044,9.860810261145078,-0.1266182341680856,0.10549126466461382,0.09578434935770998,542.940587766993,478.7934975133589,442.7651005246064,stand
8.714524207011687,-0.007279159698826948,-0.021222610626702443,9.798795339566341,-0.43021109443855843,0.18473582789508158,-0.25404059508966387,517.8644443935991,422.295119501744,538.3249611887859,stand
8.764607679465776,0.03356468722919502,0.019626182863753838,9.798817767394974,-0.08578896610117835,-0.07886837885213531,-0.342395766790263,582.5359834594124,464.60532336498454,455.83636153812097,stand
8.814691151919867,-0.011915995674668736,-0.03945417073810162,9.864667851312879,0.13925326831954465,-0.37922129429635265,0.23822687519189414,493.6401894369508,576.9358325330378,527.1419286890225,stand
8.864774624373958,0.032176410884882864,0.012086229038182482,9.784925864067805,0.014571227353338335,0.0972106405722632,-0.07702053469084613,536.595710226567,458.45588583557867,484.41585303452524,stand
8.914858096828047,0.04328277776492179,0.027795896531922062,9.806261019230266,-0.23009542948928363,0.15746327998022638,0.1574425496064804,385.59358764587927,473.69776499637356,512.4267303130615,stand
8.964941569282137,-0.0030966637218688697,-0.020940496065585637,9.800386083695711,0.08316500392221454,0.6346057965452573,-0.052764411420033436,429.0704926800192,485.6453991475478,544.8896638112662,stand
9.015025041736227,-0.027321871144260212,0.01088752819510351,9.776805610089127,0.2355900195819998,-0.3977000324184082,0.004711244453923856,434.9306786965906,548.8492988130727,535.7349722139526,stand
9.065108514190317,0.026675580745725486,0.030377102644357105,9.799538630892966,0.2634870361348405,0.005335095512209527,0.24287543455047053,540.2515107957254,465.4774898893303,490.6276553623147,stand
9.115191986644408,0.03149949628391267,-0.015773969632230878,9.794948991216057,-0.06073026461129029,-0.03177731453528827,0.19721957442173466,538.0979989122286,494.5102048540358,434.73348018742524,stand
9.165275459098497,-0.044689444998432436,0.005336541647468308,9.858306063451767,0.22043641121283974,0.5369578629453868,-0.3762564201832825,508.6043306613385,516.6314460829105,495.5342645280831,stand
9.215358931552588,-0.013796351031719695,0.03637437997379652,9.86424752283005,-0.25260015416044296,0.22082547227367338,0.1284302647174289,519.1488243481982,518.3392770578502,522.0641122088931,stand
9.265442404006677,0.00014306208922035268,-0.023200289879925867,9.805830063417622,0.6547215080073738,-0.2003971054581282,-0.4322504964079282,526.1315639324914,507.0836038797406,558.692968701792,stand
9.315525876460768,0.024245106345411646,0.02008465354924098,9.84169687589166,-0.7269739270109081,-0.1465164281827864,-0.36905012853075814,490.24427160429155,488.26462896276934,478.8152432036712,stand
9.365609348914859,0.056283748830797745,-0.04417128000340381,9.770600712495655,0.27330960378672203,-0.568310757917552,0.38994709767004176,509.8899429829721,503.4712147859556,538.5821314165388,stand
9.415692821368948,-0.057473114111332456,0.029072038792573092,9.790565838200703,-0.035795868671005746,-0.13825720924516313,0.12692271889553014,522.0607319797796,478.4169772708311,519.5391741643239,stand
9.465776293823039,-0.01522994211064134,-0.022887435183836388,9.799315558340343,-0.21444805903726985,-0.017006324926756498,0.5288730342598206,488.16407410105563,450.28842065305145,543.2968124050049,stand
9.51585976627713,0.03134796626613352,0.02676163798750185,9.823176759695428,-0.312108393204423,-0.23707632575144247,-0.06958888873399012,450.3686501083296,544.8900048676911,500.3178733866196,stand
9.565943238731219,-0.06015077832889132,-0.008676589187139566,9.79491402293422,-0.07735084048549776,0.12471885442519448,-0.39594127222067993,430.25848663701555,480.637836086791,494.36820738088136,stand
9.61602671118531,-0.01618473004994571,-0.05547070618528378,9.775187388838065,-0.009169751354886277,0.02375008416238392,-0.32674884243746266,424.4941647937022,499.0867052151479,515.5311952899219,stand
9.666110183639399,0.007205020770752094,-0.023155261256451926,9.778080938049335,0.13662838311869321,0.09289683416531672,0.1479995601558294,501.67282711046056,519.9661769643541,501.62837467510946,stand
9.71619365609349,-0.020139405246900485,-0.0021980086478888064,9.765762944904804,0.3694493642157238,0.526464231052655,0.23726765908325456,515.3227393412217,520.5286591239598,495.80422686550384,stand
9.76627712854758,-0.004179498488755165,-0.03810193964804873,9.759118689886261,0.13800526724312345,0.11167265534500612,0.523707187445651,473.0379857625353,505.8902400289839,477.7456865021918,stand
9.81636060100167,-0.014556380561368307,-0.012444145365185982,9.824729831527439,0.29315449651738174,-0.10990862839581074,-0.05634449184928436,494.9795151350454,538.7275724162482,458.9627886407913,stand
9.86644407345576,0.005299013897497332,0.016722798721728535,9.81504130465568,-0.4195813775179499,0.2995564123336389,0.3308878628878753,467.95858739393145,524.729667332925,507.2861821047682,stand
9.91652754590985,0.034794551877468174,-0.03750809153134174,9.804721813344567,0.5996747888230859,-0.46396322137050056,0.21385287522823562,514.4594090834026,534.3517308919907,467.208010177909,stand
9.96661101836394,0.022080449312734868,0.0005321086808597678,9.823106753531661,0.20051208540858945,0.35425227972991447,0.29290298080730504,461.49839339432805,531.3773657380897,593.9577224938963,stand
10.01669449081803,0.052595918575745595,-0.05175160257469333,9.771171102743581,-0.05172010552815862,-0.2760722047418809,-0.027447244633799637,527.6440883297024,479.035640257342,475.47136962307945,stand
10.06677796327212,0.07028147551759835,-0.024030421944032293,9.817236410500596,0.36278441324716826,-0.07134134222744089,0.3102058104376651,602.4701372620317,473.3641858733112,525.9677412993591,stand
10.11686143572621,-0.027549202017930374,0.0072140116834700785,9.833123457418102,0.10809573622188802,-0.20131059217421182,-0.09619188163748035,483.22358227102956,419.9639463188026,501.2762214853071,stand
10.1669449081803,-0.021310726541922467,0.04762105458929944,9.797134480125909,0.19021456327123687,0.09740942342414895,0.6111798667411438,461.2193454374821,567.4112672215413,464.9244733581155,stand
10.21702838063439,0.03356309500023004,0.02403760694025102,9.789702973449101,0.21516291042640556,-0.1232122474163972,-0.06382061186397411,518.4267661715786,552.0808868406884,534.9092399733076,stand
10.267111853088482,-0.01846127543132567,-0.009370260397735058,9.818928742290067,-0.5150317651058471,0.38427452272945045,-0.28007392104674195,460.69879595840274,474.8034633512346,462.7693295131192,stand
10.31719532554257,0.002838378788686896,-0.059700508328679375,9.78664886891138,0.1268543650101,0.24915101754656768,-0.4303904932545301,505.2986325988882,564.0898162460196,525.2296831332727,stand
10.367278797996661,-0.025864676746701024,0.04887359660262448,9.780116670182053,-0.2383822550758088,-0.06252761166271112,0.40045077924203626,477.68267989837125,497.37546699377975,521.5350100881473,stand
10.417362270450752,0.014008961314204205,0.02774069519639239,9.76763408960421,0.015592182033431606,0.21904280344715,0.02159300424768047,525.3876617952751,516.7742480564881,528.8883919621743,stand
10.467445742904841,0.041791528411835074,-0.03946613409811267,9.844323721714042,-0.04241230109076136,-0.04080931148291272,-0.28754746765719635,517.086605721786,492.68308815878163,456.6752705931819,stand
10.517529215358932,-0.01576756762762628,0.022363197439607033,9.808436262013624,-0.255457867886437,-0.17544493438670736,-0.266770663258348,475.22342072341667,461.6729284717046,464.9625539754594,stand
10.567612687813021,-0.02350365856888706,0.02639530019897511,9.831307486504329,0.2986086076220243,-0.19379218306919743,0.1908486385436652,496.78451177383886,553.6053465902635,494.3882350446255,stand
10.617696160267112,-0.004191300049649002,0.03094654040795502,9.793467726721682,-0.007235001281781506,-0.30910272250793075,0.12465003253899735,525.7047606520819,531.6565164292408,498.20268745669364,stand
10.667779632721203,0.00795324939364564,0.05153115572623161,9.803448422480553,-0.14601672612292385,-0.04123972918305132,-0.1929205325358091,458.364075396019,424.4590478298534,489.32256711346866,stand
10.717863105175292,-0.03138243004302907,-0.007455373912666097,9.817314997379789,-0.367036496627892,0.23414726887555637,0.09016066226662753,494.0228116712794,464.75353996590854,488.38399917750866,stand
10.767946577629383,0.004929864453535673,0.02781937438161232,9.81552778324161,-0.08934436278866252,0.22064143298553351,0.40726643178436867,425.8459456868832,510.0198698039435,553.3818237835219,stand
10.818030050083472,-0.014742225792223451,0.04962225913199443,9.81259700618683,0.1171742685006425,-0.05892084268089699,-0.0030750939005797723,521.834042672771,532.2962068606686,504.4598446955961,stand
10.868113522537563,0.03573472379211068,0.018695360962745565,9.786557995812558,0.005230837121431229,-0.20085885910061949,-0.13786014324769963,454.9750901542682,488.08120157814614,494.19817309254455,stand
10.918196994991654,0.01806546021933665,0.023152398921398823,9.82224374305498,-0.21866398958144154,0.6441437895141773,-0.32254231306857994,476.2911826248586,535.2407123562969,550.5266212472226,stand
10.968280467445743,-0.012366758060727845,-0.02960357523031322,9.773144960129807,0.2052050598883951,0.2725243534858617,0.21689589582631053,530.5791622728732,521.4766333880779,517.6748694797373,stand
11.018363939899833,-0.013659991997158324,-0.009884271886588455,9.785011660325692,0.05213391503834935,-0.03903739804268516,0.03447583894517027,465.2424640944068,473.93665901638974,504.3285502835192,stand
11.068447412353924,0.015224611778343972,-0.011525137028289972,9.796714723450844,-0.2781659210978399,0.0028422504286681797,0.06998703107468823,536.5110079239788,463.6192693071362,473.011316700223,stand
11.118530884808013,0.02934904273203498,0.007567523815636294,9.767854495196378,-0.06523345820838236,-0.17429282395824894,-0.15295539777837883,460.85415568882894,443.99504732422156,513.5433923060143,stand
11.168614357262104,-0.010890942665107817,-0.0031578590129512224,9.708054679482457,-0.3548678033520791,-0.5354885762593614,-0.6292288908296119,526.3969581232183,494.12175059535735,487.92678973314327,stand
11.218697829716193,0.0009997623848304882,-0.09385407631270709,9.849182082243221,-0.1729177978292084,0.26994943902601176,-0.07216189887878818,481.1358351698482,512.0967947100689,527.2473442686944,stand
11.268781302170284,-0.023320029072264867,-0.06275917969702595,9.808441252716205,0.07409295176449165,0.10112247381744835,-0.2675676395382809,586.8764519564647,492.6715179697548,527.00453725289,stand
11.318864774624375,0.028098229205910374,0.03592910284993022,9.806513526966588,0.1236705297317921,0.1295149970426813,-0.09154041639384755,508.97540238222695,574.6650996653974,498.64758508497704,stand
11.368948247078464,-0.009092155044738065,-0.05140506807833825,9.796188802607782,0.21711686221860824,-0.3775398611263378,0.41482666783508326,497.10625897191903,474.63480597732854,549.8783387338112,stand
11.419031719532555,0.0019616600476616702,-0.07054851585147459,9.803546885884298,-0.18422367446029841,-0.20618133646428302,-0.30104994592317286,551.4532995100892,537.1665460909398,539.7694244976913,stand
11.469115191986644,0.023795582289243264,-0.005225753294301097,9.796886750853348,-0.09783191585785582,-0.701013619923244,-0.4327153945686762,541.379213991638,432.440895494748,518.2868982218199,stand
11.519198664440735,-0.004351517129770596,0.003323869462383243,9.758091602377808,0.14187551510677415,-0.2785200830588467,-0.17969971648092575,417.11005643298523,530.9363826791553,377.10541743478666,stand
11.569282136894826,-0.007326416100942548,-0.0610812792382657,9.807339326066806,-0.07631778219807576,0.11243793786982759,0.29130605173910035,483.14516424156017,557.0363693603337,496.13423501091916,stand
11.619365609348915,0.03923593019992719,0.06060786143446267,9.803871130918655,-0.27688029507383904,-0.4561871176649724,0.19096003315354418,543.6938811255226,515.7404509627596,497.3252054433744,stand
11.669449081803005,-0.010290751281048643,-0.010699628853370141,9.816842112464832,0.8032515811568331,0.3547458233373028,-0.20427153317128147,456.9760925002354,518.6485747760048,504.962822096868,stand
11.719532554257096,0.024127528830675232,0.039276208351189494,9.848406780693983,-0.19709571451421043,-0.24716253592193546,-0.3548713927099642,502.40497851902364,564.820781585858,526.9232286678994,stand
11.769616026711185,0.004094765761925981,0.0008025790306305514,9.819154125573254,0.1482330296737271,0.5017660558140045,0.2877457194133076,525.5378636963277,503.0360396962604,462.840450311519,stand
11.819699499165276,-0.004088736623473005,-0.01489153529705689,9.807633874115641,0.396031546519432,-0.17371870155316557,0.4851876333860943,508.55667150593894,509.9581347465344,565.3385873031175,stand
11.869782971619365,-0.007252105685793514,-0.009349608041084298,9.79198834827612,-0.010328058627248048,-0.12468300916924915,-0.08273042850033335,467.3987823290653,530.9578651011319,490.5928765325828,stand
11.919866444073456,-0.0003033806127970412,0.03512937513812255,9.831229241972633,-0.32497333209118223,0.47872594711105537,-0.13233199275917118,445.9384329991281,539.9507308519137,559.5941955770346,stand
11.969949916527547,-0.013769280467964995,0.03354043583905352,9.848253936985126,0.21122434631706358,-0.48503732310113945,0.07866850683113223,462.63923865169215,476.29574951035187,560.698718883153,stand
12.020033388981636,0.012351597936771777,-0.02321731144380787,9.798936077557455,-0.07504900521889049,0.18441682429065553,0.015392292919203776,469.3112119559518,516.6813396438074,562.991171672195,stand
12.070116861435727,0.008389208987662392,-0.06443875878428541,9.816342127629694,-0.5371982558560731,-0.321749262648962,0.11977348456047054,484.1239190771383,538.6738512381247,536.1663598063218,stand
12.120200333889816,0.025985157964394948,0.03251459480432665,9.796870003416663,0.05685371062008859,0.021386805696047503,0.041190937812402226,568.5943314861673,496.72507482884185,513.5312313067698,stand
12.170283806343907,0.06687059262989474,0.03130896919602693,9.833359734132157,-0.5199602348245138,0.16331544826906044,-0.04610085854970692,512.472371598798,483.5162582090161,581.1001839107105,stand
12.220367278797998,0.012579974523403037,-0.03558097402218785,9.774449360508944,-0.11728908992602048,-0.14099972541039937,-0.11032769811168629,491.8480537852368,572.8931175871443,434.0849891443773,stand
12.270450751252087,-0.02062371607020362,0.08463638619399776,9.779465877115337,-0.07526294004887917,-0.1327695527880624,-0.41320017220435623,538.4521770093057,523.5517909581213,458.5442299537665,stand
12.320534223706177,-0.013853679769209135,-0.0402597700928955,9.77739831407163,0.046380187386090246,0.14249755638448872,0.03343328869084658,497.9450216235123,526.0096219938504,482.30350007825257,stand
12.370617696160267,0.018707291075958726,0.00812164522517949,9.828086152227199,0.24479925303924302,-0.123077354446381,-0.13178858762716297,455.55486846814136,463.18017567192226,535.5012103691497,stand
12.420701168614357,0.006251739754245714,0.00558427738506502,9.843813292296835,0.12064761306621294,0.19679879907149178,-0.15917480801162145,436.19358414352007,497.9137379116588,473.55832196692216,stand
12.470784641068448,0.041441385485288876,-0.024184661841610722,9.790893244616912,0.026583999872560927,-0.06258519625494707,-0.18319566480417904,463.23117164705144,543.7542294024138,477.9418872564288,stand
12.520868113522537,0.024901300128333442,0.006240255431360135,9.705755341132498,-0.2512659768593493,0.15930254604909141,0.0611689255642528,554.6894499263504,487.70921185919565,408.7918478353324,stand
12.570951585976628,-0.013154365705196347,0.02297604610429021,9.81453968719008,0.41860218365170254,0.07278579661485658,-0.11305705210900344,514.7129513273152,582.8266823215284,461.83827814786173,stand
12.621035058430719,-0.07947723114779102,0.014940878206492987,9.827860212581617,-0.6031248952820074,0.2542623704005612,0.128462755257509,435.5913771595582,500.46743018473785,493.18382346297557,stand
12.671118530884808,-0.0520348332798365,0.01831027543453692,9.790334602680389,-0.30193861930483656,-0.6528744020366379,0.13321415952559537,609.6749260412596,500.32189832712083,523.6479766773126,stand
12.721202003338899,0.03676844050889576,0.018588172965722016,9.785045259436824,-0.1813822326561746,0.13960151896318526,0.02944716182794436,484.1072265350624,508.03265384966846,499.1456905683789,stand
12.771285475792988,-0.01552892502776583,-0.004697918273347271,9.782742237674329,-0.0020018138295546497,-0.365334189562386,-0.07316407263851678,550.3119314080423,465.438354804198,537.1877493752725,stand
12.821368948247079,0.028073329266506852,0.056720585486240316,9.787158020192539,-0.012506412420048085,0.0421114853919711,-0.37914264239032575,610.7881052533558,461.30148831923054,529.6998258169608,stand
12.87145242070117,0.03187232988967946,-0.029580719587509463,9.794003879322231,0.1519791040904582,0.24814470197207686,-0.07625479254519608,508.3175007549482,511.54688328694596,530.0998478758328,stand
12.921535893155259,-0.021917171414223176,0.005735995169536129,9.808416110066473,0.12556864687519928,-0.3111814745186882,-0.39096634820920384,533.8789330828416,496.6829169543687,563.5729986818458,stand
12.97161936560935,-0.037434335166719804,-0.042884468277964216,9.780833674075135,-0.012450331114487307,-0.097875243038432,-0.3751876932743177,479.12042384658565,485.5023803155837,510.5074630774845,stand
13.021702838063439,-0.020552598038848416,-0.030079630207133265,9.8360357435333,-0.27512951950102627,0.1495558973529777,-0.323242751044108,539.1178394139209,454.6858014229622,472.05939803700807,stand
13.07178631051753,0.023700855662758757,0.031300184822928234,9.802780491239133,-0.0676011326363737,-0.04727873467877594,0.18045366670578167,522.5476465793535,499.73225293004407,495.62228629002675,stand
13.12186978297162,0.04554552078722647,0.03864774887940763,9.796632208346715,-0.2384884056861593,0.0023601513775674257,0.33791992027483286,512.1503398454737,482.20288665413733,470.5529249716738,stand
13.17195325542571,0.0167567013523421,-0.021853558694858444,9.825259050175367,-0.16349873570870382,-0.4916900325380514,-0.14859512493391225,558.9698763179005,552.9294217176844,470.6303831310741,stand
13.2220367278798,0.0547032693226855,0.004767165654424532,9.782148070110106,0.3191558477331241,-0.19245294518740722,-0.5044042774041396,505.05086197424066,523.9115187555308,533.3906041723461,stand
13.272120200333891,0.01718035955192651,-0.0018372599407356152,9.838265523187507,0.28768082571710285,-0.16807119155325126,0.06433780210904716,505.8558633632478,489.90358287841315,531.71210345819,stand
13.32220367278798,0.03892466783663641,-0.04330241184674391,9.795506556445995,0.28843670890888434,-0.06111053257287021,0.08538320513185306,536.1071010314963,527.4907561670511,492.07835326275597,stand
13.37228714524207,-0.029827499590986385,0.03927268636877056,9.826624141795591,-0.3156770561832754,0.3927552065620115,0.41530726448045635,551.2360674784625,436.1266500070915,436.746485184348,stand
13.42237061769616,0.01150731327112195,0.012865413158100969,9.826187160978124,0.18815634705534479,0.09290365787063534,0.3112236533872152,467.2661378104639,497.27760447459764,534.3825190694357,stand
13.47245409015025,-0.01937079705750462,0.015895120004687957,9.771897498949368,0.45163288954386305,0.44822266202619027,0.09049913087580151,474.1248298915718,448.931674540834,467.6916042730306,stand
13.522537562604342,0.08564292272321929,0.02046206131904152,9.748594766342709,-0.1287202069007498,-0.2539856860878473,-0.22117862579559205,518.2691949129378,490.5641067044154,528.6762997286561,stand
13.57262103505843,-0.005467080330566879,0.015666891267068918,9.792319667296663,0.03537967628859817,-0.01806310480748862,0.16091768528519418,499.5454357574729,440.9996062109956,519.2429028377934,stand
13.622704507512521,0.04922076753824385,0.016310631833473477,9.782641707617623,-0.25892539091936945,-0.19692835995359476,-0.02382101462763275,520.4397742403909,506.1234141418799,526.2506206368694,stand
13.67278797996661,0.04140870919267288,0.0013513091149110201,9.862375946617293,-0.01313177325548746,0.2540615937047924,-0.23280679166696716,512.8057509886157,552.6843308207004,522.8536641658075,stand
13.722871452420701,0.010151737399123367,-0.010734017134139504,9.72015609077472,-0.08004117195860176,0.4853210968189997,-0.12128726609928481,552.4583218686122,492.30997535324866,463.17856280995557,stand
13.772954924874792,-0.014412526044042417,0.011326269569143024,9.80602312558358,0.219966965253158,0.05209386847078151,0.0602525074085193,473.1385943975144,519.8661071384694,486.3351081361174,stand
13.823038397328881,0.040608280053227266,-0.0186263499758062,9.841123053447172,0.399927008646864,-0.10386477841683064,-0.34699977102531565,477.9816682678129,500.5311114141103,539.1258073194354,stand
13.873121869782972,-0.03769209868738576,-0.04669607461065342,9.82187912896834,0.055518292191690986,0.09671129444461775,0.061913105310011714,444.89776766210406,598.700882307104,564.2825070994284,stand
13.923205342237061,0.04542024030256765,-0.02376987376987466,9.74627693781693,0.06419797667850406,-0.17205904211960113,-0.5559014663808823,536.2346743111488,524.9287195609276,499.5070172523576,stand
13.973288814691152,0.012505452897278002,-0.007722799605890271,9.801784697355288,0.11221851747026447,-0.30091869875989513,-0.4132278697623851,501.3622445589755,514.6730412695994,502.47632269393995,stand
14.023372287145243,0.019359705676126285,-0.02533928855729202,9.76332449808727,0.05298975180443831,-0.14621329885938325,0.16467142980529959,407.26075923959434,482.9080396677871,509.0021220529288,stand
14.073455759599332,-0.001488900290662551,-0.031034264338447484,9.783029123201327,0.14800190553709153,0.07876037532789226,0.3298663989473375,470.4147088280122,532.3978763646688,486.66694299886746,stand
14.123539232053423,0.06478409369749687,0.03788408526922499,9.75716131712818,-0.07950035325985752,-0.058123566384130285,0.5049417709866899,505.3753896682252,474.5932032092498,531.7278734342307,stand
14.173622704507514,0.034415434965482036,0.06361594251063385,9.79970181579768,-0.2834194268442341,0.1350465788629209,-0.4660205366863902,560.764134399167,432.1262547935275,513.6623157422916,stand
14.223706176961603,0.034215132265057346,-0.005309793531377602,9.74919367122071,0.3099485938326503,-0.1879943214794777,-0.0448899035790854,596.6158395014093,421.5750034754306,452.6728380110937,stand
14.273789649415694,0.004282542297637415,0.04516630963538941,9.811658111863347,-0.000929934403268584,0.07859579230987063,-0.11269712018094043,494.09353985139063,475.093230364791,576.186846635211,stand
14.323873121869783,0.05564038084746041,0.006392511642266972,9.812301592821457,-0.4706226478526166,-0.0754117971379162,-0.10915734440454537,477.7779593844436,470.0299996737262,440.2126792859469,stand
14.373956594323873,-0.023997674013801665,0.01827701740701116,9.767995944411814,-0.05160818576839521,0.10353317130087007,0.013344491321183797,508.57777053164153,479.7812771979399,475.26048770953275,stand
14.424040066777964,-0.049608541456586316,0.030425603679946924,9.745405991015932,0.0837527080316506,-0.05554466012478185,-0.15384699595132548,482.2655997780892,490.05017213413157,542.9900713322111,stand
14.474123539232053,0.020374541806820884,0.020910182678296765,9.766040942005436,-0.30284200944745693,0.0026380542959266767,-0.2300435697792908,446.86010079033326,493.8508207024951,562.9202624296672,stand
14.524207011686144,-0.05177779215277466,-0.015063926833749547,9.760599037766374,-0.30820454206567466,0.4777840217792817,-0.26399717985587096,464.4568492072885,566.314411039313,415.1646006009274,stand
14.574290484140233,-0.02938681151769717,-0.0003517179050967906,9.771808935384266,0.5263031436916538,-0.14308894742929767,-0.2310566250499784,494.2040715594294,476.98529420089227,465.8521365007204,stand
14.624373956594324,0.019848441339183634,0.002800672809215546,9.81286476439379,-0.37196371893328384,-0.06778345489911536,-0.07498961983719313,523.9499437628848,490.41739431393165,529.9457727352404,stand
14.674457429048415,-0.03746719430698154,0.014400705624078323,9.804787345314132,0.21804864711110833,-0.1751329850351527,-0.18510367433161407,483.43707364002876,524.2614881757052,614.5920989059068,stand
14.724540901502504,-0.02988121309550929,-0.017786713668730067,9.820377304337374,0.0020886159130324372,-0.2737010737752817,0.45711061231843625,516.9424894193472,557.8873538784936,360.70408420333166,stand
14.774624373956595,0.04796533117108824,-0.020090622398798066,9.867219514529022,0.016935804683379945,0.07491626606865001,0.47909155118455016,556.4161662233356,495.42066208601796,471.4472639043072,stand
14.824707846410686,0.003107821609455469,-0.051593337422609825,9.790141935897635,0.21006388008784485,-0.005776395366746921,0.1077005034645693,610.9329716886036,499.42615284941564,550.8100198431174,stand
14.874791318864775,-0.022043188453350127,-0.007732509832692483,9.817295914856999,-0.026774161273851505,0.07199823807758747,-0.4354264785792368,528.4654221528874,554.143579520937,489.71078460713704,stand
14.924874791318866,0.018325680278014067,-0.05751816013317691,9.864657832040715,-0.27652927313480874,-0.15597504171038046,-0.2588386655740256,451.81792087023024,518.8566565384635,470.224276604039,stand
14.974958263772955,0.008745328675133918,0.03545637733152359,9.776294081107785,-0.12451098503814066,0.03176240196001722,0.021041662392266104,466.5264596349069,543.1571300234921,553.3038295487002,stand
15.025041736227045,0.008785251681894465,-0.03384864071040859,9.77703756154614,0.06460030180827657,0.21780473056000565,0.08338955837234995,434.6941538319212,512.4064948876127,508.3164486276955,stand
15.075125208681136,0.02642369722161282,-0.0451070623433235,9.742727462006924,-0.3371282058921343,0.18464706198538827,-0.07844605745145239,609.8667282338121,532.8178107005044,534.4138051865605,stand
15.125208681135225,0.03147486841899623,-0.02516695125848023,9.798083368073529,0.38402493605134685,-0.0027186700431996408,-0.10000355860886255,503.3488070117132,448.92442297887294,497.7689800434733,stand
15.175292153589316,-0.008725648155547633,-0.054003977785715224,9.8231699050264,0.07774979855238819,-0.05712778563959,0.19285824720476985,519.741299046087,520.522912389321,515.6355118282718,stand
15.225375626043405,-0.029598410416460073,0.03794441695801367,9.844794103519426,-0.0235857618858439,0.4393939505009363,0.2758577968338042,540.7670660713054,511.11765250304774,577.621719206547,stand
15.275459098497496,0.06452617883380936,0.014420091171641988,9.765736323817503,0.2199372124966769,0.33322996063362553,0.10579915721919055,603.1837599058198,486.86536161279736,536.7849356506948,stand
15.325542570951587,0.08338949575153067,-0.035347507419537266,9.844979248720469,-0.19468564534884802,-0.23283800168814206,-0.012268776076269952,474.5726328790864,456.1710865655158,557.5452569774033,stand
15.375626043405676,0.025594523873622974,0.002119634633267191,9.782426399431072,-0.39104532381690926,0.07957585553024493,0.2976939028789091,520.0970694883525,441.11401173622045,477.6643182477354,stand
15.425709515859767,-0.06915059763399421,-0.0293058449723151,9.793275926391589,0.10122226542793318,-0.10354868862143629,0.1865868057312052,435.4438384398514,477.4988011122831,497.53303907480205,stand
15.475792988313858,0.014748609453513292,0.02200416593449575,9.868693218761257,0.07681272559418041,-0.42392720812531415,0.16009384023195802,485.7113440010881,569.2795358946648,556.7207731552014,stand
15.525876460767947,-0.0030771651518432946,0.04151199290708858,9.83032975865908,0.2132048631033608,-0.13374963233116874,-0.11611448462025224,449.75196770348566,458.833851481559,509.45022993960134,stand
15.575959933222038,-0.045061515046190145,-0.031947301044287946,9.818498137314776,0.31732060875855195,0.281847862936944,-0.20594391620345154,485.42350138967066,432.9219338759915,443.2443722384422,stand
15.626043405676127,-0.029419415485065076,0.02321432409408307,9.820118235709653,0.10138717814878848,0.013887920047181214,-0.5255056493188704,508.89695775927277,479.1325605213726,491.0389412727218,stand
15.676126878130217,-0.014487714910944291,-0.02261498654996777,9.76827144326828,-0.33593798486832255,-0.3633680996333663,-0.05092495384497743,518.7663095205476,579.8514294430652,510.02167821057293,stand
15.726210350584308,-0.007620599513284462,0.0005641276116040636,9.778796468688363,0.2442271578170873,-0.02379929078404666,0.029417233867211765,452.4397338064488,485.4398804047972,534.3590825351389,stand
15.776293823038397,0.043114172240273405,-0.016646665912605912,9.797774142325355,0.2894121040328479,0.4439760197365333,-0.19736917931828146,487.03650328253974,478.1474087535601,616.0568102802292,stand
15.826377295492488,-0.0028282360904768183,-0.02741638502860111,9.759228392965495,-0.15185028901649014,-0.4141016895699978,-0.16651198403855008,592.7941600786537,455.0528629550618,430.5128146045908,stand
15.876460767946577,-0.031291098036845176,0.0476337684330555,9.79563429072484,-0.44989719555752505,0.11482675017093716,-0.16583280096950448,515.431106110031,509.8069109547157,599.3285181602614,stand
15.926544240400668,0.00721867705193259,0.01985355830209931,9.821729139053932,-0.19070116336558987,-0.07691478041907249,0.4530213801982303,430.1444817827151,533.1566789384582,461.6879008569153,stand
15.976627712854759,0.04089198917484076,-0.012311434059860571,9.790318244814321,0.29668607599089525,-0.26450944271839866,-0.31662068476037103,514.3898210806842,524.7309023909452,533.9566153146259,stand
16.026711185308848,-0.010082416798004007,-0.014119995692516499,9.840529586513348,-0.09533280103008643,-0.04525223559005624,0.15003349206187624,476.8173853903427,468.5587357055826,508.36265506245053,stand
16.07679465776294,0.024731050614267988,-0.004457806799688685,9.800331585538574,-0.5139555879828352,0.07286541730151788,0.14481466580128372,534.3653573339296,455.76932779465085,460.4484767556244,stand
16.12687813021703,0.001936801151973741,0.01606082113566809,9.824898143981864,0.04682294637237709,0.19685500708338652,-0.28882494140369236,490.28774585331064,532.3736935342113,484.10936713183986,stand
16.17696160267112,0.04236977881727205,0.006791665905957443,9.747256185608954,0.06970265935690588,-0.08744834627053254,0.25092939449099416,441.1857388575947,537.3600548139534,499.9273725733878,stand
16.227045075125208,-0.03293534858072193,0.03198439563017112,9.81738318669781,0.06815093174087793,-0.06572543702433588,0.1513721637653224,541.0610832956419,478.8206651687635,510.0685622914479,stand
16.2771285475793,-0.0002674331607570857,0.028783124045526808,9.8372287843195,0.5910318068729854,-0.4321520979397989,-0.08956537846275608,489.8558288626447,428.57832433505587,556.9594032668101,stand
16.32721202003339,0.008935949172340099,-0.018365971405098783,9.814176662126266,0.25303833378475143,0.5469380590436396,0.14518292416448297,532.6457313441238,521.1076297652487,482.7943717059821,stand
16.37729549248748,0.009581039910774372,0.02268902644797814,9.826812388459084,0.22411973325028073,-0.08065796365486151,-0.39051626118908594,543.1436567939026,492.7400129477267,503.8048916327494,stand
16.42737896494157,0.014204557651470023,-0.06915464554702985,9.77075290373587,-0.21377222153435302,0.037589044501078084,-0.30556715622328706,472.69370037655347,449.1868511840586,532.8247935941602,stand
16.47746243739566,0.011662956410057712,-0.06182119057300159,9.782439000936135,-0.17258634132005454,0.09720490013429668,-0.31390088263116156,550.6135583512105,455.4680896495949,524.0968953363898,stand
16.52754590984975,-0.02456160883181424,0.002186350472103221,9.804541320430186,0.33384200967252553,-0.14242548031368268,-0.3069571802862485,551.8454167710587,517.8171623500026,534.4471882321459,stand
16.57762938230384,-0.04868032246622446,-0.017054432300698807,9.785965877398217,-0.0280284535189001,-0.10400071316434109,-0.16467782563791486,437.1742793208893,535.2289264027005,513.9154503337141,stand
16.62771285475793,0.0504381990809213,-0.008499673474696712,9.833790806042146,-0.1321763729784678,-0.10284283133491838,-0.08732893684499499,489.3947712163787,480.06428651986283,478.40643138674307,stand
16.67779632721202,0.04854242472023797,0.05049551416820941,9.791973651270167,-0.10058597435173425,0.4096737488742778,0.10689940322785461,440.31902415347525,402.78163213266185,538.7079831468915,stand
16.72787979966611,-0.011051827150514351,-0.00675665030130311,9.801296126496466,0.16990072957050487,0.1294959652999991,0.14875761877382881,429.85074326935603,517.8830806950159,508.11569325476177,stand
16.7779632721202,-0.06305965938419178,-0.055785179813847355,9.751297808739116,0.37231962642811106,-0.262098148308263,0.03853171206647188,487.2231285047659,483.1635856201566,574.05385959047,stand
16.82804674457429,0.07916645604952584,0.019020467209305725,9.80645662754657,-0.43959855620831906,-0.11700382056416518,-0.07841207258056658,516.5543522686357,543.4450975597704,504.9064805649758,stand
16.87813021702838,0.04188116598944762,0.01559934320237829,9.796969090217901,-0.3284912551121895,0.02297094694568937,-0.0833826822237793,465.36442389383393,490.3302814589435,460.1213191874561,stand
16.928213689482472,-0.0019448079865643508,6.445409333057095e-05,9.842025543368631,-0.2920913858549093,-0.03827129808692816,-0.047967650130957405,506.15808834167854,452.1202673088729,472.1513386945596,stand
16.97829716193656,0.03783530259876643,-0.030246686393768124,9.813254797205763,0.10136864867552249,0.03830518479713266,0.2869612756566326,506.86257521124134,469.3885863188577,473.0341743426113,stand
17.02838063439065,0.006183995051826707,0.017095737158334054,9.802660768822589,-0.1381967352219862,0.011024966865719629,0.11795742834661457,494.37940151109365,425.4542152925041,524.8132426703492,stand
17.07846410684474,0.027149210450850086,0.0074784364997235245,9.737445860998378,-0.20815935147103157,0.20582031277385693,0.1149909262873776,489.91951475818104,448.55470696033,548.2929039350552,stand
17.128547579298832,0.0026191279817849022,0.0010402915687691555,9.759025514369482,0.5788627601349212,-0.22027167964883848,-0.24620918554976448,531.1014206840896,464.49208719975655,490.3921418588813,stand
17.178631051752923,0.047433975681114085,0.005521756140779342,9.808446650927976,-0.2841587285206135,-0.15367852536575433,0.2799709738389169,588.2577643968492,611.6813076919236,541.4166559308394,stand
17.22871452420701,-0.040156552228461484,0.00826277514411232,9.75044806241803,-0.5116206829930172,-0.2368030432796042,-0.14491635549485904,488.72587003506595,581.4555285292663,569.4676181724058,stand
17.2787979966611,0.02268817904725097,-0.0060748394444516685,9.74820871813684,-0.2708610127174828,-0.07470232577306089,-0.4157046196594017,518.5213411257248,581.2962481402781,466.58816519423556,stand
17.328881469115192,-0.02672783682162809,-0.05239949954428266,9.79456240949982,0.5178926311144865,-0.37551293596925894,0.06123478424772376,413.3918885847431,511.37261771107006,537.0850556737067,stand
17.378964941569283,0.027300516104288672,0.0760248368857542,9.785693531156848,0.5037934357069644,-0.05185507527787722,0.30005497584000124,466.2624925337024,491.1328708286309,450.72957921984516,stand
17.429048414023374,0.014208793013648136,0.01109619729780232,9.70317847240449,0.0018138565333899541,-0.12187583703689957,-0.17852930070914425,457.734758758877,453.4656400876986,518.3249533942068,stand
17.479131886477465,-0.035108813471532406,0.039246449824605574,9.789987197643857,0.015782701156651674,0.09887064125956584,0.042098009356054726,598.4933842480975,534.8489386399649,589.0014796682185,stand
17.529215358931552,0.01540107681731663,0.020991364309509757,9.797258792262442,0.5045949854488476,-0.30307185270128784,0.19906015496974888,517.6914493514247,550.9546846633837,507.22292514892314,stand
17.579298831385643,0.004014143959085628,-0.005953162512989246,9.794234334999464,-0.014125977409054696,0.3204229586133524,0.18337465252160887,473.96805042679483,491.7300045782672,527.7971016156613,stand
17.629382303839733,-0.03649448321350564,0.018293987584650048,9.756912458414623,-0.09107251070061433,0.574908095414536,-0.3711193795950188,491.49566620577724,504.9465556569216,498.82707879711705,stand
17.679465776293824,0.021200935548228578,-0.008930175123896489,9.808016732883154,-0.052785199123414325,-0.06264835723170452,0.18777706380162887,544.7668778717359,507.4675553772323,549.0864837843545,stand
17.729549248747915,-0.007887990599954861,0.0012181643450771273,9.811421173319088,0.1281921344233961,-0.04887801728019494,0.50723722892225,592.564691437758,536.4830849406281,477.5276236233054,stand
17.779632721202002,-0.033948511238625016,0.0010936718527105385,9.756583248153802,-0.5260999815688701,0.3986169553085213,-0.2644950464011159,481.585669267546,537.0768211323754,490.91986417194096,stand
17.829716193656093,-0.020628549194553113,0.006178089618615004,9.80596097855083,-0.23964525629382846,-0.004814401261281379,0.09649016087445311,503.5120385864186,547.849581260268,534.0059398847619,stand
17.879799666110184,0.019600581186214966,-0.055537494845198154,9.764428756668035,0.3593489878748736,0.2841612141567902,-0.34246034951498855,599.817369542404,572.3750794199218,506.8118635393631,stand
17.929883138564275,-0.0408719723332671,-0.007777238711372744,9.783286615250796,-0.40135549533258624,-0.0603995603682999,-0.24702746547003582,514.2142917951647,421.75158906013263,519.8439639656317,stand
17.979966611018366,-0.019508868432497564,-0.015394786859981718,9.76549871526187,-0.45024468147901314,0.08457875007326182,-0.4348453363379873,495.0638855148508,482.8150027912666,519.4762885334828,stand
18.030050083472453,-0.0022429732452102225,-0.008610187835906766,9.781157644415005,0.18059054779047942,0.20941197139350548,0.1301039775625111,471.7045785712658,521.6516436076304,535.7748144212256,stand
18.080133555926544,0.037235537210113065,-0.02436834660699433,9.824440057501201,0.04965722669733192,-0.06693209937897793,0.023052085665057544,530.4905013528186,521.4059171275816,427.3916615528728,stand
18.130217028380635,-0.055034872824577925,0.0539721832833163,9.792197715162747,-0.10416019592339387,0.056502685029476175,0.33046904867786453,594.205576387379,461.2180818406036,480.2109545700122,stand
18.180300500834726,-0.05749702777914599,-0.035157360392247344,9.766928752384905,0.3688185606240429,0.14699324840595374,-0.41184126861698406,496.90247800077617,557.4069067237243,567.0807756748917,stand
18.230383973288816,0.010577066911956243,-0.021678931128701465,9.840759546835175,0.1140458807117638,-0.042227320761081016,-0.08034025063634642,541.3221558721953,586.0271270585932,474.7367350368109,stand
18.280467445742904,-0.039129997971764356,-0.06541420734138242,9.812951636704339,0.1011506878934415,-0.33504521610875737,0.059278397873424336,493.4212887648582,508.94345546587186,510.7874022128192,stand
18.330550918196995,-0.013374956020813664,0.007256758719386545,9.856434769622307,-0.4522061849334763,0.3628093022666994,-0.09455797115115516,511.1193948767521,461.6913189487191,600.1863961072175,stand
18.380634390651085,-0.013904613250128789,-0.03627603511403181,9.79233473181132,-0.207100365112722,-0.22757137934474347,0.3038142130594721,482.0665909382964,531.7860521881198,559.3902524905023,stand
18.430717863105176,0.039414012609125124,-0.0387025011450412,9.791855337369242,0.16813507914037695,0.27896474691062695,0.33363250292027097,490.0890107093088,457.1915408175688,520.9347657003565,stand
18.480801335559267,0.025375256782375247,0.0023716954426424228,9.778218118881973,0.09722754181416024,-0.35301614313593893,0.2122848064883031,533.4755020680706,443.0445070220203,502.17898190625476,stand
18.530884808013354,-0.02482193220160238,0.0154214104072904,9.808638322566463,0.21632473414626846,-0.22189910444539626,0.18097801581366538,485.5950240124206,503.5634953326774,500.73942522734654,stand
18.580968280467445,0.05390771298273474,0.022482315138652037,9.841633057180516,0.07487056274087202,0.07850721571037107,-0.23230428332094197,427.79183613032154,481.40771364912126,459.1502360049188,stand
18.631051752921536,0.018969831841298926,0.0009523269602559822,9.833580927953594,0.7244145262874874,0.01526655490018969,0.10338902254331635,532.1967854091536,580.9103628862044,485.6819243856119,stand
18.681135225375627,-0.006266555912212632,0.05699887293880211,9.786853575759402,0.17377014020624412,0.25261431334666073,-0.14792910987816763,518.8139879480422,465.24592469407145,499.7087245347408,stand
18.731218697829718,-0.009078704355452064,-0.04908735810464107,9.821650129846242,-0.1401339810135512,-0.01288905816403003,0.21501245408359715,539.3023958589915,574.4284097816021,416.424532875636,stand
18.781302170283805,0.06405906698537879,-0.016207484139203768,9.853332108432332,-0.1265388857326098,0.06202906997956315,0.35133065227343563,462.0748630708406,474.7961966744132,454.35377777440084,stand
18.831385642737896,-0.04076631342120549,0.016464071049169193,9.76468085348553,-0.27831395004049586,0.4311422347195225,-0.028370955506229145,470.54583134332796,475.55435961894614,462.9182752408505,stand
18.881469115191987,-0.004545316196489235,0.00845707993075566,9.785826721151187,0.1798395964923589,-0.4274479663300247,0.2970500058223099,426.92177077877994,506.82974181447094,467.25489268695134,stand
18.931552587646078,0.008026837751155466,0.0086744297134638,9.854982882799797,-0.5103982118433059,-0.3349387843998735,0.05855480316271514,506.2705083011867,475.56581485556734,527.804812727008,stand
18.98163606010017,-0.0029483069909166937,0.014397447587351467,9.762460987777239,-0.0653168675594351,-0.4062540879972317,-0.00599376396629785,446.9957139581952,443.6681659344951,476.5077647470014,stand
19.03171953255426,0.020655477697659658,0.02001695749674163,9.810983651745968,0.06229543075559125,-0.08189905853819936,-0.24720756128984012,489.36159732030956,470.3075429208428,587.0413724423274,stand
19.081803005008346,-0.029241463906905185,-0.024088673088178178,9.786599637257646,0.5195952984012988,-0.585560410707805,-0.006069860197662877,480.7550654209429,484.40466630162473,513.6191492768861,stand
19.131886477462437,0.04192926641936538,0.0403467941259573,9.78666147756128,-0.11600536581947113,0.061470055085880146,-0.2658030712082744,445.90536564368625,476.8385664713351,518.2520712678611,stand
19.181969949916528,-0.029691605011190142,-0.038820397344114854,9.781010553607027,0.046718257533019045,-0.2700715340122486,0.10592031185552478,547.1590483867725,495.1501383705231,438.70030993535426,stand
19.23205342237062,-0.040428600404188726,-0.036739504703196146,9.826608562300418,0.2344408485106941,0.008815502394435229,0.2972265668297942,590.8817674785199,530.7631559161061,526.241292351249,stand
19.28213689482471,0.06552302686625867,-0.027812133866382094,9.79758403276129,0.2745780690047108,0.17705770093564524,-0.13571832061444078,444.28532378831966,532.5681373507592,514.0869579771862,stand
19.332220367278797,0.0035171055714369737,0.04318585034089256,9.81145762790733,-0.00013868597181421985,0.12851799867797292,0.41008956669572244,556.4101234386735,466.70953002969895,521.9860273250009,stand
19.382303839732888,-0.014095058445372274,0.08735433453985031,9.800149784694371,-0.09597621304288424,-0.3028260065388594,-0.32518501077051365,580.3173282087259,519.228377025098,458.9293802386392,stand
19.43238731218698,-0.022240735284973355,0.0256134833984845,9.747703428487235,-0.533214708571804,0.36084939888872974,-0.26404326334194067,531.0727022500257,486.5593584426452,451.16739492196166,stand
19.48247078464107,-0.0167467334636789,-0.02896048909341102,9.790133201980726,0.00904956763879718,-0.3320829132530996,-0.26134222017822356,518.3448021403326,501.9427595693299,483.40607612862783,stand
19.53255425709516,0.04295443286403701,-0.00041349751337206586,9.801559116691568,0.020913937656419135,-0.05225294115007032,-0.05124075758946295,558.8526187546411,475.9004575127806,533.596438923179,stand
19.582637729549248,0.02150960103938357,-0.025865558757019125,9.79299219343246,0.10886289100941755,-0.3267731390030963,-0.17942150876192925,587.0666605636396,463.6111751587478,516.6015285704672,stand
19.63272120200334,-0.006986829466440983,0.0013006204727340903,9.814380387420961,0.3709003542129017,0.32292009854073583,-0.48706618919076355,513.5156492681074,513.6208032300237,495.47688055602276,stand
19.68280467445743,-0.03564653758048352,-0.03756073227318829,9.825767516839838,0.08951510176549056,-0.1374122468700292,-0.35383704379935327,558.7481733125918,453.00976514254177,520.1255466257537,stand
19.73288814691152,-0.05372417175201297,0.05094775232458908,9.754749523370055,-0.0011791988402962534,-0.2529862160648924,0.1921060438926698,533.2767602574394,503.3945506722475,547.0672987495194,stand
19.78297161936561,0.02563818510289899,-0.008653619977764995,9.788823659775469,-0.277081928680093,-0.27716220188388313,0.058358802811211016,526.5665927233206,462.8122958368703,529.6571405203237,stand
19.8330550918197,-0.004030966246866982,0.012557290459810341,9.788210626308928,0.09434151281224556,0.20771894599954463,-0.039369278580222114,539.7181379715205,490.108149386944,516.0137935115491,stand
19.88313856427379,0.026536233005330992,-0.014411875330137075,9.843589699435217,-0.15798273678589275,-0.008644569637791302,-0.3632664818974713,567.2415274114344,508.70817212202945,445.42265824192333,stand
19.93322203672788,-0.019730235486675504,0.017539272702463984,9.817050961786098,-0.42639134786051136,-0.47889192625493365,-0.34681150618369977,514.2044232009841,498.03729381744097,534.9783488414798,stand
19.98330550918197,0.01323904397647506,-0.018486548613743714,9.853275638473898,0.07552933637622979,0.4797670354334717,-0.32650281634426453,539.2882218745852,558.0920842295554,481.4824231843648,stand
20.03338898163606,-0.012967449555174024,-0.026669729976160045,9.836893586914428,-0.228424297504059,0.23551604569178103,-0.11661664916803766,473.3373128735348,419.51776982373906,492.577423210809,stand
20.08347245409015,-0.05018617078681394,0.012679071510034938,9.768736959459174,0.6952549828132167,0.1373215859528333,0.15723386647103182,518.8078934245962,547.1371370213226,470.5615984524579,stand
20.13355592654424,0.021621712772035312,0.014865437896582921,9.788032422952192,0.18862723227180986,-0.41987533332168125,-0.37157021136061824,520.3994114280974,525.8125797596929,542.610144285005,stand
20.18363939899833,-0.025589981717851165,-0.03977347360938488,9.778855186055868,0.9528550090291864,0.07853957002079175,0.3184710106469477,543.9596664590122,509.2859790563366,474.02812460821434,stand
20.23372287145242,0.05120183757038034,-0.04408743437030836,9.754091367765971,0.15530059693314355,0.1621744898526237,-0.027338106570629416,519.4524359094327,453.1360231573068,528.385552759223,stand
20.283806343906512,-0.01423999489724899,-0.03621014016125476,9.747483776953533,0.04618667735377287,-0.21002035702589247,0.30698888676623737,535.701025737858,503.8645242966788,493.49739239009,stand
20.3338898163606,0.009099533871414253,0.044464240171040406,9.843078603905301,0.3225608310910804,0.3769979475122097,-0.2607797441616089,509.951694420369,448.2772936614723,491.53356271590553,stand
20.38397328881469,-0.026966903386205457,-0.016586864656406117,9.774057805498943,-0.014012219769881085,0.3845186301234211,-0.2937161234864177,490.58954385709404,444.56957555486133,458.95786280238707,stand
20.43405676126878,0.027905948081028017,-0.00900536417716602,9.810018421916535,-0.1112187905472512,-0.026986026991867154,0.17477285705898757,482.9550773431409,423.4723756005232,502.44832283666943,stand
20.484140233722872,0.03416565047133202,-0.004302667328685589,9.76237522952432,-0.2633546628798242,-0.05963586464366847,0.014644320754195613,509.66417180326357,506.6163112100727,556.3093485306872,stand
20.534223706176963,0.0035171476256440626,0.05329216059665851,9.811078054219102,0.1454903062536489,-0.08159603216884348,-0.2825047336208994,501.21876955203214,517.6551536093989,478.79258488795745,stand
20.584307178631054,0.006808321844477189,0.04819430844138281,9.876142469835704,0.11099369909414067,0.28994350334828906,0.08798355353373427,524.1828902289058,502.0105664493048,433.44510271300857,stand
20.63439065108514,-0.0017570761012452585,0.06110572719122949,9.794124904383155,-0.16217337544259536,0.11095074012090285,0.09042218227550172,481.4878265091744,473.90093060581745,505.8448201170285,stand
20.684474123539232,0.03592074061394589,-0.024624597426333786,9.79056593849057,-0.3186872546071373,0.4725620949756948,-0.07290386696174996,539.9064560742727,498.5356519948807,458.60718410484264,stand
20.734557595993323,0.013006546392962559,-0.002780795370778244,9.817261793357543,-0.5026542277786199,0.17081377800017328,-0.16824108480744362,446.68626785260653,485.64518361198463,481.35351034171487,stand
20.784641068447414,0.003036432775057593,0.03574537313233279,9.815877146845153,-0.4334022414172889,0.3673178474848047,0.28765450319503977,500.02081018823094,454.1838434473413,532.1266358551965,stand
20.834724540901504,-0.004558842975619051,-0.0039831252703997205,9.798289590524147,0.0011423663444368951,-0.2479854405658601,-0.23142328429685532,500.60653420200583,537.484791594673,489.34576195041353,stand
20.884808013355592,-0.006493134165207234,0.021579546081973947,9.78725361480831,-0.009385251124244414,0.0508292329813916,-0.08791316940835049,489.84971406721905,493.0553991014798,474.13818763071527,stand
20.934891485809683,0.012316291165457974,0.010653849364468782,9.77787567178929,-0.45438396415209203,0.29983626547262915,-0.006785830817730876,469.0640137185004,509.13295908598735,511.1651017278208,stand
20.984974958263773,0.047634341982330894,0.004349531834709708,9.772162346656902,0.09567262739798105,-0.1801848072127788,0.07498455228629901,457.5684749588403,521.2650408360614,542.9237148562413,stand
21.035058430717864,0.05813397840681313,0.014886166813631217,9.810545112124558,0.09200183952143703,-0.2307352576067923,0.2157875758941429,487.45843755651913,566.2657536567334,560.9731942203571,stand
21.085141903171955,0.034361931181155644,-0.020878523845446723,9.757385172202278,0.29456473325868654,-0.03979208200162516,-0.29501002318561337,480.1272603315904,509.27145988466066,474.6636276899861,stand
21.135225375626042,0.0359498155069075,0.02732855012658758,9.881871110178961,-0.28971253012976894,0.20890075582582487,0.3504144792406046,456.2648133944216,528.2302973552816,553.4208834013499,stand
21.185308848080133,0.039265098204675344,-0.02129804122679954,9.810182552585967,0.13517130070639838,0.06702378749075706,0.07997054160267464,457.06843921672106,454.3683543552701,447.24123122342,stand
21.235392320534224,0.024638106875135415,-0.016433250385625167,9.817628083780901,0.5006812480763627,-0.005751807512174711,-0.07983840819884279,522.1662463656423,451.92759201108146,464.9375681249299,stand
21.285475792988315,-0.018915958208564593,-0.015003330043301788,9.830971263050786,-0.3087191432882189,-0.04329945494285527,-0.008879515719014124,554.8139395623311,503.5617264672181,513.0700331718822,stand
21.335559265442406,-0.01074209746461291,0.02161471521610056,9.817080641848463,-0.03188319270840423,0.40888215889673585,-0.5358975313656501,506.906980897158,436.0633181335993,507.8177334052913,stand
21.385642737896493,0.03171433666005388,0.01965121361300299,9.737779156182732,0.239120800424637,0.009392163663968585,0.323506076701952,459.9485377926078,507.16979657945416,517.3722846318603,stand
21.435726210350584,0.04152219798728386,-0.025414133532568856,9.757472112824354,-0.12202760258445497,0.19771753546463183,-0.09446708386120152,564.9929118347471,472.28964646776456,484.62616489573304,stand
21.485809682804675,-0.011479609787359582,-0.0011198278630176056,9.735019124623541,0.22700259010173174,0.18570739178466927,-0.4080186333047057,482.29801019894325,498.2053750474144,518.5901128376521,stand
21.535893155258766,-0.02527355188245014,-0.03263565556964722,9.823967514271498,-0.17741424857942628,0.11723649952164375,0.010396211666750413,481.0215497872583,409.1232087298563,458.1647158175332,stand
21.585976627712856,-0.026520969360680005,-0.05167036297540073,9.820347586460914,0.2511745100788512,0.15242623790828638,0.2570107316997638,598.7277257188067,523.0768829276477,475.4322646933566,stand
21.636060100166944,0.02273385333349387,-0.030215513058836435,9.807725074437393,-0.17796130199597138,0.5113024311818962,-0.03025674143318738,469.3368793466102,425.500041313274,470.2149369769648,stand
21.686143572621035,-0.0477801145081657,-0.022826213815626356,9.835910819071946,-0.3731294193078277,0.11488942772154088,-0.06998555254103342,497.3456746248997,547.8761794403684,497.8338991412938,stand
21.736227045075125,-0.044132902662824415,0.012329147955233058,9.732424399900134,-0.015927508376889388,0.19019002515363603,-0.13125304847714403,503.8863759335761,530.1996321266581,545.4359053336727,stand
21.786310517529216,0.04476977003715796,0.017143501326519588,9.810991933995666,0.07540268199853305,-0.3674708765382501,0.006933375008430968,481.52681021784406,492.23999985770166,459.4861064218381,stand
21.836393989983307,0.0017746462061558749,-0.027895322737454292,9.841912239952014,-0.6231283257619223,-0.15306893660888488,0.11315960613264951,506.69685720737834,458.0881813702955,525.737091184454,stand
21.886477462437398,-0.020684433017913423,0.05842855973783808,9.82736322486744,0.01939886829732011,0.17456957600762799,-0.14015035112534865,511.7930087619756,490.87500665505013,500.46483308393374,stand
21.936560934891485,-0.037152355941226206,0.01064961331320044,9.828638766642065,0.07852241772102383,0.0914259715214015,-0.3928820577610935,460.234438694931,560.5079545086744,495.51989970811854,stand
21.986644407345576,0.08156106315503421,0.026270619673610628,9.792404493742433,-0.2605739943358377,-0.3871822662831659,-0.16270288592618332,528.1626063474716,531.0643049675597,454.9159307563668,stand
22.036727879799667,0.021000913613647254,-0.00982530904807026,9.791098857592974,-0.1350311961984157,-0.019805858651131634,0.06923208132697221,524.5337945191624,463.75021306042,557.2296295684863,stand
22.086811352253758,0.040655877449025615,-0.05094194472423341,9.813025530839846,-0.1679267930146395,0.3063719839727794,0.13976424016354955,441.81193962452653,433.38035197800457,578.645117691433,stand
22.13689482470785,-0.03711972709207512,-0.08313337748372951,9.863301883243363,0.19385023114971223,0.3112183792249341,0.380877350198641,533.9845288444096,540.3407722720937,508.3862502833319,stand
22.186978297161936,-0.017756897095792964,-0.02220740647847297,9.773415401502504,0.1648624160325128,0.23797061299179254,-0.032412429075326876,540.3124002265062,464.3645480355378,443.1269133534706,stand
22.237061769616027,-0.015564464420594407,0.045222000839987814,9.830484249854399,0.13058416282591678,-0.1610744923011861,-0.6483418338527706,507.08415219166426,509.15241079505466,481.2399843732816,stand
22.287145242070117,0.03694429298319421,0.040883434037047126,9.845738156372166,0.3515828909940853,0.6668016883662091,-0.012823016439790872,481.2899997901839,483.95589721520776,452.6066590951086,stand
22.33722871452421,-0.023890870733037743,-0.031081615668388157,9.8115622299737,-0.00044103525124797213,0.12192272980990532,-0.08148125466422078,447.7874973840411,485.6048043951649,522.1633565144816,stand
22.3873121869783,-0.0003668513702449472,0.014203538805894929,9.799843334616622,-0.15921415627694505,0.1576756494728516,0.0009004117238975134,484.688866661495,482.91981059101795,528.4096017117367,stand
22.437395659432386,0.013653195038707405,-0.00025428765977320716,9.798806511091385,-0.04412850893596812,0.1442535931033109,-0.10750997887236709,525.7505303241448,475.7643797665204,517.9803189211146,stand
22.487479131886477,-0.03861490067429396,0.019783883678959446,9.793736111913255,-0.33467705030712364,-0.0906863500687881,-0.3632594946145386,505.04212655431957,458.38103645711846,552.1148640306507,stand
22.537562604340568,-0.04212155394907972,-0.012531484310411858,9.82636343105137,-0.4203570152448383,-0.019512841760776212,-0.01852040836339685,504.499349009731,541.0085097218077,456.10102736900495,stand
22.58764607679466,0.013304487335879911,-0.0027636981293592683,9.837356737090523,0.058291036340887246,-0.30264928289007603,0.03346344719750577,493.28650509397335,466.35190887314104,585.3813538297203,stand
22.63772954924875,0.07171899995676685,0.02159361054622235,9.800371354088012,0.4170157791648259,-0.2799763121380329,0.09054652674718022,544.8656862847389,469.314886168476,455.51658541050983,stand
22.687813021702837,-0.0026804759392979743,0.024726851897708832,9.800688777021799,0.26320962790570357,0.24296604008004485,0.37491514061028225,471.5322144654273,522.9365584806458,499.6165880617783,stand
22.737896494156928,-0.016618454369522806,0.027235024057248626,9.782598030187096,0.26495692736307586,-0.0536874356321711,0.12604267222384388,548.4910438469283,520.719621969755,595.1607697721417,stand
22.78797996661102,0.022705678146814096,0.017109041830550703,9.812301595515263,0.185116903263872,0.09255110577881463,-0.49356113666766493,547.5721754268711,467.7195601717846,501.923565550166,stand
22.83806343906511,-0.06428301380865972,-0.024601419761861296,9.757692593537367,0.36310262624365885,0.18347297935606732,0.17190942353434174,592.8527734313236,496.84037483064327,528.4477836494668,stand
22.8881469115192,-0.01058491692369165,0.0013292892511912319,9.79438646846135,-0.12460480478753135,0.003360821922862238,-0.23016097405301328,464.5669609458753,460.05885303863954,543.1463069513859,stand
22.938230383973288,0.02858135863904268,-0.03385576571433366,9.772406449862547,0.10455936417110338,0.1311221986605238,0.12468831175648865,471.8496339305892,498.53369434785225,504.5547344289613,stand
22.98831385642738,-2.622908361274434e-05,0.0061688331056590565,9.823398813814736,-0.12547135665696338,-0.7260980619087651,0.3288609824205511,461.5692775644417,496.20374108880554,461.56221752503495,stand
23.03839732888147,0.005164356165681852,0.04239192729183914,9.810616297621657,0.33328412948627245,-0.2703635374541889,0.40267530551523567,494.7903374015993,570.3260979225768,536.8872625691056,stand
23.08848080133556,-0.009061162735243197,0.005173053691867463,9.771667729883452,-0.03119503689460889,-0.34880472564348597,0.08949560833867931,453.8374750507602,480.2474487780996,454.61420303304976,stand
23.13856427378965,0.007586385589247555,0.007944484994476003,9.805959912872524,0.15271167337612232,-0.16360504023785763,0.18872300105759376,495.99488556524364,568.7549803490313,450.03424751543275,stand
23.18864774624374,-0.016757510593237407,-0.03709757041593367,9.742276712341932,0.18046182834918134,-0.3281668053566297,-0.11315955156758747,440.4899789248691,505.0753375118364,469.87087288004994,stand
23.23873121869783,0.005968563525440437,0.02767048232475114,9.768278524680488,-0.1189989413511659,-0.14588065089051422,-0.31661122131395625,496.43546853663196,507.1655653274931,499.45832370379037,stand
23.28881469115192,0.03428776768698073,-0.009274616095483093,9.825981379346857,0.07303478167404938,-0.11800558323026418,0.27635952484759174,499.37152363123226,490.50361737117447,514.2981831665901,stand
23.33889816360601,-0.026340942904957726,-0.050682517428494014,9.796154292622997,0.39098578753804286,-0.0928265169976998,0.12970223820780746,525.7263101994662,598.1292755613912,562.0453380837331,stand
23.3889816360601,0.054217298082201146,-0.03349047982670583,9.7819747956336,0.2681775510829854,-0.49371008310562825,-0.40856161418161663,561.8636909612082,472.390469460171,523.9581688451325,stand
23.439065108514193,0.007063089096004643,0.017827700274367128,9.860370068348674,-0.08005538240983705,-0.044748898104153105,-0.04128510035990462,458.12323489798507,495.07482103115876,529.2872556290145,stand
23.48914858096828,-0.01222992108244024,-0.05607297279214138,9.713378498312998,-0.18707602678711568,-0.12611259754121745,-0.2495868345660941,522.4992943170223,508.4449107912527,488.5012841556417,stand
23.53923205342237,0.03946162101418828,0.004731449198479426,9.77706019366458,0.21455724494724002,-0.08763030413598581,-0.3950070033195814,510.5709856499346,490.20925029631064,443.2228861137197,stand
23.58931552587646,0.036700621262315825,-0.016706027558504005,9.777244125146195,0.3187675922229959,-0.06860912250951201,-0.6283243603815315,597.0102022327081,485.488315266114,411.9341941284946,stand
23.639398998330552,-0.042887161367561405,-0.03404629795136552,9.770370122802879,-0.20742763646202594,0.2904429176055024,0.6431087499119934,478.6873386035536,497.3838104650702,491.6005928108671,stand
23.689482470784643,0.0019574763957846963,0.027109228149540032,9.838241886790188,0.5992039418803127,0.1530307689246396,0.18497701937848254,519.091645648058,471.43322157474864,515.6820588946204,stand
23.73956594323873,-0.012831012149078183,0.0034735245856304803,9.838608226354756,-0.06880388231359068,0.21214013653217773,0.5144454264543227,550.9550048844637,489.06515426219477,489.77402412949664,stand
23.78964941569282,0.024994720374065804,-0.0304676984908855,9.779179134186078,-0.3365749956270441,0.20058221688577932,-0.34045792903053024,484.909396697612,573.7549118930086,486.76909575316614,stand
23.839732888146912,-0.01966072181939442,-0.021338964121111678,9.734292168775648,-0.038072181083201796,-0.4394416942412967,0.37639935032859817,464.14869156410214,554.6343513538557,527.9703658135411,stand
23.889816360601003,-0.01983492459740485,0.021328832513020396,9.789684841275584,-0.15225962683502872,0.2520571622981436,0.09260375267339804,553.7745005470907,462.37527519765064,469.16279636347514,stand
23.939899833055094,-0.02133734213661899,-0.0010634795406012157,9.778990179998395,0.22177760199673344,0.34261054585475104,-0.20118377943859345,439.2641458803216,502.82654012404487,510.0075634104537,stand
23.98998330550918,-0.031417180130848786,-0.013676414900259379,9.831999461869918,-0.19810933251245239,0.012936940171352192,0.016639472668119788,516.0948662079886,499.87680757745943,465.2683928145705,stand
24.040066777963272,-0.04022509643964988,-0.022986723918002078,9.781241075562807,0.6132494275298829,-0.10211574084964661,0.12767732651654015,563.5850213889747,593.0353905941673,529.586523423329,stand
24.090150250417363,0.00043797276835380594,0.002311673066310825,9.8643592704945,0.06808073571704432,0.02472693915971378,0.06828368644441239,487.1262290034174,498.10182263809884,477.1439304763649,stand
24.140233722871454,0.00955268931854543,-0.0020673571150785566,9.805446018342675,-0.18819102389203013,0.06638599677688353,-0.14560424356923857,482.2570887792237,458.6858263629342,469.40345278630656,stand
24.190317195325544,0.02105812261315794,-0.0010818853704044826,9.82745589609975,-0.14043415188597413,0.032210449752039946,0.070805552555879,525.1097233384887,506.2413021523938,462.9528743369116,stand
24.24040066777963,0.045203172962368574,-0.025669442860177,9.872865479095552,0.07656379814440843,0.16119048400979832,-0.03149236230273745,439.81051695147414,561.3394015807993,427.736533353313,stand
24.290484140233723,-0.024084828758871496,-0.02148586608326926,9.795855668773136,-0.19187139239297174,-0.14765995079284253,-0.1947454850094797,447.2732636084892,453.12304088058823,529.0643469674482,stand
24.340567612687813,-0.003907285070802499,0.02279270994959945,9.81610772018052,0.29879131527491776,0.3692310342376483,0.3821612732786047,495.6767156708088,472.2336606000184,466.7909947510642,stand
24.390651085141904,0.03824849032443861,-0.016173640001825793,9.817119523961273,0.08495805007377864,0.08747149331538182,0.057641000224806865,485.82575405386274,522.631647880336,444.91090772398326,stand
24.440734557595995,0.02985133120112962,-0.031043024632499236,9.803087558265586,0.22476961366303716,0.23757704701678156,-0.051809057324889364,447.6393091993395,478.35515654444254,453.0194202838067,stand
24.490818030050082,-0.008806562274063678,-0.006523187285727955,9.765713564557533,-0.26326333752520853,0.24409105317699042,-0.28542922574096413,530.3925453834897,499.03290710076607,548.1827301142865,stand
24.540901502504173,-0.04800907159840169,-0.01315577628708374,9.829849883952683,0.23402309153848877,0.018610142939906087,0.21694784895194547,422.67640649393655,496.1630919400457,522.2923752141066,stand
24.590984974958264,0.06856292239409166,0.006567750247503917,9.863387912496068,0.016942974611175936,-0.15232045373559727,0.172816337626055,592.8067519125897,522.4037152595232,488.9711016897791,stand
24.641068447412355,0.003326688351951934,0.0053223586105704684,9.845285672463858,-0.45285117700774974,0.4251645659875944,-0.3015565724824756,515.0330682226353,448.7931792632227,566.5281362056535,stand
24.691151919866446,-0.010385688067431662,-0.03153210738103243,9.80178268182674,0.1846914006792015,0.04396441683751678,0.02404147651633754,604.5617246883709,542.2661890070115,563.4923191890158,stand
24.741235392320533,-0.06189296669012928,-0.001082667978199496,9.822760764202792,-0.21688057558425022,-0.13984601627939156,0.30430136297134136,537.4721785756994,528.953519393094,494.5767408373126,stand
24.791318864774624,-0.016768621684022544,0.008529048631837802,9.846562296194088,0.10996534788190507,-0.25336925572879804,-0.13184319018270427,512.7661385072325,530.0392307063479,519.6109806397286,stand
24.841402337228715,-0.08731721531116897,-0.018710545972333542,9.837319835442411,0.2648641027235344,0.26056911732905724,-0.09220083593852829,440.82260430501225,526.0804021756707,540.1772717626986,stand
24.891485809682806,0.032558749987467814,-0.043380028423392225,9.75273337481567,-0.5928367199094737,0.1835425247289559,0.1757794944261,520.9614531165233,474.76745960987773,546.0932629199771,stand
24.941569282136896,-0.00023726905946268306,-0.040652688650825525,9.755300240482411,-0.19987333658650977,-0.5897201684262373,0.07979499690747544,459.4178905155382,507.0737216823833,511.20700303452054,stand
24.991652754590987,0.05649931468595819,-0.03626937852311546,9.821530046726657,0.13160695647109588,0.012749239327232749,0.09444295998169809,526.9428220568205,405.9814791157484,473.73319494908543,stand
25.041736227045075,-0.019325263957035432,-0.016731683605634318,9.765229824596878,0.20881652217035554,-0.3207532255419523,0.00974358233231245,542.1111596137433,549.2145778873443,493.5918933243745,stand
25.091819699499165,0.004549807460626998,-0.017638509791102125,9.81341845640455,-0.25763703239154767,-0.15782020371274377,-0.1678055512234637,507.23357757085876,486.3365380796596,478.9383580699847,stand
25.141903171953256,-0.008696906276603023,-0.024892279016159424,9.824619986324183,0.23455919295698294,-0.5641216763001691,-0.1591966618626396,530.4559560134984,490.15659230735105,487.25889301887435,stand
25.191986644407347,0.0040638215396652105,0.015427316602450655,9.836635210044161,-0.099474599437758,-0.3058985602496334,0.016668076184567362,500.0230089912556,527.8927410452164,523.372764526525,stand
25.242070116861438,0.024211377246623728,-0.008392059872358068,9.79995579192636,-0.04812861482913171,-0.21128197481539723,-0.1499054319129236,519.1860216134064,514.3557969567735,477.5569204164734,stand
25.292153589315525,-0.01927214172462304,-0.004225571699476405,9.808561548330541,-0.20642252220621646,0.07183112244770383,0.24394993891633932,424.84828886971457,486.84054506575904,470.5201599421103,stand
25.342237061769616,0.04541478067737005,0.020039622544233984,9.78946824733308,0.1294901898553314,0.566927289910257,-0.0991462855644239,478.3015794588973,442.96709501278804,548.1045506654447,stand
25.392320534223707,0.016257798546717925,0.017121365946110176,9.853681637701198,-0.33364851645381094,0.0540876420218474,0.18054590008922927,462.7553048175608,578.6981203049191,465.38111336559064,stand
25.442404006677798,0.02389186604699209,-0.024452899531234307,9.82580036911077,-0.34055211681486797,-0.3041339645962881,-0.07088696511117616,493.46243034427863,493.58666365494844,518.219581283979,stand
25.49248747913189,0.032666761356780386,-0.000638990281550865,9.751535933956077,-0.0879688364407333,-0.2943699184017881,0.659039253430966,534.2592511752283,464.8305649898242,519.7966855236964,stand
25.542570951585976,-0.01800478170774096,-0.0874539310688422,9.849669703180435,-0.24399796048548905,-0.03356099813348248,0.07312734174053602,461.11989809533384,492.32297428061105,567.5664509591758,stand
25.592654424040067,0.032775097289076724,0.07265055500533064,9.755800572296552,-0.16510908477321726,-0.22576693645823892,-0.10320453662511477,431.71448511294716,496.5493223171029,529.8388501580055,stand
25.642737896494157,-0.023856897328274965,0.021191369227497085,9.794543929632784,-0.0893158175872465,0.03438759317531276,-0.32941594860125756,494.08278210653657,457.7916760918816,474.98392871322443,stand
25.69282136894825,0.05819440685770365,-0.008852510078654174,9.806190349031171,-0.11925551775890511,0.22435911304186862,0.07689794633662704,535.8671352215067,601.3383950541116,540.022522381443,stand
25.74290484140234,0.015999260295839604,0.011247195169451274,9.817110615916578,-0.08250025734817001,-0.15645422009055057,0.09006495004036874,470.19937084567175,509.2563593615841,460.81401487431793,stand
25.792988313856426,0.005474040209467221,-0.010691892049014814,9.80776716628551,0.35521065823807774,0.05130101474905163,0.04291785903917226,508.8174091124451,494.83857232352557,508.9765868002285,stand
25.843071786310517,0.03338342057154488,0.017914220423418448,9.825710896623889,0.18576154984453938,0.263377537515104,0.07707452176587436,618.8608098335053,514.2025700066913,525.2601186842668,stand
25.893155258764608,0.03753497756514586,0.03202747883984102,9.818307659887084,-0.313366114804365,-0.045392998602596,0.1309514799589416,477.4901075328496,488.9029699419843,529.3463739143599,stand
25.9432387312187,0.037066470780412836,0.01926239553807141,9.769126608926443,-0.1515745525503731,0.19425964376658925,-0.07781738902726341,536.4602123504117,452.229503358425,468.5435425488287,stand
25.99332220367279,-0.05341968356580667,-0.010713634063616626,9.834592104402397,-0.36040593111214153,0.0013654205561193092,-0.3358526649538596,471.7244295313335,449.11603479233526,513.9497417998145,stand
26.043405676126877,0.01669403465360668,-0.07293490920793955,9.802423005030867,-0.15969814744426955,0.312514715424582,-0.17435108670644012,478.2533720583717,487.25829874282874,510.11038526639135,stand
26.093489148580968,-0.01792915766947141,0.016384202566156025,9.809521473375282,0.26014020774563373,-0.10270277691111382,0.28190643381193475,524.4617209759818,520.6200412671748,482.45384847782435,stand
26.14357262103506,-0.022123403603342258,0.09089105188342736,9.832798342143022,0.3693326311664783,-0.059229811937043075,0.1562835434320875,527.895957472949,519.0460202604041,477.75026009840053,stand
26.19365609348915,-0.020320111116385715,0.013952295802081828,9.780736558509147,0.05187128858821207,0.06169686646627049,-0.20460159493064053,531.2360263730013,477.62469564006255,558.0719121460216,stand
26.24373956594324,-0.013102229109814303,-0.03177398079886337,9.781591542661003,-0.08410164323029409,0.44640956097678947,0.2690852793615429,501.99399425487115,491.2745382056915,502.6298534111036,stand
26.293823038397328,-0.010856787057526018,-0.04389722514958812,9.761289196565748,-0.1748352979448736,0.21078493045020574,-0.05303307141250602,464.0336235995215,510.1040448138135,521.5057084921542,stand
26.34390651085142,2.1546160556648597e-05,-0.022112190608988516,9.781123390313246,-0.26377962663260324,0.04723349759748072,0.25971287375533286,488.43124740843115,499.5017708484959,541.5131646840459,stand
26.39398998330551,-0.011182616271606355,-0.027863816583309206,9.828578310791901,0.0047787977309201105,-0.022765337951620133,-0.043789277569154246,477.2024765548994,389.8428058865966,496.3947653414709,stand
26.4440734557596,0.004041119315972605,-0.019420573434529645,9.793478422169503,-0.025336979292867944,0.3203080184379699,-0.23483821691870194,493.89023406927265,441.1138627627686,464.6455661506743,stand
26.49415692821369,0.03388523851507462,-0.0040705745522957165,9.815321083373759,-0.15386181805507365,0.1467638574302635,-0.399532640526422,463.27912650688063,525.6349365615706,512.1976784996793,stand
26.544240400667782,-0.004527085721658011,0.03671040367244628,9.766744419271463,0.2372758366942567,0.07257270449378334,-0.08959801140771807,543.166067027288,481.41199258275475,534.4201124192075,stand
26.59432387312187,-0.04765456757457108,-0.038532436970333234,9.74771867034611,0.25441055940107754,-0.13693639011616557,-0.0552115725570918,516.6632920273656,452.0577651708376,525.443071832861,stand
26.64440734557596,0.0007301542724027221,-0.021783287339558907,9.719125257616163,0.002210614715048673,0.06533905794777103,-0.0057884665500997036,468.7574680071127,519.5823973159305,466.1985762114519,stand
26.69449081803005,-0.03216012389131628,-0.057515995189944186,9.819227151872427,0.3716616855461711,0.08824057828647304,-0.207229531649008,540.7517758166125,479.02579866860543,551.4245391446597,stand
26.74457429048414,-0.02781390656780694,-0.016370029094797692,9.796798915561897,-0.18994300831525454,-0.4220698582339823,0.11107244587496731,514.1552339160539,534.3505152331394,502.9374463356408,stand
26.794657762938233,-0.03511661990613394,0.04946261045554136,9.7935442527946,-0.17902510735625615,-0.15387512424018937,0.24633542346205353,528.7249289395692,480.1489113977333,502.9002632429332,stand
26.84474123539232,-0.007121512473051803,-0.010786711438513716,9.799632570489347,-0.020427743484333027,0.2195852526783903,-0.1703750114142673,449.4420019227217,436.5288656658013,545.834250584141,stand
26.89482470784641,-0.06724814047404058,-0.02847628263058033,9.805869778801052,-0.06662345239858215,-0.24652369913410002,0.16856444433503345,469.42832534815454,514.6588873066053,519.5781981870567,stand
26.9449081803005,0.04605608543171043,0.033280161298775555,9.819071404556277,0.3827183770992304,0.4889339355554446,-0.5050711263189149,476.4385662224983,472.58104836731934,462.4323156186493,stand
26.994991652754592,-0.03079506771960077,-0.003791875179642634,9.804872090700401,0.37746782862346684,0.5809321064974479,0.07321136532883873,453.5955184636228,515.452509709498,490.0854204446934,stand
27.045075125208683,0.03804138273738793,0.012415458460528696,9.772071761783435,-0.155781464723725,0.13955165171256792,0.3164698854148414,504.74241369739076,489.1992535668002,581.8387848950268,stand
27.09515859766277,0.03173466772895066,0.0012973657897730473,9.776604848695545,-0.1541256541283403,-0.1922162434387653,0.061210682523809436,496.5971582639454,553.8320834442721,457.8095604751664,stand
27.14524207011686,0.020085269042803736,-0.017137211733557006,9.816891683526388,-0.1997491471450075,0.06152484611293578,0.01278182037097494,525.7876755568085,476.047999844989,534.3295113975345,stand
27.195325542570952,-0.017808293736787398,0.026917890426678616,9.830094565331223,0.004224399296419101,-0.6009460118189631,-0.0492746524312598,454.2020094515562,483.5572526839329,557.8854899377926,stand
27.245409015025043,0.01535287777039182,0.011546129618455282,9.821571890519575,-0.5338183974321463,0.06848129248506363,0.06557639941515314,424.0017196023446,436.8153645907809,566.2133693212869,stand
27.295492487479134,0.029175330606234687,-0.006338988058002731,9.799980903520161,0.3049598295360683,-0.2767135248433056,-0.3038744460498089,512.3327041995639,496.98089505570516,559.8191706452961,stand
27.34557595993322,0.01895591998037975,-0.03405214613137943,9.810333593061594,-0.0769931907298748,0.5753394727491327,0.1280199545762525,492.19239046314107,448.7875570167406,463.357856417997,stand
27.395659432387312,-0.01080878369968312,0.036362132598513404,9.814077934512323,0.10610799952809484,0.07868148470365646,0.08477942085650776,461.8487228405331,460.9760310291458,544.4173002510714,stand
27.445742904841403,-0.025664324101156016,0.003992056177707384,9.809352863652377,-0.11931764942756949,-0.1032188375484112,-0.1184245931694402,525.3522094216386,462.8517697106967,553.7572672652947,stand
27.495826377295494,-0.016527628679863862,0.017622816794032818,9.82814027790927,0.055654091046961285,0.15515095136944212,-0.014056760050018184,471.3303845540633,500.811793578704,475.3096544847537,stand
27.545909849749584,-0.03411205960925384,0.0010128955310741011,9.761178941209035,0.45167395954010753,-0.19149458310083894,-0.07950308910566392,470.0910244860489,458.4162982019458,529.6620250588824,stand
27.59599332220367,0.051710811098854795,0.008736360476140778,9.779766526489883,-0.09864832770463182,-0.27137560823120344,0.2393864890616494,481.451852373649,517.4651459252818,514.9232731401659,stand
27.646076794657763,0.03316055808009925,-0.04801283838926404,9.779309261448768,-0.23571541098076257,-0.2995253223811135,-0.08937640985538815,448.59195672454,511.80531217046047,505.52755472403504,stand
27.696160267111853,-0.00037402138079339897,-0.025822885059904557,9.815079099961265,0.18264604458745418,-0.30322116797716475,0.043272625778832625,497.26841635228357,457.09955073320685,478.82306170112065,stand
27.746243739565944,0.06257488048359582,-0.060293663128929254,9.809556839805198,-0.028931758726275902,-0.1489359230912253,-0.10884041865753621,522.7411415376043,402.3096398210056,460.2728439815118,stand
27.796327212020035,0.01401587584818706,0.0016711608058652683,9.805407564946346,-0.029571408838537743,-0.09956885942431279,-0.24601910853323425,464.09608817843605,515.8719099382153,548.2567591438823,stand
27.846410684474122,-0.013948939868241389,0.030787365657408285,9.82756830345407,-0.06987548918354348,-0.4726122423765035,-0.06240542501936782,531.788659051898,490.9646120584167,544.1082833231306,stand
27.896494156928213,0.030688595917560513,0.02242774441813994,9.77421036851781,0.2951845471518679,0.023322614865575284,-0.15380863816487342,446.8422275100271,517.2569914446502,452.5577633957836,stand
27.946577629382304,-0.04353293746502291,-0.01634753305595009,9.838966475030785,0.4667674497079629,0.35698891193049265,-0.3360804964349806,546.4936616358077,489.8361632962045,450.1633603035115,stand
27.996661101836395,0.015966186425542137,0.013907675831326093,9.815685605727213,0.36672544206318036,0.5290765368072854,0.06359718424929388,405.079255361226,460.2772329648356,533.6878408668707,stand
28.046744574290486,-0.0034894032699779587,-0.002551872823389034,9.785919615805524,0.24185773276622402,0.4227301174297666,-0.632916364625003,483.7916338412057,508.55015194560724,445.79109909099645,stand
28.096828046744577,-0.028117679225491854,-0.016861741299213653,9.85843250150959,0.11897874628162336,-0.10131325405928261,-0.5051514272926474,473.3532596649319,470.8675819456932,470.57077398078576,stand
28.146911519198664,-0.008575139252266148,0.00035223438060939805,9.798149819403166,-0.010325084248538313,-0.18336151822260321,-0.16103545253361357,491.9491121424673,442.86019086936847,530.6640927522681,stand
28.196994991652755,-0.024003318677008806,0.05258957193051938,9.792770155172429,-0.012134878008166587,-0.005643332202972557,0.31104931185154355,478.51603445114927,544.1594159924622,524.9369892932617,stand
28.247078464106846,0.054734164475370925,0.02889274344402821,9.75643945596684,-0.0448417084317661,-0.38174040167829554,0.014212103123964325,508.25864261825086,624.3386633234896,527.6467854799312,stand
28.297161936560936,0.006023576618198703,-0.039366526031515886,9.817813803714328,0.01901859268323618,-0.32226879141292675,0.04624909738716488,498.61192480257944,499.32535641408003,530.3162486529077,stand
28.347245409015027,0.005657125298170029,-0.03269821157613212,9.811921550750705,-0.03210620424256173,0.023162024762150638,-0.058893321232236236,510.48823010774765,529.7797805152513,551.1396919765644,stand
28.397328881469114,-0.0118443499781168,0.023154419571432612,9.786391564198997,0.24956959650194344,-0.01517548034788276,-0.40334474664706943,545.9304060475679,509.6159491324826,472.80955853138926,stand
28.447412353923205,0.0019277255591901299,0.0003811458498624021,9.827199840953794,0.0751723275528256,0.030664691066461944,-0.5923809274270455,466.58644321121176,440.894099583227,486.3931061354405,stand
28.497495826377296,-0.011983532668045527,-0.018332891940074036,9.74333890073244,0.3925910256449241,-0.1315213268800188,0.10625661348323598,480.0473050922241,524.4287979994488,486.2097136315662,stand
28.547579298831387,0.02323949627604656,0.016743115295934266,9.767695349732996,0.3473140331860053,0.33641627065977964,-0.19157411038527777,510.57617839989854,453.13585162885636,527.3308293172781,stand
28.597662771285478,-0.007367879231427232,0.015598371947421155,9.807040125309939,-0.12672301855557666,-0.26871552409004945,-0.01568076379504205,469.66683565556303,488.69121875663836,443.75645737394507,stand
28.647746243739565,0.029420422572726382,0.01986838812005462,9.86056213192731,0.19893134545254398,-0.20592550099290202,0.00576937879548818,454.12792833341916,487.4527534494631,510.861183060666,stand
28.697829716193656,0.050405315880199544,0.010213220205401573,9.831523117527903,-0.22419387475371746,-0.0942371684048197,0.18420205777660148,535.6427570684207,549.9755347312735,561.7339396453358,stand
28.747913188647747,0.02102667777574556,-0.025764274489258998,9.784997257210145,0.04449854656764321,0.2580688458622963,0.2275361402713545,503.44970617729547,469.59692537232974,417.2532074958178,stand
28.797996661101838,0.010226036596683655,-0.035744700214211805,9.744172687795402,-0.074000993357767,-0.5251089321579712,0.05162233400557569,519.3079917844465,559.6773576961951,496.8637827549885,stand
28.84808013355593,-0.03135555548165901,0.005501099138026426,9.801902863827811,0.1884179264960411,0.3789293150332962,-0.002591506217583748,489.975668057891,497.25556527682176,519.0218695841721,stand
28.898163606010016,-0.005564339308847796,0.04584799060794938,9.79663971383755,0.11559538315624572,-0.5295925784139867,-0.24061661372620394,452.656511943639,475.9890374289827,503.0974373220954,stand
28.948247078464107,-0.05559220708618543,-0.009058328555252904,9.758864061997729,0.20099372770197466,-0.32068377906645273,0.13716792082116053,500.5526202912732,469.2885915635662,512.3643829603723,stand
28.998330550918197,0.047506249434737205,0.013057387158045733,9.765520369063942,0.20734996351658966,-0.12564464849386392,-0.07700055899933403,501.33840212040434,437.06594608148686,486.4651309021387,stand
29.04841402337229,0.006833067664935619,-0.06197735907040705,9.761920683683572,0.11289734939307398,-0.41655478966359666,0.03510417834907236,497.8280090093495,531.0536564013752,559.2189959178726,stand
29.09849749582638,0.005731928871895123,-0.04512848498209644,9.762702779854116,0.20871925670068375,-0.3199176210905869,-0.13619407276891118,468.7176982333115,439.68456023758074,443.9478429393967,stand
29.148580968280466,0.002288582286138638,0.017368884212592042,9.712626575064332,0.028352546522338092,0.21952768178320423,0.10752527321708599,517.0179463162702,453.54197328451363,529.2414248958149,stand
29.198664440734557,-0.020407932959972952,-0.028716058560548333,9.790343244127973,0.16087931553558493,-0.6098439076250067,-0.5345718265746796,554.4003005879025,474.33578318269883,466.2801463058832,stand
29.248747913188648,0.04595886945511153,0.017648620546561834,9.811412611405023,0.21912299768474913,0.04692796214537835,0.17168219720535707,499.93089988598956,502.52984998372847,452.59884471581313,stand
29.29883138564274,0.03875778942106098,-0.015675584411097482,9.787453875906849,-0.07731502707802447,-0.16411018703850447,0.08526120315746834,519.6905808589805,447.6187432638553,406.1895186817358,stand
29.34891485809683,0.0047330501697502025,-0.023442238432441698,9.775159690467289,-0.0005028198643258174,-0.008654492325233402,0.10351333442879483,422.65073372172907,522.1222663663381,510.4096613605798,stand
29.398998330550917,0.02375992619321736,0.008594618479536437,9.784454779237635,0.24550713510606123,0.08106776307363703,0.284338590978593,457.48006191909917,498.35931345587585,556.5512392767872,stand
29.449081803005008,-0.063532262738246,0.049969526813480096,9.824180244470764,-0.362972390455315,0.17072154858885302,0.07665794655911322,489.4072498007904,466.2769475732547,532.2790266618417,stand
29.4991652754591,-0.02462584621276022,-0.004511992452412336,9.775197984736412,0.25331221144212984,-0.7358727370323752,0.17330444826102898,526.2102390431763,496.6239665855388,532.5005198972752,stand
29.54924874791319,0.007537272084786148,0.014857451239584804,9.779771810691154,-0.2396608551073,0.18929282327657063,-0.1448082550333121,541.9860860083644,484.86347511479187,523.2627372118287,stand
29.59933222036728,-0.0005960273712246611,0.030790622797996266,9.724961081407326,0.26137244193537107,0.050080731950038045,0.09888693332941281,562.2580555732166,517.6755987783622,594.788798215656,stand
29.64941569282137,0.07550416537693307,0.008636989995985778,9.793490865167612,-0.28778502553594865,-0.045085391679199886,-0.4118420372157511,529.3807667729066,492.31871392242346,458.9277755628387,stand
29.69949916527546,0.02254354353266648,-0.003147391495837648,9.838506173818887,0.2867485544003383,-0.13335997843895772,-0.2487390135256629,515.8526302941611,486.950777810678,439.03168407340837,stand
29.74958263772955,0.006396203957367327,-0.007527656189150744,9.788788113881525,0.10724319449406153,0.20419569817967945,0.17375370518550737,522.3803646322597,483.21732928082827,486.3786120768513,stand
29.79966611018364,-0.0017454123530221827,-0.010893858305041706,9.751280917569831,-0.08813426706348201,-0.6566372583400781,-0.4934621213931851,460.3183428045914,475.8242562997974,527.8767959585234,stand
29.84974958263773,0.023527188264303375,0.037746060639964454,9.828740358023214,-0.13909982546414745,-0.06908410452707188,-0.12082062566662177,498.66234409444604,450.06289902859055,439.454373289218,stand
29.899833055091822,-0.03271629002419439,-0.0043550225501626655,9.810458336299375,0.09307369420243247,-0.013357894804499193,0.1574461303578451,610.963837337712,508.13049371216135,477.9279694928025,stand
29.94991652754591,0.0024447396556184914,0.04314872449304751,9.809024099898036,0.013568786400546248,0.06577216556638046,0.26778754056308024,521.6926912070431,629.0194753472981,463.6180152034722,stand
