timestamp,ax,ay,az,gx,gy,gz,mx,my,mz,label
0.0,-0.009848341587233536,0.1435983397066366,11.013116805664477,0.45535174602936707,0.8996482923747496,0.46155953288866103,498.62799302408706,528.335327708075,473.57026163526115,upstairs
0.05008347245409015,0.19749288638922197,0.2794858884639527,11.544247485522256,-0.5762347339325662,-0.6435865268417239,-0.17838976421274494,501.81822089647216,448.0622997501216,577.8930686726023,upstairs
0.1001669449081803,0.5421718382009014,0.7513139854630777,11.348241112542299,-0.537717600426464,-0.529343444930308,-0.48934460517987083,537.2656347717635,561.6670418614409,517.5879460923907,upstairs
0.15025041736227046,1.1036018234316038,0.32659331231893646,10.974525612117045,0.07952432239883586,-0.7739533603026231,-0.5758068292144443,466.4912653522498,447.59500984371005,519.1389541006118,upstairs
0.2003338898163606,0.8592605050553486,0.12429462401176444,10.07205288720381,-0.3599446854695836,-0.021529160342631925,0.2528413702272277,507.27189421252467,503.81721452341776,490.0926726949965,upstairs
0.25041736227045075,1.0201971267356136,0.6008974541052623,9.615937783303517,0.629907005027051,0.8486874495094675,0.5910402739717994,532.8985327795276,482.25218642407793,463.46422242716295,upstairs
0.3005008347245409,0.014331986597185029,-0.3514930202778831,8.746457513473283,-0.7308564609584475,0.2742527269354335,-0.04562604050526823,474.1567878552822,552.7470029204834,457.13234205229793,upstairs
0.35058430717863104,-0.29129273845492343,-0.42234750211715133,8.01738793865081,0.01476731226173463,-0.1931153637728737,-0.7878239646202656,604.6584928766825,587.5845486769367,556.4916475166303,upstairs
0.4006677796327212,-0.8935650809502196,-0.7706183564935443,8.310787111221462,-0.06703552710199907,-0.35071281925961323,-1.6646964602018175,501.47401753515464,495.65838268130636,628.1740876050146,upstairs
0.4507512520868114,-1.2518534125785936,-0.7221518188888183,8.57826159937297,1.06402215449585,-0.7467442818244229,0.4231903552026583,515.1157882129551,485.2456487090784,481.6731684868099,upstairs
0.5008347245409015,-1.1471250961579982,-0.28471575602571264,9.366685906647714,0.6755818299445185,-0.2561755631584389,0.43132850632615444,539.9973081099583,439.4961478926271,493.3790620565384,upstairs
0.5509181969949917,-0.7887476648028869,-0.021003044603110865,9.862426893471097,-0.9869478138844436,-0.1561460708923649,-1.0345371059139152,475.01128475102166,414.1824243891463,445.3436744386423,upstairs
0.6010016694490818,-0.5630896446328917,0.2239766110316075,11.119063765254802,-0.7400982558231142,-0.5193414363838404,0.74270367468351,510.44876819109436,426.61540050221106,462.8798179866414,upstairs
0.651085141903172,0.4022559632679479,0.37888040492180775,11.248877681492555,-0.43772189078581736,-0.64880534558109,-0.378051682942283,498.31449046490604,466.98534917316533,463.3422522439353,upstairs
0.7011686143572621,0.5668871720704725,0.398644451368061,11.069490938295651,0.26584265962339637,-0.2035990873328922,0.4972613960010848,467.53620235692046,536.4299095196324,511.0576156540611,upstairs
0.7512520868113522,1.0097626298963724,0.4840389797662662,11.021131500831695,1.581729052416474,0.8541857167550685,1.2345096420669033,477.7957680027317,516.5910483345043,497.8771663801632,upstairs
0.8013355592654424,1.2605182528233727,0.5052407838740837,10.616206967824136,0.08354411277106341,0.4612821405768943,-0.43432369156402306,525.7708010933616,534.3217922597014,543.3108025821044,upstairs
0.8514190317195326,0.6557706532516179,0.45038426358022193,9.903468976673134,-0.4865665092257453,0.3105230205933763,-0.9772359977752945,512.6115378567986,495.8114532908531,471.05933680698456,upstairs
0.9015025041736228,0.39641373946304836,0.048897223116852837,9.091599542208703,-0.713294611442684,-0.09595887281265703,0.6176773065829924,522.4506843326693,453.54857023973864,604.2991086358737,upstairs
0.9515859766277128,-0.296329191354995,-0.15415880690386918,8.105886112295352,0.3871845875268045,1.4171308767289361,-0.4228114519140131,474.6610157197675,457.14838517054005,548.8646275838768,upstairs
1.001669449081803,-0.6510347847129911,-1.3357888040123527,8.08160819710856,0.7515140028883491,-0.0684368327455249,-1.2011104630950646,523.6509373535181,531.9421514528597,429.1111738164196,upstairs
1.0517529215358932,-0.7124882173492807,-0.7089770144770524,8.269701792205874,-0.7985233334460999,0.40572837100638887,-0.38028853267811397,519.2109332862551,473.21015316475547,393.773925105433,upstairs
1.1018363939899833,-0.9780469537244064,-0.61115857314779,9.133634477784522,-0.7967108273940149,-0.19043087012267326,1.5486918676111252,531.7145706585308,481.4298565653412,443.68009488603906,upstairs
1.1519198664440735,-0.9457617263854238,-0.19834387958527205,9.965413218637295,1.6804843159258573,0.3498916102794789,0.3267201323109173,473.2013117121597,494.5914121685996,519.122726325239,upstairs
1.2020033388981637,-0.48934260801429913,-0.023270799025936623,10.345674399330308,-1.2568117606483997,-0.1289776574118082,0.866081062116897,458.15198239090455,538.1896956055082,502.64598145522604,upstairs
1.2520868113522539,-0.09162406743628707,0.26486379490786316,10.792654360732978,0.7516780911118927,0.428426664868604,-0.30336122659319725,409.00644284467535,523.045272934,412.515978088634,upstairs
1.302170283806344,0.4586970454619627,0.5739622173383483,11.135396656037654,-0.06853043502728977,-0.8828043461739239,-0.2178655800847285,509.69863903593586,493.0451582056327,536.4001459673913,upstairs
1.352253756260434,0.8932158428597308,0.4094039468968978,11.4122729333876,0.49125265688554454,-0.5278502291902738,0.1348876736675572,507.6058044093228,470.4992407043356,487.493448946191,upstairs
1.4023372287145242,1.1532983299181714,0.6839785212277236,10.498329055525796,-1.0796251809123953,0.39129649865967925,0.5307597055492951,479.06821780084675,521.4156377051987,498.46644586297094,upstairs
1.4524207011686143,0.8064658198435806,0.3658788320711171,9.933052209783801,-0.19065755386770294,-0.433114549889923,-1.4187935415402053,492.48448059794697,535.9761033412883,533.7022972025505,upstairs
1.5025041736227045,0.6896952415065754,-0.20297241103574426,9.53179038797703,-0.8282020707311223,0.34786044077137884,-0.8929043712407653,519.8815181261239,531.3129129969863,523.9381893456194,upstairs
1.5525876460767947,-0.02552640758337109,-0.37820223137689324,8.77871788983859,-0.0567945011159211,0.04728322501007404,-0.33155890978552105,486.74451576024495,519.5372905960694,509.93774217311386,upstairs
1.6026711185308848,-0.5760745426792394,-0.5368693590657203,8.290365204526102,0.5668941268916103,-0.5634640902689424,-0.28318726730091776,487.44559230823586,472.1642705655264,452.247393787011,upstairs
1.652754590984975,-0.798570518483393,-0.43336068877983486,8.113172172433345,0.8892482884188414,-0.8085647630052087,-1.073060356563411,479.7547133080505,447.47242849244805,455.52184374354795,upstairs
1.7028380634390652,-1.0362728210595609,-0.6552320804121237,8.607530723602233,-0.3634716024473203,-0.042019647187456384,1.9903802192139202,495.13324173009937,515.4034183528236,421.96682026025593,upstairs
1.7529215358931554,-1.1618668684545241,-0.6315631468160328,9.22495994159038,0.9090631599822534,0.8375413115146849,-0.08662436979688048,464.84974325605873,497.93207717277284,524.6361517717527,upstairs
1.8030050083472455,-0.6015898833571953,-0.42530763855099657,10.014142238161753,0.3629188645632095,-0.23454000826488006,0.1884240752954572,499.3033006258914,451.96068228180815,484.1379936671267,upstairs
1.8530884808013357,-0.20205321209136068,0.059779225926894414,10.507823280203766,0.08781007450995294,-0.6838038654506613,-0.3370441045795899,490.88852301038105,457.6005486693639,557.7618140637576,upstairs
1.9031719532554257,0.10227022415261279,0.24311235317080915,11.184339374564287,-0.2808775408810378,-0.03510531108266354,-0.02081259212823627,460.6649818059725,517.4637562537704,451.04122886105387,upstairs
1.9532554257095158,0.7849529307700551,0.5243685368981104,11.338578900506402,-0.4665284604662487,0.15558839221411094,-0.3351463466058351,542.2447050365816,464.6027059967683,474.0361394828279,upstairs
2.003338898163606,1.2429201766307207,0.8313998205300832,10.909815260465647,0.5285759813289657,0.5625103330590939,0.5897170468254309,573.1611279060228,507.620878334057,491.65649455899694,upstairs
2.0534223706176964,0.7344299634182028,0.09018592198917003,10.675745158171582,-0.1331236215905596,-0.5682563237431689,-0.07662336979238152,461.63618544568465,559.2792455539313,474.97378223249405,upstairs
2.1035058430717863,0.8028622270551025,0.3002881047517462,9.404206088248085,0.5890908223686494,0.5451868154961327,-1.3591307608281806,460.820617842743,507.0576956766751,504.5034864576329,upstairs
2.1535893155258763,0.3388169042861626,-0.18409277441897692,9.138594174948778,-0.16239557890505066,-0.3877498227071286,0.3197477791037488,517.8058298419718,560.5424121954404,480.8538928811427,upstairs
2.2036727879799667,-0.1383476690895143,-0.8397002492254504,8.448202552951264,-0.2927360992270263,0.1380577006517238,0.7719729345761422,533.0823492241302,511.6272228875902,495.3135912612939,upstairs
2.2537562604340566,-0.49939436502524714,-1.0507259823504203,8.22593185988342,-0.6262473563950658,-0.12862039976270073,0.14839090181006329,486.9497147855356,505.09277663099965,590.8699082875783,upstairs
2.303839732888147,-1.0656271893431613,-0.5448954643122113,8.185207805589163,0.5767057798725596,-0.6834551033013235,0.2523300267626078,540.7399981923587,452.63260731945354,496.1582117432001,upstairs
2.353923205342237,-1.3068339663127435,-0.3410080684370874,8.973482600639024,0.17609162091129027,-0.8260179929047993,0.5887511699992009,452.8013325123575,536.9465940239048,450.4546370742832,upstairs
2.4040066777963274,-0.5043050155621481,-0.3798954467941182,9.866336279664628,-0.24137945953124007,0.573260930542005,0.36052651365014493,451.73872717880505,513.3827346445084,429.9535519507844,upstairs
2.4540901502504173,-0.3336471553004241,0.27592384711851253,10.368315865473193,-0.05174307936556657,0.06798364700276667,-0.39114123291235653,569.7951666335482,478.40263746861496,522.9607380297159,upstairs
2.5041736227045077,-0.043777842410264715,0.2061576616464475,11.337007696688895,0.39571734948913495,0.6752165009405804,0.17105808974037803,519.8688426387074,503.7026325542056,505.1239535708779,upstairs
2.5542570951585977,0.5109241615089428,0.42948970616834464,12.033954053233085,0.40133199032234756,0.805806474875116,0.06857769006845099,526.3670603595658,514.6735210576418,466.8126728715477,upstairs
2.604340567612688,0.4499657129546563,0.7165761896895728,11.359773755524023,0.8418228024363107,-0.9814407218010477,-0.9895255602719216,479.52787809854976,449.79646647533247,529.9085157792592,upstairs
2.654424040066778,1.0432260899757557,0.7693555510979588,11.004545419603495,0.6998299429411977,0.5076629496610552,-0.743636643057621,530.3120848776385,567.9485063825497,551.7354615428633,upstairs
2.704507512520868,0.8419272465315747,0.5654527387376564,10.301431101432042,1.0205476931553892,0.05545049447552721,-0.6584005581526284,557.5050657055037,502.31613677842313,469.31085184425416,upstairs
2.7545909849749584,0.49978095533168093,-0.13284088623253149,9.490105460174583,-1.360898701863972,1.1214718911528294,0.45871101413145043,494.56689738513705,475.28631315419534,453.6039484594921,upstairs
2.8046744574290483,0.27441030435575,-0.11922966356963255,8.403653688466141,0.10796194641118362,0.17482880353715177,0.3591939326389516,493.9532694581307,485.79874643516746,539.1928512698867,upstairs
2.8547579298831387,-0.6778594305299998,-0.8031702508856002,8.132464839374231,-0.9616490070885052,-0.4850516527137888,0.02130124153112774,540.6123441342385,571.57437132183,490.7346069304515,upstairs
2.9048414023372287,-0.9662184854284206,-0.6890079454116591,8.012202148523208,0.892826927951173,-0.45457288030530263,0.4008885439655378,546.5018987881672,511.2184590207861,498.18301555003984,upstairs
2.954924874791319,-1.0370607254493527,-0.7241421240076689,8.668724027446013,0.7224027748407937,-0.5913956708626661,0.050801783574487,466.50807206257895,442.3535318831758,565.3167039239045,upstairs
3.005008347245409,-0.9680891641436697,-0.5465021788459079,9.430875231917184,0.6532183400254428,0.027845087386719855,-0.3606397626738207,474.9966014045337,482.02516814074966,541.3934958534337,upstairs
3.0550918196994994,-0.444253661077308,-0.2237303391552179,9.782385221561364,0.03078839834597351,-1.467059451930563,-0.6156116248790875,498.84002018280586,545.9193921897033,418.4896831168103,upstairs
3.1051752921535893,-0.17338357638033364,0.2968220062215103,10.984919125270554,-1.0149606409076446,-0.060599529274885586,0.4304506251565155,420.9564203419885,588.6998080580529,481.0404458796359,upstairs
3.1552587646076797,-0.11269641328722813,0.7388384078502104,11.255783053670994,-1.1972071146328978,-0.6532032847479025,-0.32140012815774305,513.617764904801,504.357584532796,455.44443083773353,upstairs
3.2053422370617697,0.6426962890340981,0.3750616291201802,11.451292795543402,0.2803907629356838,-0.7304264752131819,-0.026566198267022077,499.4644212669072,528.8180642242033,511.9311629940499,upstairs
3.2554257095158596,0.7758255910110423,0.3063706274323367,10.831309058632607,0.6508348740851271,0.5697995701408701,-0.7883748129226705,553.8144069320809,533.1320025917812,531.2982486128758,upstairs
3.30550918196995,0.7299602504532025,0.5780731682309934,10.216127228184618,-0.1792572632327423,-0.5263226202395419,0.8184790925837581,579.3124366431684,544.8781132522337,470.4875632851127,upstairs
3.35559265442404,0.6309590404892187,0.3617541020294274,9.56614284419247,-1.4128904139755996,0.29972421876130273,-0.29572847867738067,481.17986827900546,525.421854013791,490.87577604475126,upstairs
3.4056761268781304,0.18109837850108934,0.1604034441815332,8.91047648340112,-0.24397176306477292,0.10812594102933643,0.42481374912147807,498.5227984833081,497.6320674103659,563.505725982456,upstairs
3.4557595993322203,-0.4009045259724002,-0.524897838771587,8.461788420003877,0.9320687881338875,-0.4406301809001602,1.7102814939792441,490.0923186307668,508.7396744085777,438.47713086151373,upstairs
3.5058430717863107,-0.8812332377385411,-0.8302982114892821,7.859649694432129,-0.2311927974304926,0.5934344959414577,0.33238483993125156,473.1965240586041,480.71049811636203,577.614493126043,upstairs
3.5559265442404007,-0.7935881802501067,-0.40637552054747,8.184067543960296,-0.5689683426662324,-0.6083365305910122,0.5692833391969628,480.5925087965966,534.2705071283848,519.9344144052687,upstairs
3.606010016694491,-1.035144888325106,-0.3083958145611256,8.668658374272919,-0.24904503647026624,0.5274323899290246,-0.16837165665437703,492.83331669924235,545.1414203334142,559.4296299540595,upstairs
3.656093489148581,-0.916264537441538,-0.26923177506219836,9.65910580786761,0.1082370455733233,0.18952009661130384,-0.00013509829595392426,455.62220648729203,517.4591905544969,583.0819699577321,upstairs
3.7061769616026714,-0.29510525969280865,-0.16707090835591107,10.299126772106387,-1.0390997739522783,0.43971503487306157,-0.9306356199963786,479.6077622391896,427.55494942096703,564.8866538774505,upstairs
3.7562604340567614,0.1669543270611592,0.28838771732853835,11.093603793091992,0.5122537807163091,0.43439798417933423,0.06666630043923044,541.6354787496244,438.42257366799095,489.5146459432481,upstairs
3.8063439065108513,0.22076656019357027,0.6917594114537886,11.437176195365042,-0.15923779265716617,-0.3009357434841637,-0.9417219222107542,504.5899034782307,584.3941145787081,474.5831656681493,upstairs
3.8564273789649417,0.7705968598553409,0.7323014623104704,11.483437713435755,-1.0410479119852252,-0.5073412683162779,-0.20751940781575334,538.022856553358,456.91315582371783,510.85197181224856,upstairs
3.9065108514190316,1.2673106363168456,0.49868670073213767,11.034928105220825,-1.5733467818009972,-0.05129140106811764,-1.3750295639236243,511.9546235235583,475.2110168883633,513.0337941937048,upstairs
3.956594323873122,0.9302671877349534,0.30565944976303705,9.863164845292758,-1.1101204808877105,-0.8969252073118116,1.9844148455610338,524.5742722946475,485.91527474937516,499.2028185653008,upstairs
4.006677796327212,0.07220361272217242,0.20702855056802708,9.335765137660509,-0.36475645815674373,0.6124513158924552,-1.6744197052455867,521.3998387536782,467.1114497921517,541.7548252957072,upstairs
4.056761268781302,0.07528051966202261,-0.1016996700976984,8.791103731051876,-0.24875345253283365,-1.0987378046981329,0.7609099976407852,553.3133021119394,519.7222875042336,498.71491836296417,upstairs
4.106844741235393,-0.26283950493453767,-0.9687680323095886,8.146878041644293,0.9380487561279282,0.4698714893722877,0.21044578743997594,517.2681210992527,513.4895462836249,454.8709712584421,upstairs
4.156928213689483,-0.7567704695114784,-0.6461867953523457,8.144564649250395,0.4997202220178987,-0.1696974018502531,-0.2403278439656138,498.4593505726732,479.7044466620014,537.1275500312047,upstairs
4.207011686143573,-1.0736431979890453,-0.5292960344609379,8.697290255164013,0.7782144000080673,-0.9893818575423232,-0.6557568343864294,468.167924471558,558.2577202854038,448.32684513282413,upstairs
4.257095158597663,-0.7361701432415135,-0.466338455657668,9.63008203927916,-0.7514796002254238,1.1923959174593348,0.28061796775439,508.81282499653594,495.41554561488607,490.25813209141614,upstairs
4.307178631051753,-0.528579268224046,-0.11268041247599897,10.01177326553402,-0.7826581636830429,-0.014468244277654266,0.6674992754978678,541.2244549603387,493.7581721361498,450.0258967144744,upstairs
4.357262103505843,-0.2691885912341593,0.4006900110401219,10.805409641982918,-1.1668674316327985,-0.13406583412079043,-0.6963365722616531,473.81276732893673,540.4783290985235,471.92902424574044,upstairs
4.407345575959933,0.3321240660272934,0.4401225341116278,11.58029979771066,0.29645671437530097,0.468825475265926,-1.6009700533666056,611.8476876393788,522.2858810956265,387.19425937940355,upstairs
4.457429048414023,0.9440527357807914,0.3668759824128005,11.600399113220055,1.1700159732169066,1.0141887450817155,0.9754759279123573,511.0349745364354,466.9138378756668,498.21850200077284,upstairs
4.507512520868113,1.01209270373117,0.7490321537488416,11.03821404717415,0.22379806532147173,-0.09376500454591198,-0.3695025770149898,530.6575074668698,507.386257132505,514.2162951405733,upstairs
4.557595993322204,0.5978187960508878,0.626195044250992,10.142606096705467,0.10725548885481809,0.06742716066918882,0.5307954142337206,537.4163146303792,454.3043438133546,524.5947136058475,upstairs
4.607679465776294,0.9666532250680732,0.3382896224009201,9.485424362209532,-0.08991481069436023,-0.2928918778225128,-0.4153195737612826,508.4924871390345,480.89646788779334,437.9556125972936,upstairs
4.657762938230384,0.31354132688236896,-0.2724189197826995,8.933166647704851,0.3215248005296732,0.05556714839113995,-0.18741440865947206,515.2380716890422,564.232218670226,491.7768517283357,upstairs
4.707846410684474,0.05559769348302919,-0.4473781016310015,8.496937392280078,0.22381624718582044,0.8118555486454692,-0.4123672996563836,538.8107778829858,502.88035599405737,537.3679474086288,upstairs
4.757929883138565,-0.7692850207049858,-0.51689529422505,8.725542352621575,-1.2815196563156737,0.358120754744915,-0.6767930383099796,544.0221633078797,459.5670333086084,566.093586675076,upstairs
4.808013355592655,-0.9844865807289507,-1.069660892079916,8.17702719066529,-0.0619851289348845,0.5842601250544099,0.42582655239803063,445.9769245249455,495.5002902882912,471.2909715547571,upstairs
4.858096828046745,-1.0565056477476762,-0.777262395805522,8.700189807378502,0.9667424957941767,0.055903475233154455,0.21503215805840684,506.2882062968586,540.4369408105322,529.0495230743096,upstairs
4.908180300500835,-0.6308592435681879,-0.2295552139474617,10.063981956838163,-0.20175670201019438,-0.28343007756858446,1.2633324430047042,550.2550147633742,450.93998727705446,448.7779714841491,upstairs
4.958263772954925,-0.2537510199863072,0.5469099949274843,10.513347597819932,-0.8582127981451219,-0.5744225609719925,0.2193606819546085,489.6852803103904,499.3480328140205,476.1979611392679,upstairs
5.008347245409015,0.3527353448181646,0.10912876737666322,11.052132922911078,-0.2671016483234004,-0.8374848221877945,1.8198837426066377,507.26862622483003,555.2265968848365,497.30408025205116,upstairs
5.058430717863105,0.5444125299503785,0.3162148194801734,11.469635252081114,-0.33302522732330275,-0.4455620629888858,0.5195246239987099,526.860650603296,563.1810609631472,506.86510593005784,upstairs
5.108514190317195,1.012634163128775,0.2508524396050621,11.485117429930401,-0.3327104081356902,1.4685497432848362,0.3690524708661971,566.7147964242008,455.3462226244798,458.4706657455978,upstairs
5.158597662771285,1.0430989078061867,0.19169693016374623,10.750713454664622,0.21493242370889226,-0.05479570485058038,-0.6817267732836927,553.5548957260892,390.8488339425301,519.84802466079,upstairs
5.208681135225376,0.6985568393667168,0.47987920677135765,9.947317499878013,0.24339732049599022,1.5853068877549177,-0.22652240095830592,482.6090276026782,506.1472092483549,503.80759102195844,upstairs
5.258764607679466,0.426507537161061,0.083190490341645,9.465221381522952,-0.025616379561988856,0.048424508926093464,-0.36175179960925324,533.6813158724383,521.9421289420377,561.1193153007173,upstairs
5.308848080133556,0.20062231346756326,-0.17340255732041926,8.583891407458786,0.35523609643589993,0.06692339386998132,0.8671521991011403,595.073261261494,562.7660600420437,497.14849522613434,upstairs
5.358931552587646,-0.767806986717796,-0.7039048232752882,8.500514179271875,0.08902759714457265,0.8802596663567946,0.09378897203854082,519.5828170164132,563.6414531926202,435.237812308384,upstairs
5.409015025041736,-0.4485105281531815,-0.33241036591739725,8.490876340878518,-0.08463101004301268,-1.003762338808722,0.010559690216323215,458.573163544554,439.27951760393603,476.40867823230207,upstairs
5.459098497495827,-0.9328061932426348,-0.4910074435416601,8.466689317623086,0.7838578359803099,-0.830081768554557,0.15933591349040413,477.38483665911843,553.6976128877891,512.0955668880491,upstairs
5.509181969949917,-0.7548673369318216,-0.20318088226817937,9.599999383096451,-0.4630787952915511,-0.15783042744001483,0.23851632180851381,518.1978366129964,485.82192007355127,437.9490478023403,upstairs
5.559265442404007,-0.9082308481945549,-0.43520533895907315,10.216219611049079,-0.6520820515094281,-0.356513422638689,-0.03766134750380185,449.9464187729982,491.2403571222164,569.6207299477946,upstairs
5.609348914858097,-0.00890363076732803,0.3302146259446672,10.979006009693038,-0.4812222938244124,-1.272976012801412,0.38701629949899363,555.0711511547681,438.83994503665156,441.76941720314954,upstairs
5.6594323873121875,0.5998301617270243,0.13016023471503396,11.102573829039928,-0.136345138191728,-0.37301184160514006,0.12356379091948119,468.6377744773823,461.13357916439213,499.4590208978341,upstairs
5.709515859766277,0.7100906522539839,0.6143872725985149,11.58079706615127,-0.4179340166277662,0.7071982756652534,-0.9274957237402827,409.81850731640867,454.01270858616743,482.4763266091757,upstairs
5.759599332220367,1.069090515968881,0.6023855558901898,11.255065789288574,-0.4088796167956965,-0.4911888080453474,-0.19417276078317497,547.1722470548038,432.18908729200956,450.91927111818825,upstairs
5.809682804674457,0.9391697489077165,0.5729196802161076,10.280375530907667,0.3370298834201184,0.7222082984856072,1.3351703052308022,498.68343342672034,466.28975906431737,480.7036293126613,upstairs
5.859766277128548,0.4285321275664696,0.37299539037806884,9.884127218309754,0.7933653631521562,0.8984683731253509,-0.11693427401597736,362.79989753948576,485.76147338648474,428.23326511247893,upstairs
5.909849749582638,0.18311192708880492,-0.41774544983460793,8.915592715227422,0.9143249133263208,-0.33559769589541844,-1.0790225044790007,516.6219246855924,570.9472150902631,497.4115116450652,upstairs
5.959933222036728,-0.08027059098060105,-0.23546458166538548,8.409784658625535,-0.04959823166123212,-0.45177001332905836,-0.2877704150464471,458.5717971031435,413.46315577314016,470.3072524431868,upstairs
6.010016694490818,-0.7193215636442452,-1.0512095321698545,8.421473691488627,1.3426053656248786,-0.00135594900758355,-0.5009698011945776,481.71986751865336,482.02588559577896,503.82785606908556,upstairs
6.060100166944908,-0.6110062363899076,-0.7997405323492082,8.607425773706664,-0.5505804062293946,0.63347403267479,-0.6420616573251534,453.17189125681415,452.45103766933994,475.44731679774026,upstairs
6.110183639398999,-1.1329882588944078,-0.7507648484790086,8.963903856408992,-0.5938232940368132,-0.30239375493933035,0.7890871232916552,519.7382573580265,518.5893515063173,505.43680262241537,upstairs
6.160267111853089,-0.9093953419294305,-0.09986341483566347,9.914527420616174,-0.8124949224159292,0.1689982691137917,-1.9188108431864905,488.84549181404003,554.1294068923041,501.3028023455077,upstairs
6.210350584307179,-0.4839948705543516,0.04982754875288271,10.50697045218928,0.19470645720693044,-1.193125894385037,-1.0739236446619973,471.9570952255882,514.918877186489,428.94311891058163,upstairs
6.260434056761269,-0.016689491408683255,0.5307764442074334,10.381066370280731,0.008520553440701868,0.18700377366568396,-0.27694688279899954,409.4672982433745,550.3598625493627,491.91282882188403,upstairs
6.3105175292153595,0.3113889930893991,0.9452745763139332,11.248764681669998,-0.6139439266224646,0.3533367438812842,-0.04710065470840952,512.6633959644072,514.0115555759957,530.762089304729,upstairs
6.360601001669449,0.831614944960744,0.6374535251190991,10.990945958019028,0.621531965620429,1.1522568298132354,0.6368135590798804,496.9316675024234,469.5231707651352,427.4775699326562,upstairs
6.410684474123539,0.9161582385113834,0.47610574578356724,10.193001204635062,0.13379422301131141,-0.339047097515714,0.6996163371058025,560.7582181104002,440.59236621783873,533.9838892446608,upstairs
6.460767946577629,0.5884616748920929,0.34082489417987977,9.673726569507036,1.0701986620700912,-0.5954747404921275,0.7037754750244828,483.3015621818546,458.9007245706896,502.6304382185728,upstairs
6.510851419031719,0.9997780316024324,-0.057005018147728015,9.314323535555403,0.10483375932204608,-0.3177460479316766,-1.0546346520454728,481.3684398902125,577.6136310621706,518.7481334401643,upstairs
6.56093489148581,0.1412344897471145,-0.5212101905269206,8.222596694134918,-0.7394632242935639,-0.6065241858167468,0.41669566951395043,526.2311365965223,488.5708683735006,524.5025362405547,upstairs
6.6110183639399,-0.696217220631033,-0.1607799306699329,8.259781001738753,-0.4955054214297906,-0.5903543218976925,0.1487996643561558,522.5888943255753,466.2487997154753,456.6438247989998,upstairs
6.66110183639399,-0.7679559820828059,-0.9799202317929749,8.419771215620699,-0.3425538892813511,0.5195745148188311,-0.38023377037971756,451.9480078351924,555.704207699814,479.0265023383965,upstairs
6.71118530884808,-0.8762425977361634,-0.8543560113792987,8.66320443396789,-0.5816187707890315,0.11431826426714695,0.45873923738603484,479.0322211553815,499.0342124302922,509.7341106429777,upstairs
6.761268781302171,-1.0216951821060019,-0.6770039070007827,9.311860425315345,0.5176767233205916,-1.2053491830190328,-0.9612487394500293,466.2475076619364,496.94825680156464,444.60162038510606,upstairs
6.811352253756261,-0.5719788720769134,-0.47590588869109346,10.591616333740413,0.3040829510027231,0.5323221571365696,0.6464634977685372,453.3711584903918,495.2706144865422,502.1031370032602,upstairs
6.861435726210351,-0.34275233248332393,0.30428828875860897,10.961982020345703,-0.8446556165891675,-1.492190857431968,0.2584497798365964,420.0528322082092,509.26291499508034,565.264741501941,upstairs
6.911519198664441,0.38513283406389903,0.44708335753442807,11.35817695601174,0.19290541116418583,0.22923955943598995,0.5142034455731347,469.1266301099926,476.5239979537491,452.9989867318892,upstairs
6.961602671118531,0.7879454307487869,0.7534242275019696,11.487830178091778,-1.2127835947156904,-0.040451664036841535,-1.0288655248067589,486.0911879324199,510.1745692347311,539.3314836221997,upstairs
7.011686143572621,0.9361514366716884,0.57958322696816,11.063961514348444,-0.3585224933904629,0.4402173622032723,-0.6056483717980153,445.7904643381876,553.4966249836957,477.96985212975613,upstairs
7.061769616026711,0.9738583753930224,0.502651736557759,10.098996825125143,-0.2933944307598376,0.7848048445026887,-0.4365280384047992,504.8737877352634,529.5139465891849,518.8689937836033,upstairs
7.111853088480801,0.83209245464446,0.3632066799534257,9.935717577594508,0.3496046632790168,0.5168410860246206,0.5147556953326692,522.3345556280002,541.324010007664,557.8837565368759,upstairs
7.161936560934891,0.12490269162496233,-0.19491691454719623,8.799773085193962,-0.07139217967288988,-0.24390373160511142,1.3600548399881263,505.5265966582499,526.0812748694749,490.40597590176895,upstairs
7.212020033388982,-0.2712715716674021,-0.36607714503864974,8.418987084581731,0.08816844988932092,0.14466389026391158,0.16213311090498353,516.0776404602814,546.7658383909281,417.674894761974,upstairs
7.262103505843072,-0.6667271574280419,-0.8169324400388465,8.039964821734003,-0.8067637524824818,0.09176598762205816,1.8377647427170287,524.5207395929093,453.22635111385745,502.3404071664315,upstairs
7.312186978297162,-0.9908380875254928,-0.6059280812022814,8.80700401690039,-0.4560197401911495,1.1861446546743126,-0.2282895572880747,441.9965755658097,466.6304965989044,527.6348187285305,upstairs
7.362270450751252,-0.9837890271405031,-0.5213071336894475,8.97303944659897,-0.9923726991597346,-0.4290992912970839,-0.798505505565245,457.315466435301,407.2734002070357,470.0706778161418,upstairs
7.412353923205343,-0.810222744555296,-0.2219792618574027,9.770407331106993,1.3522567936209189,0.022632956666870856,-1.6428118879539273,564.3169620585236,505.1245711824496,509.1145202343275,upstairs
7.462437395659433,-0.5768718833702424,-0.046101947183599834,10.980020670524267,0.11309206515634132,0.5549259676633725,0.771304008988401,522.0823797963718,470.00030951095493,385.7379777900637,upstairs
7.512520868113523,0.19319345470556992,0.64671955928211,11.197429600933345,-0.5900847654608549,1.3274164091426401,-0.07648077813654972,585.9756171522795,537.5990306426171,475.7666587985865,upstairs
7.562604340567613,0.4754161050003219,0.9197055227121251,11.43545367815329,0.10729807857152514,-0.5935104755679564,-0.07842511285290099,477.423345229969,509.69082855737656,459.81704981761453,upstairs
7.612687813021703,0.7595991925783506,0.9043991833575633,10.966674584812361,0.5180020516397936,-0.7029662171617699,-0.30809496380095425,484.13350809877164,539.9370023034211,471.726985935575,upstairs
7.6627712854757934,1.4654596301237521,0.717822726844713,10.237911571382929,0.6276319928181704,-0.558043551463239,0.2786525272297516,478.1290711051122,540.0624763021073,437.2820963831896,upstairs
7.712854757929883,1.0437542958811488,0.17489165156041722,9.707463030386466,0.18975932898517725,1.163717762001691,-0.2304641120003982,526.95645421685,537.4329354868506,446.85734652176967,upstairs
7.762938230383973,0.015261884668323178,0.23485232576077972,9.210804167141417,-0.028218864007830025,0.4217137682661701,-0.48868480153397825,494.273728693034,462.21397243874907,470.4230575295623,upstairs
7.813021702838063,0.27018549442024575,-0.3592855248135094,8.45854113009908,-0.6442555723055463,1.5824033644900994,0.01831103882126618,484.9377208099844,501.00438999388126,488.1103814487136,upstairs
7.863105175292154,-0.4681380356706519,-0.47655114499162005,8.033341489266858,-0.7430988037898179,0.45155987283239835,0.6993798440350828,530.9318512362349,510.4213809209719,501.2849436328094,upstairs
7.913188647746244,-1.157611719151987,-0.6153522510571008,8.248044913156978,0.4666206361404864,0.42144650561984187,-1.4847306212199107,501.93082222812217,436.39981660032333,513.606707898394,upstairs
7.963272120200334,-1.008771322874405,-0.7486564779838623,8.588497019743462,0.2096186919798577,-0.6232397714945173,-0.22864316831806897,476.2756442435425,534.8180914967472,530.6272965244355,upstairs
8.013355592654424,-0.852806817652678,-0.2876656850789899,9.4654293488785,0.5481769997617205,0.8674432742837496,-0.4558355309377481,487.24726707536485,421.0868510919291,470.99029844278675,upstairs
8.063439065108515,-0.30512558952517194,-0.2168515886837672,9.973187355239984,-0.38439386286661764,0.4694614624711932,0.27731083122381983,443.04055081715194,450.93398291165494,456.926253539277,upstairs
8.113522537562604,0.026825055915012316,0.35358037074664983,11.081821284600851,-0.7963695756871674,1.04751535286997,-1.0269945839155517,473.0733369020487,480.2926325697523,459.91156276046337,upstairs
8.163606010016695,0.1464144000680087,0.42886459195199267,11.102557479309077,-0.496136483039989,-0.24575337253235485,-0.9080121173858677,503.20105177812525,560.9771024149726,497.52399357332877,upstairs
8.213689482470786,1.154222068573759,0.5564064353552982,11.502347316908216,-0.9327994384062387,0.10329037647287699,0.2266102070048353,480.23062460377014,482.9028864708993,450.73399480621873,upstairs
8.263772954924875,0.6922084769158442,0.3244223354590485,10.783054654319361,0.13053575644951998,0.12188334572850382,0.3281488936708238,406.5524036502452,470.6619073468755,488.8229463894948,upstairs
8.313856427378965,0.9115520705900189,0.6321844423016088,10.225186781754541,0.11285877619717069,-0.691991097681348,-0.06834696864286519,450.5452927767516,499.34957024566927,484.86672546336416,upstairs
8.363939899833055,0.6053489780337561,0.26138614887470946,9.542566220537704,0.4754666542379405,-0.9232683596382885,-2.0340897352856273,492.0138490931595,522.5532927231202,517.1106067403341,upstairs
8.414023372287145,0.34984078024108395,-0.29466922455129707,8.941367259229068,-0.4563720978045175,1.7668347113373442,0.8386036944613555,559.9415732380166,451.32256219879906,442.96178784787753,upstairs
8.464106844741236,-0.4109107786911864,-0.2774149486418992,8.566065132142354,-0.36694648665456664,0.6102004182154419,-0.45012345141851656,514.4772681565811,498.78422921643823,523.8909075552152,upstairs
8.514190317195325,-0.6387465327630734,-1.0251484774344644,8.21348299776592,2.0520478227497434,-0.45992832909518905,0.14103242417344092,488.9000945813116,472.18100575688965,491.7417727654607,upstairs
8.564273789649416,-1.0072557112476248,-0.7405338389303626,8.535284724932696,0.6730453425437035,-0.48910830036393993,-0.9885812688480844,544.3365752214818,499.9639484712527,552.7949523224054,upstairs
8.614357262103505,-1.069114393895535,-0.6755941123249118,9.160808037564285,0.848915212256043,-0.4330812437179072,-0.620411212926785,497.95356306855354,508.71998778248866,547.454580185003,upstairs
8.664440734557596,-1.0732735450473845,-0.15617295804277126,9.735732459822229,0.32531286683061184,-0.8960369028105449,0.9691042064434655,425.7475075871903,425.4653302575246,529.600788103313,upstairs
8.714524207011687,-0.8135933009290985,-0.18420559591243846,10.666554207030886,0.2787753678830242,0.3037100363320316,1.5284428441015336,499.6628765695028,531.3971720452616,556.4960819165741,upstairs
8.764607679465776,0.21186058589450302,0.37141366482390914,11.063614596783886,0.5607580926012796,0.4798744408264827,-0.5410399804745183,566.9814767911579,537.3153700598998,525.880190013697,upstairs
8.814691151919867,0.6561289202715354,0.4411167253137068,11.438346605842328,0.6687697729431926,0.26580055088273535,0.09504539952063154,416.1711122884428,452.7095140975132,511.0719151085917,upstairs
8.864774624373958,1.0325094384674718,0.683867268468656,11.285878994568186,-1.1556315673932467,2.0986664199165777,0.1459810083212107,513.8087997965321,483.9337549669979,500.6543463947581,upstairs
8.914858096828047,0.7573690546992778,0.6088299611631012,10.748124083981846,-0.4361814542559291,0.13015585696925167,-1.353724000182696,484.9267055284606,462.7955808015079,488.7871196705992,upstairs
8.964941569282137,0.6954153808718289,0.09043414702853789,9.908977978951597,0.13451915343236376,-0.9698585456566035,-0.890632936113997,517.6486422354728,454.1238437496962,510.5030450152576,upstairs
9.015025041736227,0.572505206518334,-0.17961248550991,9.104012555554112,-1.3619068346646337,0.398310829014203,-1.2925101874528582,519.9453294620998,531.8746116920526,509.69275729252433,upstairs
9.065108514190317,-0.00435698040652252,-0.1827893292142143,9.014031756540906,0.3142569757370436,-0.6997000077685049,0.9080065310168908,504.077458251467,584.3291325617851,565.7571259734556,upstairs
9.115191986644408,-0.1331147944865575,-0.45924306391238773,7.98806890834751,-0.2981389018107547,0.7879431438253353,-0.6872527939947491,560.1546666480333,518.8611828183799,579.2736004099047,upstairs
9.165275459098497,-0.7486121183248171,-0.5315317355541205,8.254845281737172,-0.7482137388599663,-0.6939759476844823,-0.9424348241085446,576.9921203404849,479.0903001659829,462.1539437424048,upstairs
9.215358931552588,-1.0820890828826673,-0.8022626411862004,8.832531692199192,0.03005215371003616,-0.5250554648125096,-0.06376239964391187,475.0347115091085,507.27047996877627,457.36492931954615,upstairs
9.265442404006677,-1.1188599644829125,-0.2044071512801376,9.350795653991154,0.529729369380455,0.5063976606363884,0.09929550860772571,507.38567664133404,471.8122134632476,477.1399044836377,upstairs
9.315525876460768,-0.3862209411193309,-0.0902708744142803,10.38418561241679,-0.7585376708591332,0.22930161353813608,1.038621607487562,486.5834158829789,520.7651010841072,444.5672012865708,upstairs
9.365609348914859,-0.18093100128517509,0.036802113176338025,11.22720568466603,-1.4619385195354502,-0.526380023906135,-0.9929701008508265,487.9311066286837,571.7046930212849,459.8789680446493,upstairs
9.415692821368948,0.10511915020879782,0.22776777362576406,11.02791164615242,-0.42807832403723745,0.39414472271307416,-1.2655335956971054,417.7117296719702,538.4485700215247,520.1284985956266,upstairs
9.465776293823039,0.533878861970635,1.008833156348203,11.326078574376577,0.05805556693936662,0.06538423759963802,-1.3438642607741775,522.9735024574577,539.5001680930496,463.3658241094015,upstairs
9.51585976627713,1.3054879435436986,0.6713759079881203,10.70940622083255,0.2336733323291719,-0.6976121065876836,-0.21655566915221622,421.41243921126625,469.69227669857827,494.8692606032163,upstairs
9.565943238731219,1.386865215722838,0.5228370113441697,10.161307005839705,0.14451459869820396,-0.597618679478635,0.16836383741299865,539.0321156255466,485.3848364156875,518.1794674320902,upstairs
9.61602671118531,0.42369139619354507,-0.015210528498737386,9.565164001828748,-1.3312844157294572,0.03229104557540166,-0.14028512591147965,491.2434526001366,501.0013545403689,501.7288542035829,upstairs
9.666110183639399,0.127586915398828,-0.05155685176954586,9.251929473250595,1.5277374207125904,0.11879564749737061,-0.35699074311221335,535.1506008995766,525.7471844238399,486.1101942215391,upstairs
9.71619365609349,-0.37248243984718976,-0.6363733837777847,8.542442436895755,0.7224133334124208,-0.4489756122059257,0.5603274333956537,542.8364805825759,510.48160187147056,502.1930238762211,upstairs
9.76627712854758,-0.9394700795524386,-0.3467116822029987,8.274129631463374,0.8576293779977908,-0.2569522581966804,-1.3648127606554572,529.6879668146441,483.0802084230268,472.4144047439604,upstairs
9.81636060100167,-1.001199822258148,-0.622882396432894,8.71419955879243,1.6536983478625087,-0.4882396472604578,1.3300541504485668,514.4544132660002,533.2598547261466,435.5050709052903,upstairs
9.86644407345576,-0.9691519029935963,-0.6938185934448029,8.889042117733602,0.279011486655906,0.039393485108803625,0.9898582400095856,492.66445772721744,487.99990329523865,546.6975139596415,upstairs
9.91652754590985,-1.0374982551779148,-0.5207955064555085,9.552829193852164,-1.095482667342334,-0.5210231206203826,1.5506419533422275,498.6232435406254,439.4079534957826,442.47948028811174,upstairs
9.96661101836394,-0.268496158392446,0.30379574110856905,10.645622500675827,0.3527583358900124,0.014958765249680043,1.1001122902036786,499.1317142939985,540.8591671018197,510.4547638182048,upstairs
10.01669449081803,0.35649223128273433,0.5782101628775409,10.965552620738835,-0.9287815245459143,-0.0957319328916303,-1.3789567225646497,469.69612023883684,482.0777681785327,487.8771873672977,upstairs
10.06677796327212,0.28080137045173087,0.7457321872852305,11.36754680385119,-0.33232475704931297,-0.28775602674929085,-0.16927677736550684,533.9162565877297,504.7284352257311,483.8890672478931,upstairs
10.11686143572621,0.9271411150749981,0.8746020589621826,11.339333985811301,-0.4104598490162328,-0.015936125714257506,1.0889731552260857,582.4852486655532,496.1943303409164,530.1779653207275,upstairs
10.1669449081803,1.0680605917517156,0.5920022418874431,10.666665983676257,0.16858784677760452,-1.0038010838199196,-0.44881088666196634,428.0020145268085,487.16926691570364,509.80854363105914,upstairs
10.21702838063439,1.056908901014991,0.4576457157964833,9.576280445368464,1.3124652363758844,-1.2652526905359553,0.31951706939668334,515.9922713039156,513.9253431046078,552.5170722657998,upstairs
10.267111853088482,0.12508212825993736,0.27656081867074334,9.032503464448343,-0.20588624279133372,-0.013438758310755998,-0.10390627101464932,412.7821012989237,502.17400545437454,509.67337518925774,upstairs
10.31719532554257,-0.21025599245718807,-0.3874711708419587,8.56252997911573,0.7648850387089488,0.017777667055877938,-0.9082177759629659,482.0813040467137,583.2922857958142,400.8323072936927,upstairs
10.367278797996661,-0.20469831598510996,-0.3425941987219667,8.13968952476481,0.9670136323242141,-0.07042464822763468,-0.2792132850841557,481.36908094058583,484.40195253397377,512.7032991112718,upstairs
10.417362270450752,-0.7302449511025175,-0.8165288956327283,8.571258773307084,-0.3793748150915501,-0.40337732670570076,-0.5158442822859558,436.7048362092676,424.44966864244384,478.573012634433,upstairs
10.467445742904841,-1.060909799221955,-0.4573418883897023,8.933343234217892,-0.060157926498990245,-0.3897141730528729,0.42725613187502837,530.3149221537487,522.8199615681505,537.4209506044293,upstairs
10.517529215358932,-0.786767338560849,-0.396303470200595,9.589874392512089,0.6751775614538255,0.16555232182748375,0.4751396753151763,446.1053146546569,491.91565770614216,566.5258849375283,upstairs
10.567612687813021,-0.758734628543832,-0.1403205992382442,10.056118401825156,-0.14518117844024783,0.8852747064686161,0.6980513144893612,410.52750154469146,477.3038387476741,503.47305237272263,upstairs
10.617696160267112,-0.3553734700313049,0.07604471478589947,10.979545580735849,-0.6191466815099612,-0.6865487581444476,0.4963049049519066,488.72043080377983,515.8888099154161,490.33137663735147,upstairs
10.667779632721203,0.11961682924633212,0.9928191405750295,11.200546284414479,-0.6705469887975616,-1.1710998106312898,-0.14542591285132325,574.4043991409543,484.4944495329045,561.0322748406811,upstairs
10.717863105175292,1.0415464655994204,0.9044649386556585,11.272676326228991,0.6548374362896476,0.5829230103005495,-0.9041410176430067,463.4857663276725,508.84998535199213,485.60547181141305,upstairs
10.767946577629383,0.6166572099766355,0.8443025901631949,11.050356441391223,-0.960435004481323,0.9719747482054094,-0.7124647868094037,527.539312046819,537.1669252252559,543.3137892432555,upstairs
10.818030050083472,1.1341521765373774,0.41576987994283443,10.244348528035028,-0.03603941816436785,-0.995360213344577,0.07722258143987135,527.273418417139,461.2097336745054,527.483318768315,upstairs
10.868113522537563,0.7307124177495263,0.031121625762850297,9.754444436569175,-0.38732416928660807,-0.24709623896421445,0.5697621603096324,445.09527477955294,583.1231126983474,513.898247488563,upstairs
10.918196994991654,0.3109045308449646,-0.2571461020038008,8.733932621050611,-1.2188696735329123,-0.4614590323767991,1.715509147527764,543.4532959119108,495.22128111338907,556.9696930704058,upstairs
10.968280467445743,-0.1366258091730414,-0.7415686850645604,8.587851374798037,1.2658477788702236,-0.04230406079072399,-0.0285711886550871,486.2611289568462,448.00001446291077,486.3676236192108,upstairs
11.018363939899833,-0.8147105755805134,-0.6865045814089987,7.975348119286411,0.764863252792093,1.9289046626864044,-0.789407408616459,515.1047287599869,513.7291560171496,518.9505104224498,upstairs
11.068447412353924,-1.2147337646371064,-0.48177198004467986,8.493549619550038,-0.6566492594667066,0.3298453332917893,0.026837378221849322,507.78408496094335,427.3259154270031,438.7365153580272,upstairs
11.118530884808013,-0.9891828350941133,-0.46469948768293606,8.738166232207796,0.36709536394516873,0.16026095154857098,-0.2754134983969405,546.1909659014642,518.9033803049397,515.4513047133772,upstairs
11.168614357262104,-0.7922402177301339,-0.4487252110431091,10.18258721556939,-1.0689878339721086,0.28508504342800334,-0.9993147743001636,515.7779149087969,491.3099370309764,519.9588636183953,upstairs
11.218697829716193,-0.1541229485148127,0.15587532235930987,10.73000382935049,-2.063693549483042,0.5107920058905207,-0.6058455597200791,485.6094041787024,565.0985749846768,529.6730828175924,upstairs
11.268781302170284,0.6851779516756848,0.5582313596533255,11.303943365299014,-0.6240075169417109,-0.03674572687143162,-0.164816446438975,473.9993154955387,488.7304990208882,496.9768776882293,upstairs
11.318864774624375,0.47210900543207673,0.590384840778911,11.326767631887103,1.1463798077043432,-1.6778817167043047,-0.229986406377206,496.5835299305366,477.20913832933013,502.49997615774305,upstairs
11.368948247078464,0.9883969276925787,0.7899396539818975,11.13350341317916,-0.7471539251365189,-0.23992900461139605,-0.18157017151798474,496.41509643835457,463.1179879460008,503.69396402830375,upstairs
11.419031719532555,0.5904633444140793,0.4373780026133165,10.40725960771603,0.2730777600278007,-0.9926401158170036,0.5540676881763107,532.1080776566831,435.8440652673515,441.4409766063472,upstairs
11.469115191986644,0.604972830268696,0.6794158118706943,9.774556423830893,-1.0701208347107236,0.3811549764467004,-0.7815029770782161,534.9557142477644,602.0134990327535,468.1528076949568,upstairs
11.519198664440735,0.6250521101238171,-0.022180601599916278,9.265991651982043,-0.6625831339716293,0.17779491878412512,-0.49255053400334237,506.91491097079177,485.21581058191305,497.4056253386776,upstairs
11.569282136894826,0.08638785673482664,-0.516508297304946,8.591122065927568,0.0898192819580463,0.7092445398273088,-0.5527183466234843,517.8157584378961,457.04605456064877,500.21114147566163,upstairs
11.619365609348915,-0.6574397944676617,-0.7276456124205612,8.08080786927945,0.12815959638983562,0.19643350950537647,0.3107912878822134,486.4173729692664,476.69782271414226,510.14747753978605,upstairs
11.669449081803005,-0.6695786983164803,-0.647780062855773,8.388559901778324,1.2555399379480083,-0.07361899564666555,-0.012476256417397583,493.31805099965004,549.74763891874,530.4854290854167,upstairs
11.719532554257096,-0.9243680772405805,-0.6352864087752832,8.541900225598544,0.6513858081120638,-0.307812426495086,-0.8607433172678518,537.8143044068792,556.0802200993069,469.8138018061874,upstairs
11.769616026711185,-0.6699737955714455,-0.4786282436400447,9.514951333794874,-1.2989897393434096,0.6562056064846229,0.03762160409335101,422.70954744683297,588.4817170828104,457.69604595234995,upstairs
11.819699499165276,-0.4634010458737343,-0.24455778075716672,9.967762505731317,-0.4940512202695391,-0.6530802001412869,0.7102852790896261,494.8770646490763,499.1530264246657,477.03596067258223,upstairs
11.869782971619365,0.2197693509325433,0.33730303495546526,10.936300022387336,-0.7975683492252119,0.6797499727478961,-0.060383689287781823,514.8802579604969,472.71731455576025,524.050049354651,upstairs
11.919866444073456,0.26334393596670513,0.7906055866850448,11.38280592314594,0.5131337486996275,-0.7463235244306553,-0.3842756625043901,484.51273852173034,479.2383178586598,545.5355002333395,upstairs
11.969949916527547,0.9887995276338558,0.7601285353056877,11.081000729021845,-0.4806010297435122,0.06498954729210717,-0.16879158356417343,454.4312712035792,504.2762030569683,525.7097453456333,upstairs
12.020033388981636,0.9309580079638186,0.5789756183276384,11.105778532220349,-0.8330383717200686,0.07451904588058045,1.265484121249818,547.0890086287739,440.8703763277879,531.1928881470449,upstairs
12.070116861435727,0.9903401224843281,0.5165469596855535,10.163877175496392,-1.113175612982314,-0.1982033611696402,-0.4016627705086404,454.37237827213596,539.5076375858104,475.53937118349563,upstairs
12.120200333889816,0.4272961327273484,-0.08511541965642194,9.303553113527252,0.3681853618637129,-1.6120789970435,0.8704657934873723,501.77000915718895,501.62557790904884,484.13100678604644,upstairs
12.170283806343907,0.16437896038365324,-0.5058006691411276,8.621189551407015,0.2325211529220237,0.4683263958284588,0.009926289454143063,542.0116352401833,500.61568918630593,480.576378752751,upstairs
12.220367278797998,-0.07667026661186746,-0.7464353721877712,8.382925691012312,-1.2002282129217374,0.007813311184642487,0.8464773259422932,525.0792893355895,535.8900645604301,476.44206202941666,upstairs
12.270450751252087,-0.8721464398621461,-0.7987184625397985,8.10769254257226,-0.11087713264701139,0.35100263939459003,1.6367136037354608,419.98065603274625,589.8578169243483,491.94745171250685,upstairs
12.320534223706177,-1.3305653997225857,-0.7235458039109055,8.707926676206807,0.3242846287908927,-1.3158191862034023,1.3984801341505158,520.0357130437826,517.2163584253977,520.8391790098107,upstairs
12.370617696160267,-0.9618186914687135,-0.5600521330256971,9.111240399241932,-0.038313560744107814,1.1016649098397437,-0.9441366904875181,482.4360488732816,460.92576187893735,524.1423295191476,upstairs
12.420701168614357,-0.5061384844434214,0.005142416883861078,9.939173754775474,0.10885021838459151,-0.07301806361433112,0.34695766791349003,456.3267790921682,497.5960054888431,444.8898994114746,upstairs
12.470784641068448,-0.304460774277886,0.01865035254175182,10.39773144864415,0.4559650713423977,0.05390559260570326,0.2693371639235457,466.78757741559303,474.63289897412847,490.4018329528309,upstairs
12.520868113522537,0.1837511652035152,0.30841835143274565,11.301515103933115,0.038397731129037556,-0.2098741072199085,0.27133399314738926,550.6329970080114,484.76107874992863,463.5027661947891,upstairs
12.570951585976628,0.6036944963841032,0.7365086517007924,11.548194414769352,-0.05842492846170908,0.4846825167521985,-0.2938322062618152,533.12765951484,591.6407919120369,512.2753463281975,upstairs
12.621035058430719,0.790868497513602,0.40772914752035844,10.873637386365697,-0.2503661381363421,-2.301083420799043,-0.5795532015428616,524.3728170044784,430.8699097785994,489.0386570338729,upstairs
12.671118530884808,0.8103668643726929,0.7542569464825788,10.046243032271553,0.12484066634048187,0.7109879448635107,-0.40704861809821313,441.39247451507106,501.95045349562616,473.26580144533625,upstairs
12.721202003338899,0.9666504520732139,0.2760406809853769,9.934066282238224,0.8920663643058719,-0.452355434625854,0.546484255922182,440.4258953710731,539.752761851422,428.50713135263527,upstairs
12.771285475792988,0.34439384289201486,-0.19149576386093276,9.209164513886673,-0.17434907993324397,0.7707894013283684,-0.08345947856761099,566.3570968577903,491.8656863256195,542.8176153630435,upstairs
12.821368948247079,-0.006106763277997321,-0.501804762434684,8.502864205622783,-0.7918934521862274,0.14655205753649866,0.27613110851839134,452.8639988522417,527.0458136850307,519.3710137503468,upstairs
12.87145242070117,-0.32212344875878196,-0.63345975602738,8.182214901858485,-0.14143899999617707,0.6085306751034311,0.30908661834567974,527.9535432736674,495.76614185995305,533.6974504739385,upstairs
12.921535893155259,-0.7136403761468015,-0.5160230578442293,8.410007363297584,-0.7337142703389218,0.7053100547572408,-0.10883184747513562,554.6883139397385,482.13905560257774,430.7389257532991,upstairs
12.97161936560935,-1.3537560684413275,-0.8233639660320871,8.870895734874379,0.44329093100928685,0.30777620388988974,0.26935824659007224,534.6758080616062,565.7785378099505,561.2337186922709,upstairs
13.021702838063439,-0.6118594678326299,-0.4583221379146258,9.658459461265991,1.376812057518962,-1.2643850600475954,0.5428241795545201,486.0042518833152,524.977814065688,510.4031918586426,upstairs
13.07178631051753,-0.4773850351863468,-0.21207497316239537,10.36674208546221,-0.1298031784124286,0.08184302313072792,0.18274455405714787,447.97400652185763,516.1868082531151,495.9161560417516,upstairs
13.12186978297162,-0.21387979350185682,0.1581620727959004,10.691947988067463,-1.212249175104532,-0.47955890217848113,0.3196322452918572,566.3301660255282,517.7030670004182,487.1945187508302,upstairs
13.17195325542571,0.39313055363436555,0.5119956474024461,11.353175712666145,-0.3956889853823192,-0.3089105462052083,-0.0034410260363556652,497.6612170992039,506.6672365735034,566.9604455951289,upstairs
13.2220367278798,0.6517544307037547,0.8317203752429414,11.492284538334072,1.013259407155509,1.596237916095044,-0.8527614407914826,499.330178449976,461.19085144912657,524.1437345215708,upstairs
13.272120200333891,0.9955931815221258,0.8105639190130536,10.927627816481051,0.08547305392277921,-0.9573076521441185,-1.0064835752856103,452.4541198366441,546.3155273393415,531.2392468897644,upstairs
13.32220367278798,0.8053289213856932,0.3765475006534425,10.013997498809792,0.6406906320144719,0.42775630065323844,-0.5069908934232409,488.90020155512474,460.3676542682389,548.2392104984863,upstairs
13.37228714524207,0.868904256431968,0.27579986985537264,9.438735766092531,1.180436680164776,1.4482440251672006,-0.3526540166486856,513.568699220037,472.3893221453898,427.20925608472976,upstairs
13.42237061769616,0.0882040679615154,0.06931490909829707,8.91030838106286,0.547812927606207,0.8270761556646287,0.05985972344687753,495.6598162081068,447.4078000351799,521.2539695527995,upstairs
13.47245409015025,-0.42794250823427293,-0.18912895427677945,8.350023268966863,1.5394676652157502,0.7573044129149323,-0.031713260732138565,499.79631977839904,456.11315868932985,488.0944805737881,upstairs
13.522537562604342,-1.1603829337342657,-0.7223772518617142,8.291731928184074,0.11759031762695574,-0.7532195132810315,0.11395541483725272,524.2495202991295,524.2381654990626,492.2558277881745,upstairs
13.57262103505843,-0.5748869533886278,-0.323328069236981,8.628594128109087,-0.8977683358189558,0.4127843900346742,0.5414605266848614,539.3507210925166,568.0524653287304,507.4597800073074,upstairs
13.622704507512521,-1.2420773547743318,-0.6403752551154651,9.560707921992469,0.4378469021392986,1.077480413724657,-0.16530570715074963,511.89902729058167,529.0173933472843,565.6563964715385,upstairs
13.67278797996661,-0.40457140894243154,-0.38135885103935907,10.142137745393752,0.3555171422144409,0.3779059189476898,0.026319271320757415,498.3935519681996,536.3891259986519,484.17540082121303,upstairs
13.722871452420701,-0.5891460314349435,0.503682160685326,10.868132116609264,0.3574585095133215,0.18647001744774122,0.2162876245388038,545.1376704135984,467.7674116591039,452.0278821997724,upstairs
13.772954924874792,0.04585948386988971,0.3928089894206712,11.36488204933304,-0.6030558203361468,-0.15678929248483497,0.05073603527818793,477.95683827104295,502.7324813228697,462.4582155867845,upstairs
13.823038397328881,0.6729014675361679,0.6936009351115862,11.877123236860632,0.07304201327508904,0.7801733410520858,0.6894858782186837,555.157056044863,587.9894491585277,414.3159335278085,upstairs
13.873121869782972,0.6606003036355175,0.6692258777791509,11.140097350635324,0.2645582187809196,1.179614552492184,-0.13149019627059444,525.1958090388479,550.4618572253574,521.5472740118521,upstairs
13.923205342237061,0.6867254615098989,0.4711317472338977,10.56064950737672,-1.1786446190049398,-0.42916301421372327,0.37737329773818934,470.35996633800124,505.70168716324804,450.27691906729467,upstairs
13.973288814691152,0.8422081761814144,0.846455432527585,10.041643645605735,0.529076124732673,1.1044632625221387,0.7351624533836966,487.2562540668031,452.592820018801,512.1206739857053,upstairs
14.023372287145243,0.20976902871127545,0.19635043414761089,9.0794529835112,0.5053576344316304,0.8568567132589804,-0.5212008705517098,543.3560942530074,490.90521658891214,490.55462852876445,upstairs
14.073455759599332,0.2600655491163121,-0.26684874596578856,8.354464190699778,0.0986316452712818,-0.3296963028654089,-0.5620223297342491,452.27643229517537,489.7454943509486,548.4104490016903,upstairs
14.123539232053423,-0.3373611194202477,-0.3952167852557929,8.344361341790625,0.801705696192048,0.13544158399976192,1.2548248185646,565.9434220058155,551.1706649577353,529.8616006877135,upstairs
14.173622704507514,-0.5563146391474042,-0.7707804317281075,8.079424351361178,-0.5195229557188985,-0.45361948767068483,-0.874758847531482,504.4968894761445,458.0924505675159,570.8926016502232,upstairs
14.223706176961603,-1.3114413776577467,-0.5879284992068547,8.836507380054577,-0.9147996333454061,0.9066360560675331,0.5593701871303665,504.83330683836124,493.2130512602296,469.4453254873408,upstairs
14.273789649415694,-1.23989061182467,-0.14373624631008172,9.862732603715328,-0.5163490036892078,-0.04847133756071122,0.8267632075472753,538.0759829670865,570.8426452172583,515.1739807950947,upstairs
14.323873121869783,-0.6451060200111091,-0.048207890465063546,10.82838792227194,0.928955078309405,-0.13841415449662095,0.4423838705486537,460.62120545900916,489.73928750737804,467.4767557639419,upstairs
14.373956594323873,-0.17469312582669294,0.2661608134597283,11.478548459561111,0.49172737800184807,0.05403430086800377,1.590681088217004,549.4174870151382,448.56673790291904,492.31606975616154,upstairs
14.424040066777964,0.19621052633647895,0.3898523394588139,11.69881194127404,0.9878241759506803,0.1698194395321713,0.10510307060575697,480.5862986825837,570.3407334961512,555.9767246987054,upstairs
14.474123539232053,0.6181140303948683,0.8054218621051754,11.164685874070827,0.6432813005748316,-0.11067313034835655,-0.5458852654911719,507.4792841656205,429.6233509321702,568.8777020332506,upstairs
14.524207011686144,1.0191740973817924,0.687162691899794,10.865686441437603,0.2424839689029436,0.42162827301095385,0.917194400295605,466.5449913744686,518.0170715894893,526.8831963985639,upstairs
14.574290484140233,0.8149120090238695,0.5807835252876343,9.926698823695682,-0.14819292725913077,-0.8221608550666906,-0.4740124191002704,462.9394381907563,537.6954438619924,510.4122728745743,upstairs
14.624373956594324,0.40282354857112407,0.34221675127852813,9.160922373984588,1.5721950088057306,-0.5522455833946283,-1.4839915141366047,463.8965602768346,438.29477586049995,414.2553572223439,upstairs
14.674457429048415,0.28650055802668195,-0.337187672291299,8.549534400621885,-0.5023723388413014,0.3290843647254098,-0.1034864557539431,554.0223637387838,511.3161532908571,483.92801403358965,upstairs
14.724540901502504,-0.5504059041372527,-0.2832962424584569,8.107555688285116,-1.3595523848864755,0.10349489084085034,0.7670137615964341,475.78174518860015,542.2293975130984,534.4867308906692,upstairs
14.774624373956595,-0.814127873253621,-0.6217088586481687,8.33195971819223,0.8619207062483112,0.041108686329768454,0.7367594465774934,507.52430957980187,507.1898643953442,494.8915978379905,upstairs
14.824707846410686,-1.3492973473898855,-0.3151756912490532,8.588199027099884,-0.6196670002804006,-0.1051546202309834,-0.1372818115646493,429.99479478425377,450.36180934524873,468.65011471476,upstairs
14.874791318864775,-0.7007956456022812,-0.5678055948341132,9.508436080576432,-0.024617128153565357,-0.4183451935898347,1.2155608124862312,502.1305594655338,493.0355980523631,501.68491633802086,upstairs
14.924874791318866,-0.4218574409047167,0.2908370682006831,10.372378828611213,0.3022237952023631,-0.6372645992589046,0.587861020215392,490.50404920504957,534.4275587236295,499.89216676069685,upstairs
14.974958263772955,-0.19673969860592083,0.32997364430826487,10.813514751344401,-0.34219821548753343,-1.5988942925037835,-0.7077716702186698,538.2852487562911,479.25945006554485,499.66908970073615,upstairs
15.025041736227045,-0.03401445354126964,0.647532163802319,11.487375986062085,-1.9196540071412351,-0.7503276002231726,1.0456382042695989,515.2039710145698,517.6999197312214,517.5596187442122,upstairs
15.075125208681136,0.7650911373146034,0.7514149253237434,11.199824738570618,-0.35617766320437644,1.277082172156614,-0.6748662514405733,462.98858146793,477.2310419540323,508.5709652081308,upstairs
15.125208681135225,1.2216964409931994,0.7022854482074337,11.337864974326527,0.9463306053908476,1.0746615724174333,1.1642706092321475,489.8617603323993,429.9654687010401,567.3731003771076,upstairs
15.175292153589316,1.3599892342694013,0.521956444659897,10.31127274936994,-0.4271666388387129,1.0701908270234484,-0.8073209763394988,500.294826267946,471.3042597894383,508.40674543864037,upstairs
15.225375626043405,0.8349153237417202,0.3094494844240418,9.585687990348909,0.41487524618124466,-1.054217798950188,0.3499506415172081,495.33861618421486,476.7788615204081,461.73988064474133,upstairs
15.275459098497496,0.5905136563302307,-0.11709562242344732,9.164613372605084,0.25753558158867074,0.7208741602006723,-0.9338890742804616,500.1791442880949,467.8467877873024,479.16375490182617,upstairs
15.325542570951587,-0.18726639941389261,-0.6207012874490392,8.318791357240432,0.7780728078361723,-0.8110674538088383,-1.0137929874804235,542.7132712850746,494.5866084330351,504.8655378028129,upstairs
15.375626043405676,-0.4961167178134502,-0.7477497087526093,8.215466219102987,0.6311384746671455,-0.2576523812668075,-1.2428712302850538,495.36518817505754,577.6142889102572,461.5181514387492,upstairs
15.425709515859767,-0.9976401303690212,-0.6553943696750104,8.775189043520678,-0.12690391796582465,-0.47684531975338923,-0.4970890536608721,476.59103075601615,471.8702732438208,512.0277673788007,upstairs
15.475792988313858,-0.9771774610429367,-0.17871755886991414,8.917328651392886,-0.33954038312219037,0.07330943785877715,0.04165050177457182,552.6347603026842,450.80702284790374,503.0011593601421,upstairs
15.525876460767947,-0.696134555019177,-0.5693496501319182,9.750423982537606,-0.1592123852899377,-1.0752401968666603,0.04462549557733877,509.28805083006904,372.3015378790231,510.11758206575223,upstairs
15.575959933222038,-0.5116095439565589,0.14259376045811986,10.779930547316305,-0.019445310663367486,-0.5043897741186759,0.4115349667446005,544.1685272383183,533.8246570485001,509.0504079445028,upstairs
15.626043405676127,-0.18927172410971205,0.6399784233491339,11.35324488970348,-0.8991750845127434,-0.6097776611001063,-0.5497797058294631,492.8222238332569,555.5743645335724,553.1436486960243,upstairs
15.676126878130217,0.29663313494374327,0.5281275421290644,11.003264912304482,-0.8055083512600519,-0.1879828537824682,-0.4272475797922647,435.5931377916667,477.4232167403058,517.061860322346,upstairs
15.726210350584308,1.0725279858241457,0.526156074761253,11.48388880713355,2.2739798812609893,0.7614929734679395,-0.28985017931300056,569.5130282456489,472.95079313012366,474.8111389134296,upstairs
15.776293823038397,1.0642641488660232,0.7352516709996577,11.06595626122159,-1.3954555359033716,-0.06442141935570121,-0.6556273986419658,509.2969326533869,524.067602354591,488.65244005177607,upstairs
15.826377295492488,1.0100650265014823,0.4470341930663969,10.789400330253631,-0.73929122224749,2.065073835565207,0.5651629903169066,451.99889206310587,539.0512460878883,496.29305889723133,upstairs
15.876460767946577,0.5237105289696276,-0.3467042775090923,9.49132439804481,0.6929475112009615,0.13950402991248043,0.23812683842638868,514.2927452473293,497.88099124546017,522.2540594071072,upstairs
15.926544240400668,0.11697479043242066,-0.2608525559340274,8.532778501413729,0.21779037341012197,0.010501870430192134,-1.86272159641232,500.0017438456384,471.852270013845,370.2014754626048,upstairs
15.976627712854759,-0.4216662845142446,-0.3583781858785949,8.336420547110881,-0.7343350854048055,0.04246095743452527,0.6990709788005298,452.4501001742468,581.9648507530326,466.44041208478694,upstairs
16.026711185308848,-0.756620500862532,-0.4373063102776115,8.10366272054384,-0.043969798803977965,0.28103401796760297,-0.9061723574424971,497.1851826839845,548.4171378939515,457.6685170482231,upstairs
16.07679465776294,-0.7120475563255466,-0.8746729082716094,9.09827757963618,-0.2236943034067399,-0.051384234371258906,1.0092213997953754,403.03778853800316,532.7110757192222,463.0726458841521,upstairs
16.12687813021703,-0.7521337290134068,-0.5600794206437862,9.098884352486559,0.3117621816361501,0.3166511753491372,-0.5374723996066584,538.3310754719295,467.5375968361093,513.4081253094326,upstairs
16.17696160267112,-0.9084683256586434,0.016846492241874372,10.185418075038301,-0.7375799279746366,0.13359888793310842,1.022662483238368,552.360923209033,495.5323216631386,506.0755430076989,upstairs
16.227045075125208,-0.14835152023474685,0.41543692325939574,11.068435553297972,-0.00042503220622538545,-2.0731823303659946,-0.9125551264369306,476.54627624909637,464.45696567937586,557.6646898245549,upstairs
16.2771285475793,0.3504920998830112,0.8027908354285844,11.568890723510444,0.029822605161412503,-0.23364869025322244,-1.0789397233564428,492.8660843838904,410.3539266853896,469.561124857014,upstairs
16.32721202003339,0.802913629815576,1.122448345576833,11.70087235247382,0.027519372916252918,-0.46729833666477466,0.10237438342311211,448.3394165708548,550.6965109238336,502.6766432285658,upstairs
16.37729549248748,0.953735022465264,0.5395958774580902,11.462217847942783,1.310754403622116,0.2619686834768803,-0.800824714816692,543.5107994487006,488.1267349615533,534.6222776106633,upstairs
16.42737896494157,1.0069926761295755,0.9919468102285405,10.744996687249916,0.07817978154569633,1.612737288563687,-0.03209915857071364,579.2446625327856,495.5801176692244,642.2396035390947,upstairs
16.47746243739566,0.5415139503593399,0.11062611005208892,9.804441280816057,-0.38779780347241827,1.0320945458927429,-0.30031238628946555,544.8425100608215,457.8025785544756,549.4417439492406,upstairs
16.52754590984975,0.2958437279832936,-0.08001492733970633,9.142395285829714,-0.4492661414406262,0.44228252290035963,-1.4155435953927513,530.9731050393202,538.257392737107,495.35091444364093,upstairs
16.57762938230384,-0.3367601832067356,-0.4554796401072356,8.196175101362918,-0.23393035151522443,-1.897848646367515,-0.09711527352210898,490.589003754399,471.31915592780695,513.2526121292783,upstairs
16.62771285475793,-0.7200960336204645,-0.7669994029477358,8.017883889331733,-0.4279023511731019,0.3728596521436198,-0.5228972786506818,558.0141116370299,523.9479254168676,494.3234477102171,upstairs
16.67779632721202,-0.8074548738459523,-0.6786688426052023,8.366963735998432,-0.41186792134295014,-0.29491801291754205,1.254986180568054,478.7120366204707,513.9424949270208,544.1590170457577,upstairs
16.72787979966611,-1.0118987336069307,-0.35808960126794936,8.861186977433954,-0.21265699717265601,0.9411696795449513,-0.7282748701102038,501.32398206510743,499.2142215002705,505.39044337376663,upstairs
16.7779632721202,-1.0561586687879907,-0.08601456960485729,9.505097458963494,1.1316266014358258,-0.6447844095585745,0.15465131198808357,531.0287603356945,532.3666369985464,481.8837318331969,upstairs
16.82804674457429,-0.4879803599846194,0.021246970154142487,10.24116915333043,0.8141667571011378,2.1840826193768996,1.119515820353243,450.72666893380506,462.8111690060863,544.3188001092823,upstairs
16.87813021702838,0.27131794681748833,0.4776894459432909,10.931481213726975,-0.11822896506607926,-0.41299537948387893,-0.3699107992711586,506.4388192735224,461.27174187294423,571.9099371577058,upstairs
16.928213689482472,0.48983322465082574,0.38577184923002683,11.345851434327042,-0.3101449949729705,-0.3392996080104977,-0.45259607498586624,488.30593763188807,483.52338349977606,447.0924360354239,upstairs
16.97829716193656,1.0952904280365021,0.6059768292112846,11.547007910241222,0.36453790649096274,-0.5451788448275768,-0.7648351066859899,522.2205844250615,472.88325683365093,533.8495006748792,upstairs
17.02838063439065,0.7780703056563905,0.43043634583428303,10.802005357412872,0.18244920176740473,0.18711379808971934,-0.018194068215780682,486.01647584780613,487.2537443536289,489.00998175113335,upstairs
17.07846410684474,1.210903592862676,0.3221364489435483,10.111417821429404,-0.7975863868724377,0.016567897719931026,-0.21006323354377043,504.2764853196766,534.8862616305105,628.7225357000821,upstairs
17.128547579298832,0.19604378209943074,0.2032459266133776,9.189142471574343,0.6077357000954534,0.6339182197892634,0.6124565238576706,523.1595490299181,507.50130559590195,448.80866661707006,upstairs
17.178631051752923,0.23525622657642475,-0.2871615906424512,8.613894174759789,0.39148696138270417,-0.5944225471488124,-0.4091611078421464,439.1741673721386,513.0829310564889,553.7830585163852,upstairs
17.22871452420701,-0.38351668012226636,-0.7436442541262742,8.26908153477269,0.3424221870215823,-0.23834846317504746,-0.3190062619479757,502.3569715365074,471.2510355925551,489.5544368644972,upstairs
17.2787979966611,-0.8119394474011196,-0.5896175943850492,8.14697605682176,0.9083321897236073,0.03654682710266908,-0.3335963218147212,489.15241885910365,525.7441593236257,596.4122512119836,upstairs
17.328881469115192,-1.0067519544703507,-0.9165934059372458,8.711183279936797,0.03596315293168119,0.3381252809210285,0.3472637505847728,486.6500872448926,453.71490912864044,521.2031504543612,upstairs
17.378964941569283,-0.855845388981947,-0.14948384187949443,9.291431458630505,-0.38558110582863037,0.01596750663110545,0.21652177134308442,454.83005488202593,490.1322211563707,579.9159235969141,upstairs
17.429048414023374,-0.5151244665115516,-0.1962928860956722,10.475364982720071,-0.7471184195025987,-1.0421471226679349,1.1768882544793204,429.91668533351145,580.3769438494264,450.983441230574,upstairs
17.479131886477465,-0.14344612748090607,0.4633499121744967,11.157607732536844,-0.5427376328733342,0.2356287099902072,-0.014715967038414204,525.0049785155622,500.07923381760224,503.58410259546923,upstairs
17.529215358931552,0.3579526093562287,0.4060267697783421,11.464679189725258,-0.7235771894525452,1.1568224750145462,-0.2610279386884187,582.2410085305401,476.4082149810621,508.26518512280893,upstairs
17.579298831385643,0.5674623213043251,0.6785751744764124,11.583348390580777,-1.5206907313162985,0.6722608348520387,-0.04203866234344001,502.0101158573542,529.9130369593413,447.7358904119953,upstairs
17.629382303839733,1.0132009712113317,0.46039751335026535,11.070121073758965,-1.0556747395737893,0.6068386304254908,0.10731772878928945,505.50537454725634,464.4801483728052,491.3854714645408,upstairs
17.679465776293824,0.9958757158879771,0.6235199508818285,10.106024747074803,1.4572644024495747,-0.9245775575432154,-0.15206303152752648,472.26798016211967,505.0699773953508,476.8958776844617,upstairs
17.729549248747915,0.8405128372396528,-0.11757225290168494,9.388272560210364,-0.152810014221932,-0.04306227931712905,-0.755809100804323,466.7197397432603,484.08672415145315,465.9853098137785,upstairs
17.779632721202002,0.4779865569347677,-0.26583456553255974,8.903545274675947,0.0012769407123869208,0.39385621306882895,-1.9206117940571652,544.9896075852404,475.9136956657279,495.0419902118903,upstairs
17.829716193656093,-0.2954379494583,-0.5521045460227929,8.058525958713489,-0.44490346779226503,1.3681708540513144,-0.8551606931996675,502.5412880050114,509.2292037847781,486.96667798067796,upstairs
17.879799666110184,-0.5520399731330798,-0.9710580470944565,8.336503531960131,-0.20794080718622424,0.8074533458055931,-0.06298908487190334,555.6262329045967,451.84936145044514,517.1062237579832,upstairs
17.929883138564275,-0.8279408987019403,-0.7508646241227308,8.543086274043999,-0.868074254724828,0.6719411420389261,-0.38605460219961,550.4168170619535,526.7321687052998,431.6497674615821,upstairs
17.979966611018366,-0.870657953333632,-0.6617604540684903,8.930286725551483,0.4240701941763042,0.5864767940687649,-0.05207078993508917,431.68477511451437,490.67845750761177,491.0134276511696,upstairs
18.030050083472453,-0.9115110341043529,-0.35766776441004783,10.0229504930157,-1.399006259940963,-0.22868550108270866,0.7772708716354955,519.9127118781023,494.82081713094976,537.5226272199204,upstairs
18.080133555926544,-0.7677914112701674,0.011009021320214606,10.515748136179791,0.36141525421630555,0.43902049188523273,-0.35242086232925723,476.95616805300335,622.3920940107253,459.78974823762644,upstairs
18.130217028380635,-0.5034143587189368,0.15804351144942339,11.12563287091162,1.15484778310952,0.2597867057332905,0.010353251825449125,482.6186583087452,535.7588772076616,499.75089353171046,upstairs
18.180300500834726,0.19850460095289668,0.5528729797224845,11.25408048579279,1.3547106949420846,-0.24543952620286766,1.0109367490966272,460.50373336071925,552.8899057138331,520.6287314389518,upstairs
18.230383973288816,0.6829904401667968,0.6310464946536762,11.373617007792785,-1.2100410869093108,0.30246730799467914,0.3342702095103698,492.786339983944,564.3628540625929,515.3253451283659,upstairs
18.280467445742904,0.9667718344022737,0.48505290843211335,10.748977699565984,0.8199485190666383,1.4354378304739923,-0.5534684224490035,524.2677730774882,475.4626785023548,547.8364359798912,upstairs
18.330550918196995,1.1118505546158117,0.16005266898019532,9.97144294211039,-0.05064777160885436,0.8731271704728343,-0.15543709232304673,526.384997987947,467.86796818460545,491.2427958222873,upstairs
18.380634390651085,0.27122168938056807,0.1468951472653188,8.738874036844738,0.37091355624342554,-0.21067808147764164,-0.6683146037393596,545.9013653443327,460.4186038005123,466.8743000962291,upstairs
18.430717863105176,0.03166990340251426,-0.22317298204744251,8.45659365768439,0.16903577843394216,-0.965668356960115,-0.3783705831906277,529.3699732406023,527.9636865586438,566.8377348430739,upstairs
18.480801335559267,-0.7480714356266251,-0.6239456188752099,8.202607422240881,-1.0488398434801236,0.4881115150763087,-1.0402268364299143,469.8569232211893,457.3999423840412,423.8372464884352,upstairs
18.530884808013354,-0.5181078134931318,-0.9020538410157368,8.394389416262696,0.6910996068308253,-0.7285377245316926,0.10352397220610302,529.4215583081229,455.7481382550131,440.9552567603889,upstairs
18.580968280467445,-1.0213916663294977,-0.7961449319848592,8.52924401371338,0.3959200832112472,-0.26595814548643826,-0.21868818285754363,508.3371674314615,581.6550855284216,564.965094048997,upstairs
18.631051752921536,-1.5186470831706322,-0.33631396157229837,9.112723764208765,-0.8919880330910867,-0.3477475545802061,0.17603632694010415,402.37690688223483,532.7901753653979,541.4682511222793,upstairs
18.681135225375627,-0.7498240884453546,0.22914362175702943,10.050314946793968,0.12723115466887164,1.4919887325128711,0.5551201373298058,529.219082974695,494.45016753065374,561.8275068979206,upstairs
18.731218697829718,-0.17792763893138033,0.3734419474291,10.618199169248024,-0.005749845620675807,0.2982228244164756,0.24024382460176283,483.82059609478387,514.7016124336704,524.3601032263759,upstairs
18.781302170283805,0.17255941616238635,0.54220156780067,11.680438531549685,0.968801935477592,-1.232807460020512,-0.3626656762137946,493.8581065281796,397.5248804380861,417.4221606336174,upstairs
18.831385642737896,0.49419166268841824,0.8370279642403777,11.198587891594071,-0.7798577777017826,1.088112358361052,-0.0873272789881563,482.3956333809887,502.04253792095926,467.70512838941755,upstairs
18.881469115191987,1.1068970949323238,0.6444185857593236,11.114445464720783,0.29848113086518113,-1.143640135875754,-0.5723558192916214,512.3911628425184,552.6323019832762,522.8010551950309,upstairs
18.931552587646078,0.25778130117049347,0.5814927258820499,10.400722841252835,1.3806889357546828,-0.5809488407616958,0.5537969619492857,537.2593879982951,546.4343009611588,422.82331696896824,upstairs
18.98163606010017,0.5893426824620561,0.3775956456954925,9.620486943258156,-0.1494116387599211,-1.296602375586085,1.1429514377738295,510.37581426303865,513.9327386951203,546.5798929542502,upstairs
19.03171953255426,0.22601410031642205,-0.37546308236007436,8.445954364198052,0.16316923297248134,-0.9864088917821652,0.4704053805969531,494.6310405392806,515.7669670844381,504.25391320191693,upstairs
19.081803005008346,-0.3712326356212887,-0.4626179667151095,8.332289546605745,-0.516048750788444,0.016212765078493546,-1.039019779699829,498.5295291739597,521.8667127322819,551.0610731918472,upstairs
19.131886477462437,-0.49197156847037793,-0.7169826916561544,8.251474868204907,-0.21100455397773432,0.8216549920526522,-0.5360110829341,468.004319535444,461.39616145246987,577.1205282292917,upstairs
19.181969949916528,-0.6482446790319898,-0.8120132259538606,8.439835305906618,0.14344431502684618,0.9736995819893176,-1.0835931241612553,505.88614093311907,491.09426333868555,490.05670802734875,upstairs
19.23205342237062,-1.1703654299750632,-0.7197006181194925,9.23204784180842,1.355762886653168,-0.39426286356268275,-0.31537644231101963,525.655403169503,518.0388763403201,505.36161335267303,upstairs
19.28213689482471,-0.9392483430342232,-0.2618337035354824,9.487626707808092,0.8390812684508977,0.2683120705043734,-0.3041181979438491,455.0858407299477,514.1418926715444,492.73231212556846,upstairs
19.332220367278797,-0.4957720399998038,-0.2257496942188123,10.684931985413787,0.9800535059321723,-0.23125844141647042,-0.011933316452144226,523.4329674440997,391.4314449041224,504.1632974156471,upstairs
19.382303839732888,-0.001660426729752723,0.7173058107139416,11.01605498727967,0.05820462184260734,0.4395862577688302,0.2665981629797294,425.9925136683025,510.7758720515948,509.3816950303363,upstairs
19.43238731218698,0.5763753088421556,0.7615807689490306,11.470561525526861,-0.6508732519141973,0.4280439996900422,-0.19042782414088053,561.1564468101185,485.38458463328107,509.1642960020806,upstairs
19.48247078464107,1.0541704128304512,0.7465811367365447,11.136793968502262,0.5609203120908489,-0.6173569222641314,-0.2792445037109693,457.40197422001,612.1545612925702,445.4920483158941,upstairs
19.53255425709516,0.8591095143145462,0.6498238494719903,11.155461671962051,-0.7486773297349475,0.020806269812707275,1.744770978222016,463.36219710043537,528.4545399126804,513.6704978758416,upstairs
19.582637729549248,0.8209322837247404,0.5301045284588826,10.467773032283612,-0.5771602060134902,-1.839503666835801,-0.4323528313356756,530.8165330525994,391.2882519858088,538.763317755555,upstairs
19.63272120200334,0.3152552012913157,0.022870807114433213,8.890054758062728,0.12464707865040875,0.4465391515096417,0.62289508944981,455.79340795466646,507.12265377401724,497.0454157724328,upstairs
19.68280467445743,-0.3136279939906411,0.18951847176769782,8.372177096711292,-0.6329376180282912,-1.1653487168272254,0.0899880088868068,450.26118117535384,517.7784672953838,485.10668993613655,upstairs
19.73288814691152,-0.46029962935359403,-0.7182757793559609,8.48046197367472,-0.11638306432056544,0.2606466855850965,0.608286340569599,500.53324574927115,478.1284256425075,537.2176176808205,upstairs
19.78297161936561,-1.1366192430042195,-0.2971597017382454,8.24644390432529,1.093360118836984,-0.04402960309018967,-0.6388399064712386,479.42248673680655,478.38224085003833,438.951036315566,upstairs
19.8330550918197,-0.7693374050033501,-0.47616990145485333,8.791669642073959,0.45316186594032826,0.49002333202898263,-0.1289406134961873,506.85068558436353,487.3773343103804,509.45194542221975,upstairs
19.88313856427379,-0.6465903828027884,-0.44761333124437114,9.567959021649486,0.09981305136349729,0.33232294175931376,0.6411037186628278,517.9068248722356,499.96291052788774,483.2811769642236,upstairs
19.93322203672788,-0.9223192874577841,-0.10002944579126949,10.652477135691969,-0.835561422940406,-0.05761604371598783,0.23327487431135474,520.0512764973689,541.9583056887401,497.4020761506399,upstairs
19.98330550918197,-0.09528746342265325,0.30327925780875636,10.933160853109827,-0.49223998468469365,0.42142964636967295,0.33044366663771096,477.5197693314153,531.7412113655955,466.3299375054847,upstairs
20.03338898163606,0.1424113319871506,0.21958681389688606,11.394943043343398,-0.8715901044718847,-0.84608376574117,1.2067456127261162,474.4624498794852,465.1821599013068,545.2600259014931,upstairs
20.08347245409015,0.6772786754244484,0.7107422874633684,10.975527381457638,-1.194786800460775,-0.537864321046325,-0.8702846128893528,500.64756793445923,471.46922314102324,539.8771921079968,upstairs
20.13355592654424,0.9979279011862653,0.7889330957222653,10.910964589892282,-0.49645329559974416,0.17061706783663536,0.8447145318126,561.5894415967316,498.3799901513038,543.8450131413841,upstairs
20.18363939899833,0.9702499961160039,0.5951120160225993,10.212758986123937,0.3714113430335865,-0.16114126547080007,-0.5765597996312565,468.9984175413654,447.035656055785,513.4129303221481,upstairs
20.23372287145242,1.31335745796465,0.35704364195061233,9.91801234496667,0.26571267740403043,0.5445912793297368,1.0049127327111331,539.6266120832881,555.9665971522196,483.0209340851382,upstairs
20.283806343906512,0.3765999954309174,0.08420599741026868,8.81959571053516,1.1465929813952958,-0.6271957913104957,0.8089432194905911,501.1458557242275,483.0964273240457,496.5014826943523,upstairs
20.3338898163606,-0.287683010713679,-0.38575903129083805,8.35330595631618,-1.2470065412432607,-0.500441375399494,0.7181819402540193,431.0694530154493,452.3519545628889,499.43074853305524,upstairs
20.38397328881469,-0.7187717604853359,-0.7840733692211175,8.2260769793028,-0.08208753860300266,-1.315707312644666,-0.3791849498606835,418.9808596451227,541.0020635595002,499.61804748036934,upstairs
20.43405676126878,-1.1001121457544312,-0.5216308888076344,8.380198211429533,-0.616298950580175,-0.044828708830123264,1.324096649241209,541.4649999258874,509.9458477953416,487.5641658333629,upstairs
20.484140233722872,-1.029183240847007,-0.6430185430668731,8.954202820067005,-0.3592019118820416,-1.071105542507956,-0.8013658520133374,479.50622752332663,491.24968143417124,513.2840703485085,upstairs
20.534223706176963,-0.36140155861578976,-0.2587758569376753,9.952703205545582,0.6146112150726184,-0.4977114063807064,-0.542278389108661,454.76303360326375,526.9934877586944,470.3890654587585,upstairs
20.584307178631054,-0.14771799722214612,-0.29906759201416877,10.656349106491279,-0.5434057567322266,-0.8444556539947455,0.7073302675521651,552.6035110496787,463.66058545475704,534.0367554525903,upstairs
20.63439065108514,0.31271255465384445,0.37064337552759713,11.023805767687605,-0.7032655101665108,-0.4123722664068643,-1.0381390482663164,451.84105421200246,416.631188191387,493.581606781302,upstairs
20.684474123539232,0.47485560840347113,0.48427859212855595,11.512452596649426,0.41916036441148646,-0.15555005025166613,-0.07666555798965989,528.6728993770005,482.9741972840588,519.560211354762,upstairs
20.734557595993323,1.2509366074986012,0.4216434994669242,11.026671063254026,-1.1152863545122493,-1.4658969564527005,0.14048495054745966,577.941967363164,551.5942153316121,488.80510411613847,upstairs
20.784641068447414,0.855658542930293,0.6646930391733299,10.59551134348672,0.5870350076940136,0.7336251890517574,-0.20311389341324246,546.3376957614579,501.57325823644356,530.9758391795327,upstairs
20.834724540901504,1.2589376768529172,0.3780451772392231,10.025380393432934,0.11278852790984463,0.8458909519267828,-0.3105396214692753,508.4602309276468,474.0017702023757,531.2709725647896,upstairs
20.884808013355592,0.5636542542122358,0.03420611417540934,9.007378849352566,0.10186615891912425,0.814853705159964,-0.3313328884988801,512.6265848958598,524.6571018562709,541.7652666820435,upstairs
20.934891485809683,0.02292580596777645,-0.7126184711511516,8.671352855826372,-0.4917512864090369,-0.5295664492164497,-0.7196049204866574,477.12639578129176,532.1359376543103,489.38584223314274,upstairs
20.984974958263773,-0.6193070874387565,-0.4312292355718814,8.374515160329839,-1.0651736549808335,0.7251339006362781,-1.0670168386878855,499.9866501020594,423.7358832754872,528.1205950067141,upstairs
21.035058430717864,-0.7713987637366121,-0.39871439770316197,8.089265976984281,-0.06987274155733,0.21556593964080167,-0.5447516681369694,507.1099417385039,472.38691643110474,559.2501344936059,upstairs
21.085141903171955,-0.8564971394406484,-0.5369174661427518,8.51085239726705,-0.16906836543982837,1.2376207902459533,1.1180086935314502,453.9429182081001,484.2071101018834,573.7697678123487,upstairs
21.135225375626042,-0.6888942253760215,-0.419346070204855,9.429805212197442,0.3132481548557997,-0.4488009330344169,1.2210012750932209,532.1698930435991,545.3982849217984,492.9103184727133,upstairs
21.185308848080133,-0.5239890053042278,0.07548739630424418,10.59443663662363,0.2523228246566446,-1.1222487091628328,1.0460965059646046,497.28159058373296,523.6836524621158,505.4542693859434,upstairs
21.235392320534224,-0.2424034560370153,0.35010267841205417,10.989346602849336,0.47824033054114473,-0.3661429738795588,-0.40453853327165,517.8468803412586,522.4531246252893,494.85556778727795,upstairs
21.285475792988315,0.35978799086625396,0.6327505892253824,11.327329362113785,0.2659075171837864,-0.05963020617150441,0.06278319096710627,484.6094670806146,454.38244970057883,522.8916037599492,upstairs
21.335559265442406,0.7003624078849955,0.8310390500094664,11.841438793788033,0.42607227807834464,-0.4205309743155026,0.3714479067983027,480.86258802326853,482.2834164764732,477.06772522024403,upstairs
21.385642737896493,0.6639656591210599,0.7907996167264912,10.598632749767763,0.5300624414407458,-0.011741706518020879,0.7415655223730921,518.4698101540619,578.1728159285423,538.694701141984,upstairs
21.435726210350584,0.6776906090288597,-0.00975083841509855,10.473972531771919,0.5881445550124231,-1.2930014868529218,-0.8412073174733212,549.4962907415354,497.5987303429215,487.70908201750535,upstairs
21.485809682804675,0.5220027509777834,-0.17769395338143934,9.86735856865162,0.4938572269785213,0.7778582733288621,-0.23269131946345925,563.5799551198662,411.3783124380151,546.7217204231564,upstairs
21.535893155258766,0.21487721778832303,-0.2404716792829465,8.821252405331965,-0.37495386534014224,0.4536564473485785,0.015886721636528645,459.4739018347169,424.8484223807086,517.7389836877206,upstairs
21.585976627712856,-0.2643802035978481,-0.8317139593251326,8.42562638052139,-1.4349239704457963,-0.32357081646306707,0.6532542040700515,555.6063265787681,501.35750740745425,569.8912878030576,upstairs
21.636060100166944,-0.7592191946723028,-0.3115316120741752,8.33292229888489,0.7710300022214808,0.12413683787448905,-1.1402485685864139,554.112215216483,494.85017227866234,575.4061412227371,upstairs
21.686143572621035,-0.9303745620562849,-0.7042947651238678,8.037744492494614,0.05329088411265184,0.13139608483254508,0.2822216863962658,519.753662664489,508.47807526442415,583.939992300107,upstairs
21.736227045075125,-1.0342854226552438,-0.7713999224248003,9.117059984593237,-0.2403558242350885,1.5090223580810795,0.711669249913538,517.4802403830271,520.4246390450813,459.50764803886494,upstairs
21.786310517529216,-1.221606563306929,-0.004753696761421955,9.666296321789131,0.32681481612970154,0.7391235658582118,0.06781937900706644,576.8763636700843,504.5637665022865,540.7208211601062,upstairs
21.836393989983307,-0.45184825443758225,0.191302748711405,10.733359062695145,-1.580656000510898,0.4615398309180889,0.12891222545295888,430.4386158227908,472.47434845494587,515.7844729618399,upstairs
21.886477462437398,0.18064364759087875,0.31256336674651386,11.137512914666425,-0.7986638431826747,-0.08498554365417588,-0.6751616348246217,460.8671611514037,545.0972165613452,542.3335413626658,upstairs
21.936560934891485,0.8650503228013013,0.7693276035708541,11.278822480657285,-0.348539894601395,-0.050263069590510454,0.11935589779439014,453.2195607985599,497.0710098777324,480.2685854472255,upstairs
21.986644407345576,0.8872996323181098,0.6707870540720571,11.095612959894275,0.2413881389286892,-1.5809984479588828,-0.37443698057453845,461.86395342312574,514.580459691449,513.2061511575081,upstairs
22.036727879799667,1.2952649765638624,0.9807598747700699,10.526025066993345,-1.8533631070232697,-0.5651890324519933,0.3579665765899136,566.7662497359432,483.6658255755264,542.33335448614,upstairs
22.086811352253758,1.133006727581394,0.2730061200941056,10.040923386328203,0.6728631372192607,1.4840980712374379,-0.1164930090112314,488.4188427022015,472.43175746478107,523.4637283235944,upstairs
22.13689482470785,0.44595870658189135,-0.3601444073720039,8.920632200644551,-0.6189248151636111,1.3849828773271027,1.0222639481574716,512.6100369518117,481.53154971276257,544.4703302396093,upstairs
22.186978297161936,0.3392257714978043,0.01070646289049515,8.539752892646149,0.6134026159986804,0.7767089235745767,0.1972565802031738,546.6473434518971,481.9235339486308,561.6202692378585,upstairs
22.237061769616027,-0.3045213579269852,-0.5643703216163571,8.129462001662192,-0.782744801667798,1.0596224849043634,1.082833890830625,535.3270831285464,508.0010520442517,498.0356964675416,upstairs
22.287145242070117,-0.8974526185388254,-0.7978296413008543,8.526216566148904,-0.1680589002879919,0.6443803832429154,-0.8769720034034434,489.9085625133951,534.5619369008697,484.85106803708834,upstairs
22.33722871452421,-0.9975166216235277,-0.7472026447035978,8.582015954444197,2.021776681848029,0.5429074588083578,0.25722740100373187,454.121990101382,558.3374883307278,500.767053069846,upstairs
22.3873121869783,-0.5414460225974053,-0.6781306521203787,9.470839607156252,0.2587972075069397,-0.2550151703653626,-0.1580952547258855,520.9183497122007,522.2020880137466,528.1331439605557,upstairs
22.437395659432386,-0.5042414431926652,-0.5430659957024087,10.410142053077394,-1.395886413731138,0.47715789030908334,0.10800099576508673,574.2308649209155,488.7701074888305,469.6367157865462,upstairs
22.487479131886477,-0.5647037345843142,0.1739697227225948,10.88260666033635,0.7397871324875044,-0.07968579503681222,0.9588841538667218,518.0614983243798,471.4210311297959,450.6783438107779,upstairs
22.537562604340568,0.5626422114083115,0.15501192625814897,11.433755479611486,0.0987961540543451,0.16989685322335663,0.21718204670576166,526.7797138244035,493.4871220399918,550.3552951672126,upstairs
22.58764607679466,0.6408366678725832,0.5922875817622177,11.55349147821724,0.2401963163895213,0.031092028077602776,-0.8778285700499314,464.6039159563224,574.0774804170089,511.8806788400368,upstairs
22.63772954924875,1.2429347085900613,0.9241640397241258,10.856999233188436,-0.6354302671415797,-0.2793619517848045,-0.13730651304273103,512.4839143788998,452.513298846922,446.3183539867834,upstairs
22.687813021702837,0.7578189972247549,0.6383669428538876,10.34458172232553,1.0651827115272852,0.216305115571787,0.8456143158835119,468.1064734919123,484.1573125334808,473.2249507574742,upstairs
22.737896494156928,0.6747493799116114,0.2516052163052843,9.582580182107732,0.4396517466560482,-0.15704493732336855,-0.31312354423687094,548.4312873790428,465.54573149405564,501.30074371320353,upstairs
22.78797996661102,0.11361168674899703,0.21405341462477367,8.843629850369465,0.4000293088960553,-0.124480966364672,0.3015526421179938,537.9320819527021,537.2549029943062,516.6342203632062,upstairs
22.83806343906511,-0.45994400384438905,-0.6351417949374758,8.347614856069786,-0.49810418075936086,-1.2289157640135033,0.6141378357617756,512.9405571213276,552.5063357365218,507.3300776090812,upstairs
22.8881469115192,-0.6735226199803884,-0.7531043712713761,8.462275877243602,-0.927166483464004,0.10041649701146363,1.118626451368683,444.437878064899,540.3596183663957,492.9138755356403,upstairs
22.938230383973288,-1.0020237015880404,-0.5346316587709017,8.30706641147615,0.47048381031076986,-0.9762461683612176,0.27505813015373654,582.3029299314903,541.9400256002452,481.293207925851,upstairs
22.98831385642738,-0.6205945450396206,-0.6791235377685692,9.10372426354505,-0.16781718637651258,0.9269800949977222,-1.1606104067520167,560.7571934065761,458.3069764285582,439.2336117492465,upstairs
23.03839732888147,-0.6064427201595575,-0.23646949505169512,9.68557639608506,0.6253310640556268,-0.21459550823983142,0.8106010527143638,564.9572065388647,510.3871836693014,453.1470556256774,upstairs
23.08848080133556,-0.47080321005354664,0.07344115524664721,10.502015077184598,-0.2962000845866071,-0.5203877370584574,-0.9194606933163507,568.9279489039949,459.8029699853755,436.82476434726397,upstairs
23.13856427378965,0.12546163273001704,0.41985464366861,11.249459737536867,1.2156382960443846,0.3968318528531872,-0.7330991392660413,424.58135765463453,505.8407628722682,558.7627804502429,upstairs
23.18864774624374,0.45530389506321695,0.7343975714373572,11.439878567996843,0.609369897125108,0.20816412537282727,-0.10754972688814012,513.3406710953413,477.58309749666114,477.96668118767826,upstairs
23.23873121869783,0.853214628347664,0.615832982489751,11.250138867349452,0.9314123343163996,-0.3615844002009291,-1.0710876836479066,490.03069627809487,542.4465256516764,472.81268617529525,upstairs
23.28881469115192,0.9269156297498192,1.004988972427395,10.505120922444197,-0.42278233542479027,0.021411198211800757,1.03381686014507,468.51310972162815,556.7464248593949,473.3554499273966,upstairs
23.33889816360601,1.1753910197037847,0.7366206194445322,10.361175823883356,-0.14861869622452942,0.5556542981367676,0.28241603450863184,498.2716912988685,487.7690251791085,455.6229629186071,upstairs
23.3889816360601,0.26015713518823147,0.10614659917289204,9.186804120777456,0.12585566047831143,0.03590209156850004,-0.41181362947091843,466.7695311657018,466.97391722608273,529.0864061452147,upstairs
23.439065108514193,-0.0024630755769235874,-0.5292598499533188,8.557211718654514,-0.17870201453149348,-0.11659429593185594,-0.2884125479032888,551.4067491982619,491.32417757970495,472.7069890202569,upstairs
23.48914858096828,-0.3265285478314978,-0.48639555854879274,8.024899019092583,-0.3117549888155365,-0.3103004336270194,0.29362281112402716,498.9468619189533,498.6632960483201,429.71423289109794,upstairs
23.53923205342237,-1.09046010559265,-0.6595859276137475,8.364808718922214,-0.6675580051263552,0.14735907224148256,-1.7677084212318546,522.8209737518428,541.9923280181563,526.6961694292136,upstairs
23.58931552587646,-1.3311877870887638,-0.3021518181770328,8.531169563094947,0.6367849503679264,0.5528942281253368,1.2775286161039918,489.7635889020893,531.0815834063899,411.5462238547649,upstairs
23.639398998330552,-0.6283048711613479,-0.21636663374800952,9.386289244755528,1.1103402904496755,-1.1202667258975814,0.15238947063505975,504.9976341098318,496.48586531786447,491.8008309572412,upstairs
23.689482470784643,-0.5336660300404027,-0.015257569076392835,10.283877176829396,-0.628555010679132,0.39007643572886247,0.9285390377918661,523.3424881983536,493.78046798261386,467.2265635551459,upstairs
23.73956594323873,-0.03278323781963671,0.1075050374306008,11.170211924713279,-0.11054176663638556,0.1143865248767185,-1.3854579010843164,524.4880268175484,529.9462512897935,563.7581988727284,upstairs
23.78964941569282,0.46456140415780905,0.6153798808080553,11.337050335803633,0.47575596916197904,-0.35643222797743757,-0.26088107900311475,464.4422009143025,518.8549724214254,461.1900653008652,upstairs
23.839732888146912,1.0101798507936601,0.5110933660932966,11.605964398371686,0.27105065417591484,-0.30174373879763844,-0.4254765400945446,472.18305057715145,376.9347498791773,545.7601570695492,upstairs
23.889816360601003,0.8776124834041363,0.5089496482631191,10.858078001115992,0.24356757158959047,0.07231556554420784,-0.5090254908211318,521.663664945233,535.5408847915268,464.6013669538163,upstairs
23.939899833055094,0.9344747455536323,0.806967421510516,10.285478796113464,-1.1021812565809632,-0.4088013441465632,-0.8303552080979367,449.4977399298409,458.10797498371124,458.5458870337292,upstairs
23.98998330550918,0.5633619304781251,0.5013792926655232,9.485702191581538,0.333036252284647,-0.9302345556030756,0.6637551582730399,489.65651586885605,550.7306239306788,519.6693862114075,upstairs
24.040066777963272,0.565640296091766,0.11011052175931854,9.053763860058128,1.7878238575192056,0.1625735264565928,-1.7173620268310588,502.52640175164026,557.821034068034,502.04055402942663,upstairs
24.090150250417363,-0.34275995128031156,-0.6241911008372794,7.784430073649554,0.15155377564183653,-0.8771654750306279,0.5132661334924066,413.12646501699794,479.24116657461593,514.1646160626752,upstairs
24.140233722871454,-0.449542740676108,-0.6638293751379243,8.046080814882316,1.1160426906325,-1.0144985145144514,0.11424723345168607,492.26120959732157,540.4720893739403,517.5723662861616,upstairs
24.190317195325544,-1.0540615727170237,-0.9085352575724159,8.431469063614896,1.5445378542018144,1.658373792646081,-0.2180013998072331,520.1891795747955,500.54094937917375,588.6814190130475,upstairs
24.24040066777963,-1.1419281935681331,-0.6673598700487386,9.365990048877862,0.45918600005008814,0.2768371040020232,0.6864731428978644,533.6065691487936,460.27111175240856,532.8779085231422,upstairs
24.290484140233723,-1.0804213797284543,-0.4962860845132207,9.923299652646392,0.39094277260489246,-0.4772579446653882,-0.39690639842779185,493.40781945116476,514.0983257820023,466.26203058433816,upstairs
24.340567612687813,-0.043245866833801105,0.19070835654394475,10.476485505563401,-0.12208184490950318,-0.03665100110902074,-0.6122336958327518,473.8506408128402,508.45930670936406,443.8515667181472,upstairs
24.390651085141904,-0.21396757558649115,0.460124028111577,11.353184475564468,-0.670773397945098,0.25717943485729094,-0.5709180052036018,528.5346078761231,579.8516446580254,513.0982298544926,upstairs
24.440734557595995,0.4416214258193784,0.7248264701997293,11.794980478035503,0.16512930338926265,-0.18074056537108701,0.6614162304336335,475.27706853288635,500.96867968450675,510.67820462485474,upstairs
24.490818030050082,1.0125009506543998,0.896409971849436,11.114514073839132,0.389558212363473,-0.7401468142578794,-0.006253091581742923,528.7791129287679,635.2669363138157,560.472660412242,upstairs
24.540901502504173,1.1065553907289032,0.740413223985871,10.693076992474081,-0.6388930006294776,-1.2202547450574568,-0.3915389185148214,484.95064909414543,542.999164922454,462.3975440651638,upstairs
24.590984974958264,0.2812482111430532,0.17852761468099052,9.972129433947469,-0.497872596482806,-0.12604266109889029,0.49388889795028307,515.7302955175044,420.1336307850316,439.1349538079115,upstairs
24.641068447412355,0.27478286862166923,0.033593835554091775,9.026880178549183,0.3572216529707155,0.29290038809664815,1.2438976124483256,493.4980886609502,500.61209809290284,504.99334502855606,upstairs
24.691151919866446,-0.048321794493842364,-0.26490082419072003,8.509640474343302,-1.0996254369794023,-1.6674123957787932,0.7077396641560186,569.2066747526993,505.78275225395754,500.32097105230685,upstairs
24.741235392320533,-0.6757593872410766,-0.48759255261175355,8.12744338501919,0.8591569028845955,0.2327408871252414,-0.5314826299376484,420.1207174663898,463.57410620271503,503.0582253460084,upstairs
24.791318864774624,-0.6872637214267385,-0.7771215329073276,8.445891349643656,0.6613859577942115,0.12727679927230662,-0.3027446586138096,590.2379833222327,499.80170642619294,473.63775864396,upstairs
24.841402337228715,-0.908362867431811,-0.4998805753972185,8.505261488146065,-0.045723232453333644,-0.23184698395031791,-0.7804970687580043,469.8062177423701,496.0171174668011,569.8889097225095,upstairs
24.891485809682806,-0.8041779674692114,-0.30755721657233287,9.765831961669667,1.2084981694426724,0.21876856410919313,0.18490223031655764,507.65234966715286,488.6534761317734,604.4338559678972,upstairs
24.941569282136896,-0.730640086519077,0.07456601074084365,10.43002417556253,0.8021317967437381,-0.8502666530704989,0.8320880741138428,482.46609313632075,461.91139879100535,511.50183684299674,upstairs
24.991652754590987,-0.3313732252808532,0.26329415391899824,11.165609367125693,-0.5280569811156831,0.4757237136581663,0.7242030440464022,501.44145460576453,467.8269155580505,460.60841815274426,upstairs
25.041736227045075,0.33066592978072784,0.583844104492174,11.441769005568204,-0.9333739588386706,0.7133265584453269,-0.5739957438617193,490.53217730252715,456.09862460032036,520.1610145069924,upstairs
25.091819699499165,0.9097594324376583,0.8720769853225279,11.382433279925753,-0.27019099735153845,0.17314129059636416,0.5377878144172508,459.0625420916191,504.87442843048893,489.22679930073747,upstairs
25.141903171953256,1.2765585658191267,0.2442795873499925,10.896360914384989,0.09742245391418544,0.2905427225977625,-1.0427412664377436,458.4579630198549,541.8073097533904,514.0717887184676,upstairs
25.191986644407347,0.8351826689397528,0.41912152268723946,10.354122399091116,-0.5874345737312417,0.6918804924754393,-0.7107944792010575,510.99595236904275,519.8559470555854,557.6785725137337,upstairs
25.242070116861438,0.9073866207150194,0.18135773502679375,9.364034871793203,-0.07673508379363245,-0.24549889948046688,0.2476935937989891,459.064825311813,488.0504769243956,487.55250858743415,upstairs
25.292153589315525,-0.2677202786971513,-0.03724725703414131,8.759781122383753,0.37768067337657046,-0.8789344319248849,-0.03519361504414828,515.7580515318998,537.6924831421667,476.5821773810479,upstairs
25.342237061769616,-0.07737110783611834,-0.7247562998512349,7.806605852806025,-0.4138997208831152,0.17824212916850932,-1.031748003325477,505.19554639885837,484.59779291326873,502.5490486203404,upstairs
25.392320534223707,-0.7007641308761787,0.10004667086808816,8.361292484576754,-0.4376818384056718,-1.1450278210494482,-0.2794186269660397,530.9289383414989,463.41241158299096,509.84122511327337,upstairs
25.442404006677798,-1.2025829041413487,-0.8721793879951576,8.331844652104463,-0.7387770236739448,0.07699171853640949,-0.4381740041072036,515.6198650687998,463.5429340249591,488.6861209990225,upstairs
25.49248747913189,-1.0815856704731002,-0.6329216671803257,9.301362002192695,-0.519561346030462,-0.41017904653414633,-0.013014005881008858,521.7885302236878,473.01493440482625,534.7385797443071,upstairs
25.542570951585976,-0.4787556230649734,0.32364012174646295,10.068476049376464,-0.40172509306733584,-0.49731821559578193,-0.7547105818162907,498.7274927208108,450.1867393323151,480.88337051236147,upstairs
25.592654424040067,-0.6105838109783757,0.09794569826402903,10.947138245039243,-0.5061765153107086,0.015923317159903746,0.5803178914025815,522.6841968683354,497.4115752198477,534.9865844579664,upstairs
25.642737896494157,0.44246289559141655,0.6564558272852548,11.329282549153987,0.28823480713580085,1.0658393410156313,-1.2080561944870032,462.4946514148734,550.882010347793,489.3608004840366,upstairs
25.69282136894825,0.8524459147555729,0.8053560277898326,11.176350848802802,1.0479512184108664,-0.47807795998287717,0.3949961618250101,446.2909797950443,457.8374886123324,542.2935299532428,upstairs
25.74290484140234,1.0127461634851798,0.6198443444743407,11.354611770700823,1.4500797197646786,1.029766484220584,-0.9072674353121528,509.5203347203288,517.8012207025819,586.0962004219143,upstairs
25.792988313856426,1.2627872625875542,0.4537487117840686,10.773576680289157,1.326456322477312,0.840959179320194,0.7390089808920662,423.45768540456294,503.33109783161825,548.038969885054,upstairs
25.843071786310517,0.7749989959620412,0.5209614639250864,10.196564186608066,-0.43092867374426497,0.4712922882808493,-0.12389575189457874,500.3555185898271,444.5852405361209,547.8841181103182,upstairs
25.893155258764608,0.2090502027257003,0.04626307905132664,9.264171391749327,0.07999951487058281,0.7612230840167605,0.16358675231239153,536.30042837753,500.504717361638,532.092108640496,upstairs
25.9432387312187,-0.13763173374880935,-0.3657208163547977,8.442547908170184,-0.008965391178354567,-0.5244382483896944,-0.06660287603393636,503.74184038426057,519.7444269382801,542.9772660217991,upstairs
25.99332220367279,-0.31464955615399026,-0.5583246186845008,8.211556459245973,0.3351285489038543,1.1189782877261794,1.6957488089391695,560.1699868556972,535.5370472061923,526.9637286769623,upstairs
26.043405676126877,-1.0295272578945474,-0.8070040854105802,8.644272520233296,0.17140262185865873,-0.8788302383794184,0.03744537398240413,437.1224695962295,481.27170792863626,425.02682484284475,upstairs
26.093489148580968,-0.8377677302877873,-0.42311922011489067,8.966892585030106,-0.3009963387247136,-0.6270582329937273,1.322800334945617,533.231493197729,527.6701615741854,522.1456216316012,upstairs
26.14357262103506,-0.9451184132942853,-0.7642696944244707,9.508185730113613,0.6514822753271183,0.1129512764160347,0.20655358752999667,489.2853853318989,499.9900546679768,496.6136908046648,upstairs
26.19365609348915,0.05311117236263731,0.023017831405585817,10.630402256083478,0.4636008553776953,-0.7553661204145696,0.22533463297454745,483.0483203596886,527.1007427443108,486.06610950359277,upstairs
26.24373956594324,0.1352307728964089,0.473011013366213,10.814162321531427,-0.0644706862736292,1.059415491786198,0.585551783076855,483.27914971747987,437.95762431067436,517.7915356683419,upstairs
26.293823038397328,0.6469814980085103,0.7367445592070416,11.220093194171959,0.8213498363357544,0.23051538711762065,-0.20849710656694326,448.1768876056126,432.43492676672923,485.5390352932679,upstairs
26.34390651085142,1.0244859360137297,0.872206722785257,11.559068154215646,-0.643601080571524,-0.48681082544621707,0.5754102152166233,475.23912965098964,459.4257467195674,485.0577532697211,upstairs
26.39398998330551,0.9343320714110582,0.7109718955684547,10.782591642333188,0.3847970558325185,0.46337160781616854,-0.26380951175679684,415.9548924126733,458.6678502190087,545.7636744324037,upstairs
26.4440734557596,0.9114255915259054,0.9465063169139223,10.005446260954601,0.5540398475960208,-0.06036019610486634,-1.8689058093695368,540.1363426307295,487.8770275605129,555.7321154564457,upstairs
26.49415692821369,0.928945102281043,-0.17560557800892132,9.434877563647184,0.7272067592378817,-0.45097806278305447,0.3164900728721549,547.0525290036151,469.64025380936994,472.42170070472264,upstairs
26.544240400667782,-0.00636243877677925,0.21614057597794373,8.720297812732092,-0.03461190338536817,0.08972509133329978,-0.9921164568827116,491.4162694520868,526.464649836443,450.11413453627466,upstairs
26.59432387312187,-0.1159162998040939,-0.21681079014994076,7.904246205043338,-0.8311010722239798,-0.6623960295251671,0.2309011046683507,507.2793230993996,458.1563128374575,557.7464060564675,upstairs
26.64440734557596,-0.4677010771531514,-0.708505243801677,8.160418147027338,-0.3429105150058615,-0.6347662834909044,1.6972740210136008,524.9406208918336,545.1250138676048,463.7057534697003,upstairs
26.69449081803005,-0.8374466702735577,-0.28842070574710355,8.649054317734226,0.05008885077870827,0.2514662486673125,-0.4127784964773721,441.8209187293843,530.9933167975929,485.2495011290971,upstairs
26.74457429048414,-0.8222604216046906,-0.5753979384313093,9.248289709359609,-0.008539784066274824,0.2751085839791949,-0.7909672193998158,494.4980517661872,475.15499619400344,455.4512365844396,upstairs
26.794657762938233,-0.8330251424380117,-0.2784314982678535,9.867452458382601,-0.7315849731795262,-0.7866673694115257,0.06782130910526794,548.9877516866294,500.41358031624816,493.518794264611,upstairs
26.84474123539232,-0.11703200876678532,0.19618268335507377,10.704910477402107,0.09406435941548899,-0.39659855556443047,-0.45091936228496593,417.2806152553645,552.1994057462829,516.3488828156549,upstairs
26.89482470784641,0.3428407656332859,0.45143430825727343,11.280590691700546,-0.6186905970650479,0.6542497836286963,0.49605931788965635,524.5301646876519,429.0909544146393,417.9831689360294,upstairs
26.9449081803005,0.5760785195104147,0.6478513874895402,11.412738470098907,0.6740014657612059,0.43103072719823526,-1.4082250199294741,471.53148115145524,504.91648423445264,448.06691220355066,upstairs
26.994991652754592,0.6476382558814676,0.686396873050156,10.950861086528835,-0.8838952369690652,-0.33835718081609445,1.1727364684095845,492.197025286946,517.21128480414,497.88867352362047,upstairs
27.045075125208683,0.7793553164103044,0.3894358366395025,10.709275276973742,0.19208218783295367,-0.5613950597912734,-0.6672044681826915,492.72460152557386,441.62675142904396,505.2967868892476,upstairs
27.09515859766277,0.9485424702784427,0.5120422010869056,9.9252307765029,0.2938713902352868,0.7098282867154778,-0.5969699939321098,518.4353073741768,458.5968341822522,546.6022318696771,upstairs
27.14524207011686,0.47140646318714025,-0.06919291486863521,9.059558521544627,0.1822949916330122,-0.05315052628494843,-1.1053339972778564,468.2711515498604,519.4449728121076,490.2318603424602,upstairs
27.195325542570952,-0.1788677466549052,-0.28965411428285914,8.240192011902398,0.921050786305923,0.5936280335522024,-0.5753618361889712,451.0815013107322,557.0325875827504,447.76088467806807,upstairs
27.245409015025043,-0.5390554325195995,-0.862916676993384,8.491173674888422,0.997358976208212,-0.500101103255856,0.4407752733138917,515.1203585202703,511.89116621516007,518.9178768309376,upstairs
27.295492487479134,-0.5873244659917426,-0.8482685814834983,8.791107778958807,-0.20583438093017356,-0.717056687337381,-0.6311181466092436,488.3701302911882,509.366581127328,446.91892833221596,upstairs
27.34557595993322,-1.2910956006575784,-0.6165677501281694,8.544940194390062,0.5536893964451789,-0.00694819674108374,0.3650065130882329,423.0282755253152,530.8512419869508,561.0697546803121,upstairs
27.395659432387312,-0.8809744650701286,-0.2871128112340156,9.260479055579797,0.34370886537619794,-0.8327226333348561,-0.03937910139301562,550.2304036994874,551.5980151186399,488.55977601259616,upstairs
27.445742904841403,-0.6031363789765689,0.01426646791533602,10.086042707226609,1.0760641667776394,1.37011477523854,0.1253597354070171,500.6380001688526,444.1484648878509,491.6801565527871,upstairs
27.495826377295494,0.2186628573485429,0.07961431996037174,11.10450757004488,-0.7539185331650498,0.11001591052864418,-0.584248938212222,460.1870037676851,509.5643784796667,537.9006335084997,upstairs
27.545909849749584,0.5564188119023361,0.256063807744089,11.663076477644948,-0.34740540665744185,-0.0896527321016846,-0.3351585937611806,529.7063219812857,460.9605191421833,509.74995366585557,upstairs
27.59599332220367,0.947909253793867,0.7946333684935194,11.431278543227426,-1.03839930928115,1.039055818807305,-0.37357011130975215,463.10977748449443,590.153189961654,490.0427700317443,upstairs
27.646076794657763,0.7256512724851665,0.8420143833608642,11.06178806146041,0.6770135998251913,0.3318001645927217,-0.32187553459928375,485.2452198148443,538.9870548210862,511.39580142563403,upstairs
27.696160267111853,0.8472813985209879,0.5419349243881431,10.597444067639321,-0.7715700533837377,-0.04361516931484236,1.7400865450891465,431.1597401260483,493.4388224959537,507.52647407223697,upstairs
27.746243739565944,0.682296724373441,0.4679515766739014,9.501863634562028,-0.601257072091838,0.7425991790734159,0.27977905789983065,526.1437908279452,497.6896110017248,514.4813886007856,upstairs
27.796327212020035,0.22120189799151269,-0.19519875113807134,8.663875288086011,-0.9210696415301942,1.22257007959079,0.4270699506078427,490.9003782407296,533.7202810025112,520.6521548402513,upstairs
27.846410684474122,-0.5386173000477428,-0.17637381357657678,8.478912578888426,-0.1467530478263113,0.6557347312196798,0.6440379690055629,481.1983411409228,509.3746193641936,539.0799301358084,upstairs
27.896494156928213,-0.835915945454184,-0.7362866221029707,8.048623605759385,-0.7595631415610512,-1.6898825296008628,-0.112256613361487,552.1582755074869,488.79786165444125,508.7759805537852,upstairs
27.946577629382304,-0.8019687694832708,-0.4415340732520214,8.448191538409748,0.1432123312057065,-1.3061180265763797,-0.16128006781898466,509.8754371180915,529.7124849616353,490.2350204122266,upstairs
27.996661101836395,-0.8271933206794037,-0.26661650991795666,9.25419807881614,1.1503685299303705,0.4715426263805862,-0.6219326619553036,509.38155611284793,525.2522407120925,452.31988602770565,upstairs
28.046744574290486,-0.5641063261371468,-0.4024209992413449,10.173246256955782,0.0758828408575468,-0.4468211862102538,0.5276016285519827,450.8758128572301,498.37112353502573,529.7607286525102,upstairs
28.096828046744577,-0.3784720561827582,-0.19035491319890618,10.94546010538638,-0.36377620198999494,0.5256754914733247,-0.3776710936577982,559.3796925522843,489.70628886245754,447.42397522991996,upstairs
28.146911519198664,0.11785978594700515,0.5183863565920364,11.278269562359878,-1.1033467803041177,0.08935557932498764,-0.04014040106190669,421.2251142958986,515.4432359252871,416.6335496099463,upstairs
28.196994991652755,0.5553187164874063,0.783114888948071,11.787856661704,-0.13431708961735786,-0.05980719560375894,-0.66814283685607,556.0656544188454,485.3197186186182,484.79836492191174,upstairs
28.247078464106846,1.3250430027496198,0.8414213530226187,11.27509098633209,0.19875218357884686,-0.08614806852754633,-1.408936732794072,532.6699106787096,472.8977335430345,481.15713018856064,upstairs
28.297161936560936,0.9622611221356109,0.5637695769585918,10.84066218537209,0.09486463933382551,0.4031301488512954,0.20042737071138716,445.90363806436807,452.5256784476627,498.92915632371626,upstairs
28.347245409015027,1.0091407554784886,0.3719527107328188,9.992838356138808,-0.6328458607651536,0.11126237974399558,0.167292490844923,533.8734091072379,506.36916196207073,532.0405545294523,upstairs
28.397328881469114,0.5382444312277109,-0.31746690472535977,9.186953398542416,-0.2828329984632295,-0.2014346617616961,0.7535094121560739,446.63781022683787,496.04210304910066,505.62135997861,upstairs
28.447412353923205,-0.45309579607936346,-0.41182732938284367,8.679055701753695,0.8031969654715739,-0.615724992227035,0.8057175486557683,553.2319303694264,460.68700810466595,482.8699445548585,upstairs
28.497495826377296,-0.26828847722700183,-0.41900219644492,7.9691907402597115,-0.5667298163082668,0.6849028624929413,0.300577929594872,483.4235555273597,427.6662561726241,516.1266901327057,upstairs
28.547579298831387,-0.8365015010397678,-0.7231288721474325,8.45779733633759,-0.31722870249110235,-0.2970854888853194,-0.01013061065138236,466.57564580119225,493.4710705695353,482.26539730058056,upstairs
28.597662771285478,-1.1727495145613034,-0.8363469980549318,9.016668350929631,-0.7559445164043493,-0.5906549740509944,0.9300412388747704,528.5819534943496,530.8133838604797,454.8257674028113,upstairs
28.647746243739565,-0.6012594701291427,-0.8166832688807399,9.92849049205238,0.8249764039596285,1.1066542462177351,0.014760683024902717,504.9704494586202,501.7605084624835,593.6862865283199,upstairs
28.697829716193656,-0.6745955733212043,-0.0541147368606347,10.329396950559609,0.38541432286073884,1.101731386599916,0.13533187923646095,445.7999354756712,540.1678803310491,501.27415853947565,upstairs
28.747913188647747,0.3592498478674952,0.1271520848849701,10.887604174301645,-0.3084828700268327,0.41453534670816894,0.27034718209306785,480.10802835336483,526.1618670430076,475.7585909934456,upstairs
28.797996661101838,0.274798355463294,0.5218249098145895,11.264383697127949,-0.38804169307238606,-0.4881084348131827,-0.57312178737396,585.9669360879855,463.5037171467554,455.77654441797284,upstairs
28.84808013355593,0.9043808094525958,1.000196872643564,11.183642667323875,-0.817265066798849,0.8961296971282527,-1.09484880563515,511.10897908362017,497.01721274890815,548.8053289558044,upstairs
28.898163606010016,0.9673971849246933,0.859367116632032,10.98439573629609,-0.08790145372167972,0.9107746813327364,0.012378041631369706,546.6117266453883,558.4297240632865,507.0582773654653,upstairs
28.948247078464107,0.9517576713108199,0.23365379501259573,10.036442432221886,0.8081375602613196,0.1649141526947901,-0.007628715985960528,506.46047047275465,469.51913908462166,514.457886504276,upstairs
28.998330550918197,0.8948735060096754,-0.1487777363236307,9.349594487036,-0.8489584000247802,-0.14712844548370613,-0.33743144109896384,488.74053811538386,507.22545557726636,464.5065675870853,upstairs
29.04841402337229,0.19939574965484458,0.03867631711453112,8.889324090483184,0.13126022754692698,-0.7982387091810319,-0.2978566335678172,460.6020876096867,533.0479104253092,484.24674159045463,upstairs
29.09849749582638,-0.3124443580590738,-0.4597183252757387,8.142463802752387,1.066421084122364,0.5770560984367741,-0.5488193323610233,506.0786918182601,516.7847882319421,617.6204121086317,upstairs
29.148580968280466,-0.8911976149861806,-0.9896504121043677,8.240814078261435,-0.04373213191990916,-0.45794624027650727,-1.1162798868375559,513.9640386064465,501.0000003210274,559.8151238980262,upstairs
29.198664440734557,-0.9946300597346991,-0.9588572287073851,8.717487788158705,0.31677197597714285,-0.8018106776576777,0.20147336513834735,486.67876873520214,485.24554551000926,483.2258070781093,upstairs
29.248747913188648,-0.9710166251769453,-0.20615010103157683,9.154706450244712,0.4680088342550837,-0.09818275989845726,1.7242517442974985,487.7457840051091,473.88100743107094,463.5212770608624,upstairs
29.29883138564274,-0.6729449077879557,0.15612775500780895,9.828489746598661,-0.7456265678220034,0.14910837441989092,-0.28335913516633093,486.563687117493,499.9642185856593,493.07190040101506,upstairs
29.34891485809683,-0.1705220405995624,-0.03872025708472268,10.787856247283624,0.5576520200654064,1.3300289591374033,0.867966791538874,460.8634243043953,467.5307217001916,422.47157174905675,upstairs
29.398998330550917,0.33143103664879037,0.4249497460928706,11.15876654241674,-0.6255318936944613,1.1304148427490925,0.245331561827141,583.4149845782417,485.62260932601595,540.1146512876014,upstairs
29.449081803005008,0.748105651987733,0.5378537788771725,11.468385548942418,0.022260767813057348,-0.8485409046976845,-1.2838561207833423,555.7806680774539,459.0229025944385,522.4764869430054,upstairs
29.4991652754591,1.0693694358116748,0.842107455207391,11.085602918724247,0.41747542463625625,0.2568540146430158,-0.6059776851151425,457.95126367785076,439.56297169015517,417.65705124902746,upstairs
29.54924874791319,0.999843108770052,0.6435289432672484,10.455130671565813,0.2697066339514674,-0.3514927919657812,-0.7451909157883596,504.58390242101524,561.763982419163,488.09506378820515,upstairs
29.59933222036728,0.36922068995222856,0.18920267699667442,9.423239152436716,0.0819569831883194,-0.8160060559925634,-1.9101535956143232,545.78571862808,509.2079867932362,490.2088816277862,upstairs
29.64941569282137,0.5731914750287022,0.022289245711678465,9.156177016593738,-0.1863256531598002,0.8149743241144844,0.08962492628731507,513.6187749412929,521.845539071347,432.86617528773417,upstairs
29.69949916527546,-0.11841179065847574,-0.3933355330705469,8.181954997560455,1.064305691159404,0.09197541853212811,0.1459872741155106,481.1529955858317,527.1544058601959,580.4864477983897,upstairs
29.74958263772955,-0.7810036760546135,-0.6942575248565828,8.276498479332593,-0.8873350639384636,0.5083566038311604,-0.8682192248077121,469.9571109199519,535.0996256598594,451.9716225919252,upstairs
29.79966611018364,-1.1718697021470068,-1.1237963863447797,8.440541425945558,0.5972419688996576,0.33244702720610425,1.2846868675111816,566.8490403175214,480.07602802003106,491.67531086656317,upstairs
29.84974958263773,-0.9673339225852442,-0.6276995860948458,8.956097333265603,0.3168532808777662,-0.018734550425664104,-0.5935634589418982,455.3649727324972,550.1771743462012,541.2537935849683,upstairs
29.899833055091822,-1.1520041337137992,-0.4122091877023443,9.420041418804148,-0.547855825999452,1.0189881063991173,-1.4091380960722149,475.5345575607727,522.3498332207785,501.8229924730555,upstairs
29.94991652754591,-0.5459681247438888,0.19959049836747794,10.525338014896828,0.1582326379059313,-0.3931772836267078,0.7579870691745308,441.97141355584523,414.26225551580535,510.85119124364365,upstairs
30.0,0.25917500388202397,0.6276465886227536,11.080558844150467,1.883306271513153,-0.22477458281664234,-0.08579685353222612,521.9708744190134,414.5119329341793,524.8117573846125,upstairs
