ax,ay,az,gx,gy,gz,mx,my,mz
-0.21205656281167568,-0.18694207260864862,1.3648033350810813,23.612306251175063,2.731855746897202,-5.646100735593686,-215.24807891197258,24.920000083529672,2.4585221610623265
-0.2581991628116757,-0.2157506726086486,1.3264733350810811,6.7649802511750625,5.831092746897202,-18.226256735593687,-215.24807891197258,24.920000083529672,2.4585221610623265
-0.3314413628116757,-0.1027135726086486,1.555233035081081,-59.173953748824935,-35.573488253102795,-7.073581735593685,-214.32807891197257,26.760000083529675,2.4585221610623265
-0.46034756281167566,-0.08904167260864862,1.5557213350810812,-63.65486374882494,-22.0162382531028,-6.730070735593686,-216.1680789119726,35.960000083529664,7.978522161062326
-0.5279745628116757,-0.11174677260864863,1.5652428350810812,-66.45639374882494,-25.069668253102797,15.392063264406316,-216.1680789119726,35.960000083529664,7.978522161062326
-0.4647421628116757,-0.09636587260864862,1.624813135081081,-62.47929374882494,-41.558218253102794,32.056183264406314,-216.1680789119726,46.08000008352967,13.498522161062326
-0.4085897628116757,-0.033865872608648595,1.7058681350810811,-53.273183748824934,-46.3292082531028,22.819543264406317,-216.1680789119726,46.08000008352967,13.498522161062326
-0.4288534628116757,0.02985482739135137,1.5989342350810811,-46.90677374882493,-33.397918253102794,27.025653264406316,-216.1680789119726,46.08000008352967,13.498522161062326
-0.44984956281167565,0.03791142739135139,1.4900475350810811,-59.341883748824934,-25.9704382531028,35.36916326440631,-217.08807891197256,57.12000008352967,14.418522161062326
-0.4483847628116757,0.026436827391351392,1.5230065350810813,-70.73883374882494,-24.092568253102797,48.60580326440631,-217.08807891197256,57.12000008352967,14.418522161062326
-0.40785736281167567,0.04132942739135137,1.5964928350810812,-70.44112374882494,-24.665088253102798,28.040923264406317,-217.08807891197256,57.12000008352967,14.418522161062326
-0.44276946281167573,0.1145716273913514,1.5742760350810812,-69.01365374882494,-19.5887582531028,20.895883264406315,-216.1680789119726,69.08000008352967,16.258522161062324
-0.47719326281167573,0.1150599273913514,1.5823326350810811,-60.99074374882493,-24.932268253102798,38.23176326440631,-216.1680789119726,69.08000008352967,16.258522161062324
-0.40004486281167567,0.1504603273913514,1.5698815350810813,-54.59380374882493,-27.0620382531028,47.60580326440631,-216.1680789119726,69.08000008352967,16.258522161062324
-0.3060507628116757,0.17365362739135143,1.5625572350810812,-45.83044374882493,-25.886468253102798,33.07909326440631,-215.24807891197258,80.12000008352967,18.098522161062323
-0.3004354628116757,0.18488412739135135,1.562313135081081,-39.60906374882494,-14.550588253102797,6.239395264406315,-215.24807891197258,80.12000008352967,18.098522161062323
-0.3871054628116757,0.19782362739135134,1.5442467350810811,-33.61670374882493,-8.352113253102798,-9.439994735593684,-213.4080789119726,86.56000008352967,18.098522161062323
-0.43739836281167566,0.20905402739135143,1.515438135081081,-17.677763748824937,-11.611655253102798,-8.218619735593684,-213.4080789119726,86.56000008352967,18.098522161062323
-0.42690036281167565,0.18976692739135143,1.5654869350810812,-5.799905748824937,-13.336846253102797,-10.462896735593684,-213.4080789119726,86.56000008352967,18.098522161062323
-0.4391073628116757,0.17145642739135142,1.576961535081081,4.436736251175063,0.6326197468972024,-17.928546735593685,-212.4880789119726,88.40000008352968,19.938522161062327
-0.4442343628116757,0.12629042739135138,1.5518151350810812,15.291696251175063,8.907431746897203,-22.859836735593685,-212.4880789119726,88.40000008352968,19.938522161062327
-0.45863866281167565,0.06061652739135137,1.5469322350810812,20.818416251175062,11.334911746897202,-12.577396735593686,-212.4880789119726,88.40000008352968,19.938522161062327
-0.42738866281167565,0.023751327391351384,1.5252037350810812,29.29169625117506,2.312008746897202,-13.409456735593684,-213.4080789119726,86.56000008352967,19.938522161062327
-0.43861906281167573,0.10382942739135137,1.5418053350810812,26.38329625117506,-3.229975853102798,-2.531597735593685,-213.4080789119726,86.56000008352967,19.938522161062327
-0.3341268628116757,0.045968127391351365,1.623836535081081,36.558876251175064,7.579181746897202,-29.264426735593684,-214.32807891197257,82.88000008352967,19.018522161062325
-0.3998007628116757,0.0567103273913514,1.700008135081081,36.841316251175066,17.1059017468972,-27.959076735593683,-214.32807891197257,82.88000008352967,19.018522161062325
-0.3983358628116757,-0.005301372608648602,1.707821135081081,50.658116251175066,25.754761746897202,-32.80640673559369,-214.32807891197257,82.88000008352967,19.018522161062325
-0.4019979628116757,0.021065727391351374,1.6670494350810812,51.474906251175064,28.044831746897202,-23.913276735593683,-216.1680789119726,75.52000008352968,17.178522161062325
-0.3543905628116757,-0.01848497260864862,1.709530135081081,49.43673625117506,25.6326217468972,-18.653736735593686,-216.1680789119726,75.52000008352968,17.178522161062325
-0.3216757628116757,-0.08562367260864862,1.717098135081081,61.23826625117506,28.922691746897204,-19.905646735593685,-216.1680789119726,75.52000008352968,17.178522161062325
-0.3006796628116757,-0.09416857260864861,1.6213951350810811,61.43673625117506,26.7394917468972,-22.363656735593686,-217.08807891197256,67.24000008352968,15.338522161062325
-0.2884725628116757,-0.0873326726086486,1.5469322350810812,58.19246625117506,31.2127717468972,-30.447626735593683,-217.08807891197256,67.24000008352968,15.338522161062325
-0.3060507628116757,-0.11589707260864862,1.5508385350810812,52.474906251175064,33.54865174689721,-40.94380673559369,-218.00807891197258,57.12000008352967,13.498522161062326
-0.3648886628116757,-0.1183385726086486,1.5410729350810812,47.49016625117507,35.708951746897206,-32.98197673559369,-218.00807891197258,57.12000008352967,13.498522161062326
-0.4022421628116757,-0.11345567260864861,1.5510826350810811,47.24589625117507,25.113531746897202,-10.058316735593685,-218.00807891197258,57.12000008352967,13.498522161062326
-0.33388276281167567,-0.0988072726086486,1.5098229350810812,42.535976251175065,17.0830017468972,3.9035172644063145,-217.08807891197256,47.00000008352967,14.418522161062326
-0.28432226281167566,-0.1105260726086486,1.4734459350810811,32.757346251175065,16.8387217468972,2.9035172644063145,-217.08807891197256,47.00000008352967,14.418522161062326
-0.32240816281167567,-0.1251744726086486,1.4514733350810811,31.222996251175065,25.441781746897203,-5.218620735593686,-217.08807891197256,47.00000008352967,14.418522161062326
-0.3477987628116757,-0.1183385726086486,1.4741783350810813,21.887116251175062,20.777661746897202,-12.119386735593684,-217.08807891197256,42.400000083529676,11.658522161062326
-0.4234823628116757,-0.1405552726086486,1.475643235081081,13.383296251175064,7.228041746897203,26.979853264406316,-217.08807891197256,42.400000083529676,11.658522161062326
-0.3314413628116757,-0.13225457260864862,1.4368248350810813,8.757347251175064,-1.9398992531027979,22.682143264406314,-217.08807891197256,39.64000008352967,10.738522161062326
-0.2772421628116757,-0.18181507260864863,1.453914735081081,5.490171251175063,-3.550586453102798,4.323364264406314,-217.08807891197256,39.64000008352967,10.738522161062326
-0.3065389628116757,-0.1852330726086486,1.4326744350810812,-3.9220427488249365,-5.184174253102798,-5.6308337355936855,-217.08807891197256,39.64000008352967,10.738522161062326
-0.3607382628116757,-0.18669787260864862,1.4524498350810813,-16.84570374882494,-1.642189253102798,4.781379264406314,-217.08807891197256,39.64000008352967,9.818522161062326
-0.3951620628116757,-0.21404167260864862,1.462459635081081,-21.036543748824936,-10.237609253102798,1.8806162644063145,-217.08807891197256,39.64000008352967,9.818522161062326
-0.38075776281167567,-0.20549677260864863,1.4661217350810811,-28.39532374882494,-21.1383682531028,7.529471264406314,-217.08807891197256,39.64000008352967,9.818522161062326
-0.3717245628116757,-0.19011587260864862,1.4414635350810812,-36.028913748824934,-23.3139482531028,5.727945264406314,-217.08807891197256,43.32000008352968,9.818522161062326
-0.3636679628116757,-0.21330927260864863,1.4514733350810811,-50.73120374882493,-18.115468253102797,9.300464264406315,-217.08807891197256,43.32000008352968,9.818522161062326
-0.3712362628116757,-0.2157506726086486,1.501522135081081,-58.265553748824935,-25.1154682531028,20.544743264406314,-217.08807891197256,50.68000008352967,12.578522161062324
-0.3456014628116757,-0.2172154726086486,1.5195885350810812,-62.55563374882493,-35.2376082531028,34.45313326440631,-217.08807891197256,50.68000008352967,12.578522161062324
-0.3275350628116757,-0.16277207260864862,1.4978600350810811,-68.70830374882495,-41.2147082531028,39.09435326440631,-217.08807891197256,50.68000008352967,12.578522161062324
-0.2376913628116757,-0.1581334726086486,1.5679283350810813,-79.08235374882494,-35.7566982531028,27.529473264406317,-218.9280789119726,63.56000008352967,14.418522161062326
-0.3746542628116757,-0.12297717260864863,1.5791588350810812,-86.67013374882494,-30.000968253102798,19.743213264406315,-216.1680789119726,75.52000008352968,19.018522161062325
-0.2081503628116757,-0.12468617260864862,1.5798912350810812,-98.27318374882495,-31.4284482531028,0.46076914440631456,-216.1680789119726,75.52000008352968,19.018522161062325
-0.21816006281167571,-0.15471547260864862,1.681454135081081,-99.57090374882495,-30.7872282531028,3.2241282644063145,-216.1680789119726,75.52000008352968,19.018522161062325
-0.1888632628116757,-0.1376256726086486,1.7224691350810812,-92.80754374882494,-35.9627982531028,-6.134650735593686,-212.4880789119726,88.40000008352968,22.698522161062325
-0.21474216281167569,-0.1503209726086486,1.7693441350810812,-82.73883374882494,-32.1154682531028,-19.455256735593686,-212.4880789119726,88.40000008352968,22.698522161062325
-0.24892186281167566,-0.14031117260864862,1.7817951350810812,-76.79227374882494,-33.9169982531028,-28.577396735593684,-212.4880789119726,88.40000008352968,22.698522161062325
-0.3204550628116757,-0.15202997260864862,1.787411135081081,-67.07471374882495,-30.6956282531028,-45.050686735593686,-206.96807891197258,96.68000008352968,27.298522161062323
-0.4234823628116757,-0.17790887260864863,1.7371181350810811,-61.044183748824935,-22.420818253102798,-45.24915673559369,-206.96807891197258,96.68000008352968,27.298522161062323
-0.4725546628116757,-0.21013537260864862,1.737362135081081,-53.60906374882494,-22.1002082531028,-18.668996735593684,-203.2880789119726,102.20000008352967,29.138522161062326
-0.3934530628116757,-0.1725377726086486,1.6946371350810812,-38.16631374882493,-31.558218253102797,-4.569764735593686,-203.2880789119726,102.20000008352967,29.138522161062326
-0.3248495628116757,-0.1644810726086486,1.707577135081081,-30.158683748824938,-25.466618253102798,-7.928543735593686,-203.2880789119726,102.20000008352967,29.138522161062326
-0.3602499628116757,-0.1639927726086486,1.696590135081081,-25.24265374882494,-14.817758253102797,-14.340756735593684,-200.52807891197259,106.80000008352967,29.138522161062326
-0.39369726281167566,-0.1720494726086486,1.6607018350810812,-11.647233748824936,-14.840658253102797,-3.653734735593685,-200.52807891197259,106.80000008352967,29.138522161062326
-0.3492636628116757,-0.17473497260864862,1.6321373350810813,-1.3571570488249367,-12.817762253102797,-5.501062735593686,-200.52807891197259,106.80000008352967,29.138522161062326
-0.3631796628116757,-0.1852330726086486,1.6509361350810812,1.5283392511750633,0.7165887468972021,-17.997246735593684,-200.52807891197259,108.64000008352967,28.218522161062324
-0.4652304628116757,-0.21404167260864862,1.6946371350810812,11.459636251175064,6.373081746897203,-10.882746735593685,-200.52807891197259,108.64000008352967,28.218522161062324
-0.49721286281167565,-0.1967076726086486,1.6865811350810813,26.986356251175064,3.0830017468972026,11.750843264406315,-201.44807891197257,108.64000008352967,28.218522161062324
-0.4652304628116757,-0.19402207260864862,1.723202135081081,34.039786251175066,5.670786746897203,30.124893264406314,-201.44807891197257,108.64000008352967,28.218522161062324
-0.4278768628116757,-0.2074498726086486,1.756405135081081,41.81078625117507,16.2127717468972,21.353903264406316,-201.44807891197257,108.64000008352967,28.218522161062324
-0.4364218628116757,-0.30168813260864863,1.773739135081081,46.26116625117506,30.960861746897198,4.9035172644063145,-203.2880789119726,106.80000008352967,26.378522161062325
-0.5572714628116757,-0.22478387260864863,1.8115811350810813,60.45963625117506,24.8692617468972,31.651613264406315,-203.2880789119726,106.80000008352967,26.378522161062325
-0.4134725628116757,-0.13933457260864862,1.816952135081081,67.97108625117505,25.9150617468972,48.25466326440631,-203.2880789119726,106.80000008352967,26.378522161062325
-0.2708944628116757,-0.1495885726086486,1.9690511350810813,74.49017625117506,35.296741746897204,32.64397326440631,-206.96807891197258,103.12000008352967,23.618522161062323
-0.2435507628116757,-0.11272327260864862,1.9495201350810811,90.72681625117505,56.0906317468972,10.498933264406315,-206.96807891197258,103.12000008352967,23.618522161062323
-0.2691854628116757,-0.1498326726086486,1.8848231350810813,103.29171625117506,60.357811746897205,12.132523264406315,-213.4080789119726,93.92000008352967,21.778522161062327
-0.2196249628116757,-0.1735142726086486,1.851620135081081,107.94821625117505,52.63262174689721,22.063823264406317,-213.4080789119726,93.92000008352967,21.778522161062327
-0.12856046281167566,-0.21648307260864863,1.793514135081081,116.23821625117506,56.54865174689721,18.079093264406314,-213.4080789119726,93.92000008352967,21.778522161062327
-0.11098236281167569,-0.22844597260864863,1.6643639350810813,113.52071625117506,59.94559174689721,6.010387264406314,-218.9280789119726,80.12000008352967,17.178522161062325
-0.15468356281167567,-0.24993032260864861,1.5571861350810812,104.59701625117506,61.189871746897204,7.224127264406314,-218.9280789119726,80.12000008352967,17.178522161062325
-0.14320896281167567,-0.2767857926086486,1.4946861350810812,93.20772625117506,52.65552174689721,9.827181264406315,-218.9280789119726,80.12000008352967,17.178522161062325
-0.10878506281167567,-0.2914342326086486,1.4885826350810811,79.09322625117505,41.83872174689721,11.712673264406314,-221.68807891197258,64.48000008352967,10.738522161062326
-0.07997646281167568,-0.31023305260864864,1.4561119350810812,68.81078625117506,34.518111746897205,0.5447385644063145,-221.68807891197258,64.48000008352967,10.738522161062326
-0.11586516281167568,-0.31731313260864863,1.389461535081081,52.887116251175065,24.8081917468972,-6.371291735593686,-222.6080789119726,54.36000008352967,6.138522161062324
-0.11952726281167568,-0.3700475126086486,1.3477135350810812,36.16192625117507,15.304371746897202,-2.646100735593685,-222.6080789119726,54.36000008352967,6.138522161062324
-0.13686126281167565,-0.3441686026086486,1.2866783350810813,15.787886251175065,1.8845277468972026,7.560005264406314,-222.6080789119726,54.36000008352967,6.138522161062324
-0.13124606281167567,-0.36492055260864864,1.3093834350810811,-9.097614748824936,-5.810128253102798,-6.760604735593685,-222.6080789119726,49.76000008352967,4.2985221610623245
-0.13539646281167567,-0.41179555260864864,1.3721276350810812,-31.68540374882494,-13.115471253102797,-14.180456735593685,-222.6080789119726,49.76000008352967,4.2985221610623245
-0.1976522628116757,-0.4059361826086486,1.4268151350810812,-47.395323748824936,-17.1460082531028,-23.142286735593686,-222.6080789119726,49.76000008352967,4.2985221610623245
-0.3075155628116757,-0.4166783726086486,1.4846764350810813,-60.12051374882493,-30.0773082531028,-5.264421735593686,-222.6080789119726,53.44000008352967,8.898522161062326
-0.2418417628116757,-0.34856313260864863,1.5491295350810812,-72.60906374882494,-48.947528253102796,12.529473264406315,-222.6080789119726,53.44000008352967,8.898522161062326
-0.1476034628116757,-0.2845982926086486,1.633602235081081,-76.83043374882494,-56.504788253102795,6.155425264406314,-222.6080789119726,63.56000008352967,12.578522161062324
-0.09999606281167568,-0.2477330526086486,1.709530135081081,-83.26555374882494,-52.596388253102795,-18.913276735593683,-222.6080789119726,63.56000008352967,12.578522161062324
-0.1944784628116757,-0.2408971226086486,1.7495691350810811,-90.87624374882495,-43.9627982531028,-38.21861673559369,-222.6080789119726,63.56000008352967,12.578522161062324
-0.3131307628116757,-0.2213658726086486,1.7991291350810812,-89.72357374882495,-47.1536382531028,-20.363656735593686,-218.9280789119726,75.52000008352968,18.098522161062323
-0.28700776281167567,-0.2042760726086486,1.835506135081081,-87.04418374882493,-51.9933382531028,-3.4934297355936854,-218.9280789119726,75.52000008352968,18.098522161062323
-0.5033163628116757,-0.1527623726086486,1.8760341350810812,-88.57090374882495,-63.611658253102796,59.00275326440631,-218.9280789119726,75.52000008352968,18.098522161062323
-0.3324179628116757,-0.18645377260864862,1.795223135081081,-69.10524374882495,-50.657458253102796,19.132523264406316,-214.32807891197257,88.40000008352968,19.938522161062327
-0.3368124628116757,-0.1483677726086486,1.7820401350810813,-67.38768374882494,-40.726158253102795,3.819548264406315,-214.32807891197257,88.40000008352968,19.938522161062327
-0.4022421628116757,-0.1915806726086486,1.7678791350810812,-68.57853374882494,-26.222338253102798,-11.890376735593685,-214.32807891197257,88.40000008352968,19.938522161062327
-0.4950155628116757,-0.1774205726086486,1.709286135081081,-56.83807374882493,-26.5276882531028,-11.730066735593685,-210.6480789119726,98.52000008352967,19.938522161062327
-0.45375576281167573,-0.12761587260864862,1.6433678350810812,-60.219753748824935,-30.7719582531028,30.850083264406315,-210.6480789119726,98.52000008352967,19.938522161062327
-0.3321737628116757,-0.10491077260864862,1.678036135081081,-57.44876374882494,-31.4971482531028,34.39970326440631,-206.96807891197258,104.96000008352966,19.938522161062327
-0.3404745628116757,-0.05779167260864859,1.6914631350810811,-36.257923748824936,-10.367380253102798,17.895883264406315,-202.3680789119726,112.32000008352968,20.858522161062325
-0.3216757628116757,-0.03313347260864863,1.6594811350810812,-19.204483748824938,-15.611658253102798,21.430233264406315,-202.3680789119726,112.32000008352968,20.858522161062325
-0.2735800628116757,-0.010428372608648595,1.6223717350810811,-12.883873748824936,-10.619288253102798,13.476033264406315,-202.3680789119726,112.32000008352968,20.858522161062325
-0.3001913628116757,-0.03557487260864861,1.633358035081081,-6.670133748824936,-0.8711972531027978,-5.279688735593686,-201.44807891197257,115.08000008352967,19.018522161062325
-0.37709566281167567,-0.07121937260864863,1.646541635081081,4.642843251175064,7.029561746897203,-11.050676735593685,-201.44807891197257,115.08000008352967,19.018522161062325
-0.4286093628116757,-0.08977407260864861,1.638729135081081,13.429106251175064,15.060101746897201,-0.6308337355936854,-201.44807891197257,115.08000008352967,19.018522161062325
-0.4081014628116757,-0.08147327260864862,1.6104088350810812,22.67337625117506,18.7394917468972,10.819543264406315,-201.44807891197257,114.16000008352967,19.938522161062327
-0.3592733628116757,-0.0729283726086486,1.6299401350810812,29.13902625117506,16.1440717468972,13.926413264406316,-201.44807891197257,114.16000008352967,19.938522161062327
-0.3163046628116757,-0.08928577260864862,1.6802331350810813,34.429106251175064,20.9379617468972,1.5752732644063143,-202.3680789119726,113.24000008352967,19.938522161062327
-0.3404745628116757,-0.09343617260864862,1.701473135081081,36.42146625117507,29.617351746897203,-8.119383735593685,-202.3680789119726,113.24000008352967,19.938522161062327
-0.4159139628116757,-0.018729172608648592,1.7864341350810813,42.28406625117506,26.9608617468972,11.392063264406316,-202.3680789119726,113.24000008352967,19.938522161062327
-0.3431600628116757,-0.12810417260864862,1.8745691350810811,56.36039625117507,30.686051746897203,11.720313264406315,-205.12807891197258,109.56000008352967,20.858522161062325
-0.29994726281167566,-0.1720494726086486,1.9370691350810811,65.39856625117505,36.0372017468972,6.758479264406314,-205.12807891197258,109.56000008352967,20.858522161062325
-0.3121542628116757,-0.2235631726086486,1.9214441350810811,76.29933625117506,47.8921617468972,4.208860264406314,-205.12807891197258,109.56000008352967,20.858522161062325
-0.3480429628116757,-0.2335729026086486,1.8259851350810812,82.74207625117506,48.43415174689721,17.727943264406314,-209.7280789119726,103.12000008352967,20.858522161062325
-0.28383396281167567,-0.27825063260864863,1.759090135081081,88.01689625117505,40.663151746897206,29.918783264406315,-209.7280789119726,103.12000008352967,20.858522161062325
-0.19740816281167567,-0.2596959426086486,1.6985431350810813,84.10085625117506,37.563911746897205,32.048553264406316,-215.24807891197258,93.92000008352967,19.018522161062325
-0.1632284628116757,-0.22966667260864862,1.7383381350810811,78.83367625117506,38.72422174689721,19.972223264406313,-215.24807891197258,93.92000008352967,19.018522161062325
-0.20155856281167567,-0.2833775926086486,1.7271081350810813,79.07795625117505,45.228041746897205,19.124893264406314,-215.24807891197258,93.92000008352967,19.018522161062325
-0.2445272628116757,-0.28240102260864863,1.6484947350810812,74.58177625117506,41.342541746897204,36.34626326440631,-220.76807891197257,84.72000008352967,15.338522161062325
-0.18398046281167568,-0.3121861826086486,1.5884361350810812,73.04742625117505,29.2738417468972,45.45313326440631,-220.76807891197257,84.72000008352967,15.338522161062325
-0.11122646281167568,-0.2928990726086486,1.5313072350810812,65.81841625117505,15.701321746897202,43.97985326440631,-220.76807891197257,84.72000008352967,15.338522161062325
-0.05898046281167567,-0.2738561026086486,1.4856529350810812,55.68100625117506,11.846361746897204,29.819543264406317,-224.44807891197257,77.36000008352967,6.138522161062324
-0.07777926281167567,-0.26653188260864863,1.4553795350810812,40.23062625117507,14.197501746897201,11.888253264406314,-224.44807891197257,77.36000008352967,6.138522161062324
-0.10414646281167568,-0.2682408726086486,1.4351158350810813,25.703906251175063,12.930331746897204,8.079089264406315,-226.2880789119726,72.76000008352966,1.5385221610623248
-0.11366796281167567,-0.2338170426086486,1.4290123350810813,13.932916251175063,-3.054403253102798,12.101993264406316,-226.2880789119726,72.76000008352966,1.5385221610623248
-0.09877536281167566,-0.2411412626086486,1.4094811350810812,1.9252852511750636,-13.252877253102797,1.6363412644063144,-226.2880789119726,72.76000008352966,1.5385221610623248
-0.14101166281167565,-0.2560338426086486,1.406063135081081,-11.944943748824937,-11.375014253102798,-9.707166735593685,-226.2880789119726,72.76000008352966,-0.3014778389376751
-0.1429647628116757,-0.2838658726086486,1.4336510350810812,-23.112883748824938,-21.5200482531028,-3.600299735593685,-226.2880789119726,72.76000008352966,-0.3014778389376751
-0.09560146281167568,-0.21013537260864862,1.4436608350810811,-39.418223748824936,-32.764328253102796,10.277562264406315,-226.2880789119726,72.76000008352966,-0.3014778389376751
-0.09047456281167567,-0.2037877726086486,1.5461998350810813,-48.257923748824936,-34.6498282531028,-20.333126735593684,-226.2880789119726,76.44000008352967,1.5385221610623248
-0.20009366281167568,-0.1957310726086486,1.5813561350810812,-58.219753748824935,-18.520048253102797,-45.91327673559369,-226.2880789119726,76.44000008352967,1.5385221610623248
-0.3243612628116757,-0.2340611826086486,1.6050377350810812,-64.67013374882494,-14.993338253102797,-28.730066735593685,-224.44807891197257,81.96000008352968,7.058522161062324
-0.3785604628116757,-0.2457799326086486,1.6458092350810811,-62.57853374882493,-36.9780682531028,-0.8751087355936854,-224.44807891197257,81.96000008352968,7.058522161062324
-0.3011679628116757,-0.21599477260864863,1.7004971350810814,-61.44876374882494,-40.886458253102795,0.2928302144063145,-224.44807891197257,81.96000008352968,7.058522161062324
-0.2848104628116757,-0.17497917260864862,1.7212491350810812,-69.86860374882494,-22.1231082531028,-7.959078735593686,-220.76807891197257,91.16000008352967,9.818522161062326
-0.30775976281167566,-0.1652135726086486,1.7415121350810812,-69.20448374882494,-13.878828253102798,-11.195716735593685,-220.76807891197257,91.16000008352967,9.818522161062326
-0.3241171628116757,-0.1759556726086486,1.7239341350810813,-70.44112374882494,-9.161273253102797,-20.210986735593686,-220.76807891197257,91.16000008352967,9.818522161062326
-0.2835897628116757,-0.16716667260864862,1.687557135081081,-76.18921374882494,-1.1689072531027977,-24.462896735593684,-215.24807891197258,97.60000008352966,14.418522161062326
-0.2899374628116757,-0.1759556726086486,1.6711998350810813,-76.41059374882494,-2.6421892531027975,-35.37129673559369,-215.24807891197258,97.60000008352966,14.418522161062326
-0.2884725628116757,-0.2003697726086486,1.679745135081081,-73.22738374882495,-8.268144253102799,-40.24915673559369,-210.6480789119726,102.20000008352967,20.858522161062325
-0.2630819628116757,-0.20964707260864862,1.7009851350810812,-76.41822374882494,-5.489518253102798,-45.51632673559369,-210.6480789119726,102.20000008352967,20.858522161062325
-0.3763632628116757,-0.24822134260864862,1.7192951350810812,-70.66249374882494,-1.1918082531027978,-50.035416735593685,-210.6480789119726,102.20000008352967,20.858522161062325
-0.4491171628116757,-0.19328967260864863,1.681454135081081,-53.79227374882493,-32.771958253102795,-17.974346735593684,-205.12807891197258,106.80000008352967,27.298522161062323
-0.2884725628116757,-0.1454381726086486,1.6848721350810814,-49.67013374882494,-33.1383682531028,-6.661368735593686,-205.12807891197258,106.80000008352967,27.298522161062323
-0.3040975628116757,-0.15886587260864862,1.6914631350810811,-48.50983374882493,-12.626922253102798,-21.447626735593683,-205.12807891197258,106.80000008352967,27.298522161062323
-0.3831991628116757,-0.14812367260864862,1.6680260350810812,-46.73120374882493,-8.214708253102797,-23.119386735593686,-201.44807891197257,111.40000008352968,27.298522161062323
-0.4017538628116757,-0.14739127260864862,1.695370135081081,-34.14341374882493,-20.3902782531028,2.1401582644063146,-201.44807891197257,111.40000008352968,27.298522161062323
-0.31557226281167566,-0.11760607260864861,1.698299135081081,-18.88387374882494,-25.558218253102797,9.544738264406314,-201.44807891197257,111.40000008352968,27.298522161062323
-0.2733358628116757,-0.11980337260864862,1.670955735081081,-16.792273748824936,-12.077303253102798,-0.09648273559368548,-198.68807891197258,115.08000008352967,27.298522161062323
-0.3282675628116757,-0.1486119726086486,1.680965135081081,-11.838073748824936,-0.42081525310279755,-9.615566735593685,-198.68807891197258,115.08000008352967,27.298522161062323
-0.3665975628116757,-0.17497917260864862,1.6943931350810812,3.230629251175063,-4.2986780531027975,-0.1880858355936854,-197.76807891197257,116.92000008352967,27.298522161062323
-0.3255819628116757,-0.18547717260864863,1.6990321350810813,14.841316251175064,-4.375013953102798,5.117257264406314,-197.76807891197257,116.92000008352967,27.298522161062323
-0.3477987628116757,-0.2716588426086486,1.7007411350810813,26.459636251175063,15.617351746897201,-12.913276735593685,-198.68807891197258,116.00000008352967,26.378522161062325
-0.4110311628116757,-0.2814244626086486,1.6746181350810811,33.795516251175066,10.350181746897203,3.0638222644063147,-198.68807891197258,116.00000008352967,26.378522161062325
-0.3709921628116757,-0.28679555260864864,1.6509361350810812,39.45963625117506,11.319641746897203,11.079093264406316,-200.52807891197259,114.16000008352967,26.378522161062325
-0.33388276281167567,-0.2806920426086486,1.7009851350810812,40.09322625117507,14.006661746897203,17.460773264406313,-200.52807891197259,114.16000008352967,26.378522161062325
-0.3080038628116757,-0.2682408726086486,1.7478601350810812,42.650476251175064,18.0601017468972,17.590543264406314,-200.52807891197259,114.16000008352967,26.378522161062325
-0.3585409628116757,-0.2650670426086486,1.7805751350810812,47.932916251175065,17.6097217468972,24.842453264406316,-205.12807891197258,111.40000008352968,23.618522161062323
-0.3175253628116757,-0.2531041526086486,1.7771571350810813,57.38329625117507,11.449411746897203,38.895883264406315,-205.12807891197258,111.40000008352968,23.618522161062323
-0.2696737628116757,-0.2675084426086486,1.809139135081081,59.13139625117507,19.647881746897202,41.55237326440631,-209.7280789119726,108.64000008352967,20.858522161062325
-0.2662557628116757,-0.2699498526086486,1.7788661350810813,63.56650625117506,28.4799417468972,33.033283264406315,-209.7280789119726,108.64000008352967,20.858522161062325
-0.2767538628116757,-0.2804479026086486,1.743465135081081,70.69628625117505,24.7013217468972,46.720313264406315,-209.7280789119726,108.64000008352967,20.858522161062325
-0.2201132628116757,-0.2733678226086486,1.746883135081081,72.77261625117505,11.510481746897202,62.811913264406314,-215.24807891197258,103.12000008352967,16.258522161062324
-0.1498007628116757,-0.27873891260864864,1.737606135081081,73.86421625117507,18.6173517468972,56.36916326440631,-215.24807891197258,103.12000008352967,16.258522161062324
-0.12660736281167567,-0.2870396926086486,1.693172135081081,70.99398625117506,23.441781746897203,46.659243264406314,-215.24807891197258,103.12000008352967,16.258522161062324
-0.09169526281167568,-0.2963170426086486,1.638729135081081,72.02451625117506,22.4265117468972,30.201223264406316,-220.76807891197257,99.44000008352967,9.818522161062326
-0.09535736281167569,-0.31389516260864864,1.5933190350810813,64.07795625117505,23.8081917468972,11.514203264406316,-220.76807891197257,99.44000008352967,9.818522161062326
-0.12929296281167568,-0.3302525886086486,1.540584635081081,50.13139625117507,29.1822417468972,-2.6537347355936856,-225.3680789119726,92.08000008352967,4.2985221610623245
-0.1439413628116757,-0.3480748526086486,1.5061608350810811,36.13139625117507,26.5410117468972,-0.38655903559368543,-225.3680789119726,92.08000008352967,4.2985221610623245
-0.12416596281167568,-0.35710805260864864,1.4829674350810813,29.505436251175063,15.800561746897204,-9.249154735593685,-225.3680789119726,92.08000008352967,4.2985221610623245
-0.11928316281167568,-0.36443227260864863,1.477108035081081,15.780246251175063,11.777661746897202,-14.745336735593686,-227.20807891197256,86.56000008352967,3.3785221610623246
-0.1278280628116757,-0.3400182136086486,1.4578209350810811,0.7039112511750634,11.334911746897202,-16.554496735593684,-227.20807891197256,86.56000008352967,3.3785221610623246
-0.1512655628116757,-0.3483189926086486,1.4587975350810811,-9.227386748824935,1.3272757468972025,0.5371050644063146,-227.20807891197256,86.56000008352967,3.3785221610623246
-0.06801366281167569,-0.3131627426086486,1.499813135081081,-20.59379374882494,-12.313945253102798,4.476036264406314,-225.3680789119726,84.72000008352967,6.138522161062324
-0.05360936281167568,-0.3156041526086486,1.5601158350810813,-31.456393748824937,-10.932266253102798,-18.478156735593686,-225.3680789119726,84.72000008352967,6.138522161062324
-0.09389256281167567,-0.32585805660864864,1.5845299350810813,-36.57853374882493,1.2204057468972018,-43.050686735593686,-224.44807891197257,86.56000008352967,10.738522161062326
-0.2049764628116757,-0.31023305260864864,1.5820885350810812,-44.94494374882493,5.006665746897204,-40.99724673559369,-224.44807891197257,86.56000008352967,10.738522161062326
-0.2298788628116757,-0.3407506356086486,1.5747643350810812,-46.73120374882493,-13.092571253102797,-28.989616735593685,-224.44807891197257,86.56000008352967,10.738522161062326
-0.14125576281167568,-0.3463658726086486,1.5899010350810812,-54.227383748824934,-32.611658253102796,-12.959076735593685,-220.76807891197257,89.32000008352966,17.178522161062325
-0.07362886281167567,-0.34563345260864864,1.6487389350810813,-57.69303374882494,-38.924628253102796,-29.691906735593683,-220.76807891197257,89.32000008352966,17.178522161062325
-0.13393156281167568,-0.3512486826086486,1.6675377350810812,-64.17395374882494,-24.1002082531028,-74.69953673559368,-220.76807891197257,89.32000008352966,17.178522161062325
-0.2533163628116757,-0.3707799326086486,1.6804771350810812,-77.30371374882495,1.9913977468972024,-93.71480673559368,-217.08807891197256,95.76000008352968,19.938522161062327
-0.43520116281167565,-0.3632115726086486,1.6863361350810813,-76.05944374882495,-19.0849382531028,-49.92854673559369,-217.08807891197256,95.76000008352968,19.938522161062327
-0.2782186628116757,-0.2897252426086486,1.6711998350810813,-68.01365374882494,-54.611658253102796,-10.836936735593685,-210.6480789119726,100.36000008352967,26.378522161062325
-0.16469326281167568,-0.18254747260864862,1.706356135081081,-65.35715374882494,-53.07730825310279,-18.149916735593685,-210.6480789119726,100.36000008352967,26.378522161062325
-0.23598236281167567,-0.3070592326086486,1.737606135081081,-71.06707374882494,-34.4971482531028,-34.97434673559369,-210.6480789119726,100.36000008352967,26.378522161062325
-0.2896932628116757,-0.2875279826086486,1.7253991350810813,-69.26555374882494,-39.40554825310279,-21.073586735593686,-205.12807891197258,108.64000008352967,26.378522161062325
-0.22914646281167567,-0.2806920426086486,1.773495135081081,-58.69303374882494,-50.14600825310279,-13.714806735593685,-205.12807891197258,108.64000008352967,26.378522161062325
-0.2518514628116757,-0.2855748526086486,1.7290611350810812,-54.173953748824935,-41.634558253102796,-27.050676735593687,-205.12807891197258,108.64000008352967,26.378522161062325
-0.35780856281167567,-0.2924107926086486,1.6675377350810812,-53.273183748824934,-30.863568253102798,-22.829306735593686,-200.52807891197259,115.08000008352967,24.538522161062325
-0.38588476281167566,-0.2880162626086486,1.691952135081081,-52.14341374882493,-31.0849382531028,2.643975264406315,-200.52807891197259,115.08000008352967,24.538522161062325
-0.3568319628116757,-0.2684850126086486,1.7263761350810811,-43.135783748824934,-32.1689082531028,10.819543264406315,-196.84807891197258,119.68000008352968,23.618522161062323
-0.3600057628116757,-0.2489537626086486,1.7380941350810812,-34.57853374882493,-24.8711982531028,15.941683264406315,-196.84807891197258,119.68000008352968,23.618522161062323
-0.3509725628116757,-0.2455357926086486,1.713680135081081,-21.31135374882494,-21.8253982531028,17.628703264406315,-196.84807891197258,119.68000008352968,23.618522161062323
-0.3158163628116757,-0.2333287626086486,1.710995135081081,-15.883873748824936,-14.344478253102798,20.392063264406314,-195.00807891197258,124.28000008352967,21.778522161062327
-0.2867636628116757,-0.2199010726086486,1.745663135081081,-8.212118748824937,-6.275777253102797,19.384433264406315,-195.00807891197258,124.28000008352967,21.778522161062327
-0.2928671628116757,-0.2306431726086486,1.7805751350810812,2.9558202511750635,-3.4284491531027976,22.086723264406317,-195.00807891197258,124.28000008352967,21.778522161062327
-0.2638143628116757,-0.2438268026086486,1.775204135081081,18.543606251175063,2.426512746897202,12.048553264406316,-194.0880789119726,126.12000008352967,19.938522161062327
-0.2806600628116757,-0.2636021926086486,1.759579135081081,29.062686251175062,9.510481746897202,10.369166264406315,-194.0880789119726,126.12000008352967,19.938522161062327
-0.2979940628116757,-0.2662877426086486,1.737606135081081,36.642846251175065,12.014301746897203,14.185963264406315,-195.00807891197258,126.12000008352967,19.018522161062325
-0.2892050628116757,-0.2609166526086486,1.7473721350810814,41.948186251175066,17.7013217468972,12.399703264406314,-195.00807891197258,126.12000008352967,19.018522161062325
-0.2977499628116757,-0.22795767260864863,1.763973135081081,49.757346251175065,26.5868217468972,7.735578264406314,-195.00807891197258,126.12000008352967,19.018522161062325
-0.2909139628116757,-0.2736119626086486,1.810848135081081,53.902386251175066,22.1975017468972,19.437863264406314,-198.68807891197258,123.36000008352967,19.018522161062325
-0.2804159628116757,-0.2694615726086486,1.8753011350810813,64.32223625117506,30.0601017468972,27.491303264406316,-198.68807891197258,123.36000008352967,19.018522161062325
-0.27187106281167567,-0.34880727260864863,1.8045011350810811,82.12375625117505,47.52575174689721,36.18596326440631,-203.2880789119726,118.76000008352968,18.098522161062323
-0.2430624628116757,-0.3754186026086486,1.760555135081081,88.36039625117506,43.342541746897204,42.09435326440631,-203.2880789119726,118.76000008352968,18.098522161062323
-0.2113241628116757,-0.3671178226086486,1.743465135081081,85.66573625117506,41.579181746897206,36.95695326440631,-209.7280789119726,111.40000008352968,17.178522161062325
-0.2462362628116757,-0.3312291507086486,1.731258135081081,84.30696625117506,41.94559174689721,43.28519326440631,-209.7280789119726,111.40000008352968,17.178522161062325
-0.2142538628116757,-0.3378209476086486,1.7322351350810812,84.43673625117506,29.3043717468972,51.43023326440631,-209.7280789119726,111.40000008352968,17.178522161062325
-0.1517538628116757,-0.3163365726086486,1.6897541350810812,83.33750625117506,26.220401746897203,54.19359326440631,-216.1680789119726,104.04000008352968,13.498522161062326
-0.09071866281167566,-0.30974477260864863,1.6545983350810811,79.06268625117505,30.266211746897202,41.705043264406314,-216.1680789119726,104.04000008352968,13.498522161062326
-0.06361906281167569,-0.30950063260864863,1.610164735081081,71.43673625117506,27.9608617468972,31.392063264406314,-221.68807891197258,96.68000008352968,7.058522161062324
-0.02382416281167568,-0.3053502426086486,1.5652428350810812,66.38329625117505,25.021931746897202,16.124893264406314,-221.68807891197258,96.68000008352968,7.058522161062324
-0.038228462811675676,-0.3070592326086486,1.5117760350810812,51.23826625117506,25.6860517468972,7.498937264406314,-221.68807891197258,96.68000008352968,7.058522161062324
-0.052632762811675685,-0.3380650886086486,1.459774035081081,40.948186251175066,19.2814717468972,0.6897767644063145,-225.3680789119726,89.32000008352966,2.4585221610623265
-0.07265226281167568,-0.33342641660864863,1.4292565350810813,28.497806251175064,8.861631746897203,6.071456264406314,-225.3680789119726,89.32000008352966,2.4585221610623265
-0.06801366281167569,-0.3273229006086486,1.3955651350810812,15.543606251175065,-1.4360822531027977,-0.012513335593685448,-225.3680789119726,89.32000008352966,2.4585221610623265
-0.046040962811675676,-0.3070592326086486,1.422420535081081,-1.0289127488249366,-11.878830253102798,5.8806162644063145,-226.2880789119726,85.64000008352967,0.6185221610623266
-0.018697212811675676,-0.28996938260864863,1.4348717350810811,-13.990743748824936,-24.176538253102798,5.376799264406314,-226.2880789119726,85.64000008352967,0.6185221610623266
-0.050191362811675674,-0.3036412626086486,1.5105553350810812,-26.967843748824937,-28.7948582531028,-5.821673735593686,-226.2880789119726,87.48000008352967,0.6185221610623266
-0.1559042628116757,-0.2396764126086486,1.5637779350810812,-37.41059374882494,-31.5887582531028,2.6287082644063147,-226.2880789119726,87.48000008352967,0.6185221610623266
-0.2472128628116757,-0.2333287626086486,1.633358035081081,-28.830433748824937,-40.436088253102795,22.155423264406316,-226.2880789119726,87.48000008352967,0.6185221610623266
-0.15932226281167566,-0.2777623526086486,1.602108035081081,-27.92967374882494,-57.726158253102795,43.918783264406315,-224.44807891197257,93.92000008352967,-0.3014778389376751
-0.026265562811675677,-0.23918813260864863,1.5872154350810812,-37.62433374882493,-62.2376082531028,40.43023326440631,-224.44807891197257,93.92000008352967,-0.3014778389376751
-0.04652926281167567,-0.22600457260864862,1.656063135081081,-47.914413748824934,-42.687988253102795,2.5142042644063145,-224.44807891197257,93.92000008352967,-0.3014778389376751
-0.17299406281167568,-0.1996373726086486,1.7002521350810813,-60.960213748824934,-16.962798253102797,-4.829306735593685,-222.6080789119726,104.04000008352968,-4.9014778389376765
-0.19423436281167566,-0.2130650726086486,1.7273521350810812,-55.464023748824935,-32.1460082531028,23.926413264406314,-222.6080789119726,104.04000008352968,-4.9014778389376765
-0.05287686281167568,-0.15495957260864862,1.695614135081081,-52.67013374882494,-48.22997825310279,30.193593264406314,-218.00807891197258,112.32000008352968,-5.821477838937675
-0.014790962811675676,-0.14763537260864862,1.7432211350810811,-57.95257374882493,-36.6727282531028,-9.256787735593685,-218.00807891197258,112.32000008352968,-5.821477838937675
-0.07875576281167566,-0.2042760726086486,1.7317471350810814,-66.52509374882494,-12.787227253102797,-31.974346735593688,-218.00807891197258,112.32000008352968,-5.821477838937675
-0.12709566281167567,-0.22234247260864862,1.6963461350810811,-77.96021374882494,3.0601007468972026,-29.928546735593685,-213.4080789119726,117.84000008352967,-4.9014778389376765
-0.08070896281167568,-0.22991077260864862,1.693661135081081,-77.88387374882494,-12.474250253102797,-15.035416735593685,-213.4080789119726,117.84000008352967,-4.9014778389376765
0.036478567188324325,-0.2050084726086486,1.7073331350810812,-77.18158374882495,-32.4284482531028,-14.615566735593685,-213.4080789119726,117.84000008352967,-4.9014778389376765
0.059916067188324325,-0.1849888726086486,1.770077135081081,-80.44876374882494,-20.352118253102798,-47.39419673559369,-207.88807891197257,123.36000008352967,-0.3014778389376751
-0.2467245628116757,-0.22478387260864863,1.759334135081081,-97.58616374882494,25.953231746897202,-34.77587673559369,-207.88807891197257,123.36000008352967,-0.3014778389376751
-0.5467733628116757,-0.2794713426086486,2.0767171350810814,-84.05944374882495,5.815825746897202,-37.12701673559369,-202.3680789119726,125.20000008352967,5.2185221610623245
-0.34218356281167567,-0.2335729026086486,1.7263761350810811,-53.80753374882494,-23.9017282531028,-13.539226735593685,-202.3680789119726,125.20000008352967,5.2185221610623245
-0.1637167628116757,-0.19866077260864862,1.758114135081081,-37.67013374882494,-27.8253982531028,-34.21861673559369,-202.3680789119726,125.20000008352967,5.2185221610623245
-0.3575643628116757,-0.14031117260864862,1.681209135081081,-45.47166374882494,-3.1765406531027978,-18.592666735593685,-198.68807891197258,128.88000008352967,6.138522161062324
-0.3482870628116757,-0.1576451726086486,1.701229135081081,-41.914413748824934,-5.489518253102798,3.4836702644063147,-198.68807891197258,128.88000008352967,6.138522161062324
-0.2901815628116757,-0.11638537260864862,1.7214931350810811,-33.273183748824934,-12.939899253102798,17.621073264406316,-198.68807891197258,128.88000008352967,6.138522161062324
-0.23183196281167567,-0.11687367260864862,1.727840135081081,-22.95257374882494,-5.382647253102798,7.4378682644063145,-195.00807891197258,131.64000008352969,7.058522161062324
-0.2616171628116757,-0.1332310726086486,1.771297135081081,-16.647233748824938,4.388344746897202,7.4378682644063145,-195.00807891197258,131.64000008352969,7.058522161062324
-0.27235936281167566,-0.13078967260864863,1.8054771350810812,-1.7541035488249368,-6.237609253102798,21.987483264406315,-193.1680789119726,134.40000008352968,7.058522161062324
-0.1830038628116757,-0.12810417260864862,1.8128011350810813,16.284066251175062,-2.474250253102798,17.491303264406316,-193.1680789119726,134.40000008352968,7.058522161062324
-0.16249606281167567,-0.1569127726086486,1.835506135081081,25.58177625117506,10.273841746897203,0.7432118644063146,-193.1680789119726,134.40000008352968,7.058522161062324
-0.1754354628116757,-0.1581334726086486,1.840389135081081,37.558876251175064,12.319641746897203,-3.287322735593685,-194.0880789119726,134.40000008352968,7.058522161062324
-0.12489836281167567,-0.21404167260864862,1.828182135081081,44.673376251175064,14.182241746897203,-5.432360735593686,-194.0880789119726,134.40000008352968,7.058522161062324
-0.21669526281167567,-0.2264927726086486,1.8457601350810813,56.22299625117507,11.953231746897202,5.262295264406315,-194.0880789119726,134.40000008352968,7.058522161062324
-0.18031826281167568,-0.2006138726086486,1.761288135081081,64.76498625117506,-3.092571253102798,36.78138326440631,-197.76807891197257,131.64000008352969,7.058522161062324
-0.03944916281167568,-0.2338170426086486,1.8274501350810812,64.59703625117506,4.243306746897202,13.216493264406315,-197.76807891197257,131.64000008352969,7.058522161062324
-0.03774016281167568,-0.2726354026086486,1.8547931350810813,58.23062625117507,43.45705174689721,-22.722436735593686,-203.2880789119726,129.80000008352968,4.2985221610623245
-0.2301229628116757,-0.34538930260864864,1.887508135081081,64.32223625117506,44.1746017468972,-1.3483907355936853,-203.2880789119726,129.80000008352968,4.2985221610623245
-0.23915616281167568,-0.4169225126086486,1.866756135081081,82.86421625117507,11.243301746897203,37.22412326440631,-203.2880789119726,129.80000008352968,4.2985221610623245
-0.05751556281167568,-0.41570180260864864,1.8066981350810813,86.26116625117506,-1.3444792531027976,53.71267326440631,-210.6480789119726,124.28000008352967,3.3785221610623246
0.06968169318832432,-0.4432896726086486,1.8826261350810811,78.65047625117506,10.426511746897203,46.27756326440631,-210.6480789119726,124.28000008352967,3.3785221610623246
0.13291411718832433,-0.4886998726086486,1.6008873350810813,89.21536625117506,15.014301746897202,13.544743264406316,-218.00807891197258,118.76000008352968,-3.061477838937673
0.06357817718832433,-0.5394810726086486,1.5105553350810812,71.43673625117506,26.647881746897202,-4.6308337355936855,-218.00807891197258,118.76000008352968,-3.061477838937673
0.010843807188324325,-0.5463170726086486,1.4143639350810813,45.26116625117506,26.4112417468972,-6.623200735593686,-223.52807891197256,110.48000008352967,-8.581477838937676
-0.011861272811675677,-0.5575474726086487,1.3840904350810812,23.077956251175063,16.5410117468972,-9.096482735593685,-223.52807891197256,110.48000008352967,-8.581477838937676
-0.0033163528116756796,-0.5353306726086486,1.3867760350810812,3.4978042511750638,9.327271746897203,-7.272054735593686,-223.52807891197256,110.48000008352967,-8.581477838937676
-0.03334566281167567,-0.5253209726086486,1.4404869350810812,-14.296083748824936,-3.985701053102798,-0.2873224355936854,-225.3680789119726,105.88000008352967,-9.501477838937674
-0.05116796281167567,-0.4904088726086486,1.4836998350810813,-30.17395374882494,-11.497151253102798,10.399703264406314,-225.3680789119726,105.88000008352967,-9.501477838937674
-0.04408786281167568,-0.4640416726086486,1.537899035081081,-38.36479374882494,-18.8559282531028,15.895883264406315,-224.44807891197257,108.64000008352967,-6.741477838937676
-0.03798436281167568,-0.4364537726086486,1.6289635350810812,-47.441123748824936,-30.3597482531028,27.949323264406313,-224.44807891197257,108.64000008352967,-6.741477838937676
-0.0016073728116756808,-0.4020299326086486,1.676571135081081,-50.074713748824934,-41.19180825310279,42.45313326440631,-224.44807891197257,108.64000008352967,-6.741477838937676
0.04502348718832432,-0.38054555260864864,1.699764135081081,-49.79227374882493,-49.16890825310279,47.66687326440631,-220.76807891197257,116.92000008352967,-7.6614778389376745
0.07944731848832433,-0.3949498526086486,1.706112135081081,-52.067083748824935,-50.8711982531028,41.38443326440631,-220.76807891197257,116.92000008352967,-7.6614778389376745
0.043802787188324324,-0.3390416506086486,1.6597252350810812,-53.372423748824936,-49.687988253102795,33.27756326440631,-220.76807891197257,116.92000008352967,-7.6614778389376745
0.06382231718832432,-0.3204869626086486,1.6616783350810813,-61.372423748824936,-49.924628253102796,30.224123264406316,-214.32807891197257,127.04000008352966,-11.341477838937674
0.040384817188324325,-0.2806920426086486,1.7083091350810813,-71.39532374882494,-48.573488253102795,13.789013264406314,-214.32807891197257,127.04000008352966,-11.341477838937674
-0.08656826281167566,-0.2535924326086486,1.789364135081081,-72.67776374882494,-32.634558253102796,29.437863264406314,-206.0480789119726,136.24000008352968,-14.101477838937672
-0.10951756281167567,-0.26726430260864864,1.7517661350810814,-68.42585374882493,-33.8482982531028,49.19359326440631,-206.0480789119726,136.24000008352968,-14.101477838937672
0.006205127188324319,-0.21404167260864862,1.7210041350810812,-69.63196374882494,-35.0620382531028,60.941683264406315,-206.0480789119726,136.24000008352968,-14.101477838937672
0.06577544718832433,-0.18181507260864863,1.7922931350810813,-68.89914374882494,-45.787228253102796,37.50657326440631,-196.84807891197258,145.44000008352967,-17.781477838937672
0.07651763118832433,-0.16741077260864862,1.7930261350810812,-62.57853374882493,-35.9933382531028,20.605803264406315,-196.84807891197258,145.44000008352967,-17.781477838937672
0.10386137718832432,-0.1639927726086486,1.7493251350810812,-64.34952374882494,-15.123108253102798,17.033293264406314,-196.84807891197258,145.44000008352967,-17.781477838937672
0.16123442718832431,-0.13616077260864862,1.7271081350810813,-73.37242374882494,8.869261746897203,0.47603631440631455,-188.56807891197258,151.88000008352967,-18.701477838937674
0.12412505718832433,-0.1530064726086486,1.7715421350810812,-69.94494374882494,18.1440717468972,-15.913276735593683,-188.56807891197258,151.88000008352967,-18.701477838937674
0.08066802118832432,-0.15154167260864862,1.803036135081081,-59.36479374882494,7.144071746897202,-12.501066735593685,-183.0480789119726,153.72000008352967,-15.021477838937674
0.17417387718832433,-0.11931507260864863,1.8240321350810813,-49.51746374882494,9.258571746897204,-24.386556735593686,-183.0480789119726,153.72000008352967,-15.021477838937674
0.023294977188324323,-0.13860217260864863,1.866756135081081,-39.31899374882494,25.2051417468972,-31.936176735593687,-183.0480789119726,153.72000008352967,-15.021477838937674
-0.03896086281167567,-0.17766467260864863,1.840389135081081,-26.387693748824937,29.4723117468972,-33.455256735593686,-180.2880789119726,155.56000008352967,-13.181477838937678
-0.07191986281167569,-0.2076939726086486,1.8567471350810814,-13.769373748824936,25.8539917468972,-19.172816735593685,-180.2880789119726,155.56000008352967,-13.181477838937678
-0.058003862811675674,-0.2037877726086486,1.834530135081081,8.803148251175063,16.2738417468972,-11.821676735593686,-180.2880789119726,155.56000008352967,-13.181477838937678
-0.019429632811675673,-0.21599477260864863,1.8369711350810811,20.00162625117506,17.731851746897203,-16.638466735593685,-181.20807891197256,153.72000008352967,-10.421477838937676
-0.04408786281167568,-0.22795767260864863,1.8274501350810812,27.368036251175063,31.533381746897202,-25.287316735593684,-181.20807891197256,153.72000008352967,-10.421477838937676
-0.11903896281167568,-0.2435826626086486,1.851864135081081,38.016886251175066,34.1517017468972,-20.241516735593684,-183.96807891197258,150.96000008352968,-6.741477838937676
-0.14442966281167569,-0.25945180260864864,1.879452135081081,54.04742625117507,32.8845317468972,-13.462896735593684,-183.96807891197258,150.96000008352968,-6.741477838937676
-0.13002536281167565,-0.2719029826086486,1.865047135081081,63.52833625117507,40.60972174689721,-1.7911397355936853,-183.96807891197258,150.96000008352968,-6.741477838937676
-0.09877536281167566,-0.2968053226086486,1.8616291350810812,72.10848625117505,41.7318617468972,2.5905402644063145,-189.4880789119726,147.28000008352967,-3.061477838937673
-0.08900976281167568,-0.3053502426086486,1.8538171350810813,78.98634625117506,36.365441746897204,-0.7224367355936855,-189.4880789119726,147.28000008352967,-3.061477838937673
-0.05214446281167569,-0.33757680660864864,1.8721271350810813,85.30696625117506,37.1975017468972,8.010387264406315,-189.4880789119726,147.28000008352967,-3.061477838937673
0.01011137718832432,-0.3409947756086486,1.851131135081081,89.72681625117505,36.7547617468972,10.506573264406315,-197.76807891197257,140.84000008352967,-1.2214778389376733
0.03232817718832432,-0.3781041526086486,1.8103601350810812,97.09322625117505,38.250941746897205,1.5829062644063145,-197.76807891197257,140.84000008352967,-1.2214778389376733
0.042093807188324325,-0.3903111826086486,1.735897135081081,93.21536625117506,39.0066617468972,2.9569522644063144,-206.96807891197258,132.56000008352967,-1.2214778389376733
0.03452544718832432,-0.4161900926086486,1.7066001350810813,88.73444625117506,34.50285174689721,6.018021264406314,-206.96807891197258,132.56000008352967,-1.2214778389376733
0.05723051718832432,-0.4208287626086486,1.6443444350810812,86.05505625117506,24.9379617468972,3.7966472644063147,-206.96807891197258,132.56000008352967,-1.2214778389376733
0.08091216218832432,-0.4215611826086486,1.5891686350810812,77.51306625117506,26.2509417468972,-0.4781622355936854,-214.32807891197257,123.36000008352967,-2.141477838937675
0.07236724018832433,-0.4257115726086486,1.5198326350810811,65.08559625117506,29.3578117468972,-4.378925735593686,-214.32807891197257,123.36000008352967,-2.141477838937675
0.05747465718832433,-0.45500847260864863,1.5090904350810812,50.597046251175065,16.930331746897203,-8.043047735593685,-214.32807891197257,123.36000008352967,-2.141477838937675
0.06089262718832432,-0.4557408726086486,1.4649010350810812,34.37566625117507,14.731851746897204,-13.836936735593685,-219.8480789119726,115.08000008352967,-4.9014778389376765
0.05747465718832433,-0.47746937260864863,1.4404869350810812,18.963456251175064,4.541016746897203,-17.523966735593685,-219.8480789119726,115.08000008352967,-4.9014778389376765
0.04404692718832432,-0.4791783726086486,1.4045983350810811,0.8642172511750634,-5.092571253102798,-27.333126735593684,-219.8480789119726,115.08000008352967,-4.9014778389376765
0.02060942718832432,-0.5004185726086486,1.4431725350810811,-17.26555374882494,-1.4589832531027978,-31.867476735593687,-221.68807891197258,110.48000008352967,-5.821477838937675
-0.03529876281167568,-0.5023717726086486,1.4758873350810813,-36.235023748824936,-2.2910442531027977,-37.50869673559369,-221.68807891197258,110.48000008352967,-5.821477838937675
-0.12367766281167568,-0.4918736726086486,1.5142174350810813,-46.570893748824936,-16.687988253102798,-24.836936735593685,-221.68807891197258,111.40000008352968,-2.141477838937675
0.027445367188324327,-0.4667271726086486,1.679256135081081,-75.02127374882494,-34.710888253102794,-9.531597735593685,-217.08807891197256,117.84000008352967,-1.2214778389376733
-0.016499942811675675,-0.4254674326086486,1.7393151350810814,-77.19685374882494,-24.6956282531028,-39.66136673559369,-217.08807891197256,117.84000008352967,-1.2214778389376733
-0.07533786281167566,-0.4506138726086486,1.7691001350810813,-81.99074374882494,3.670787746897202,-52.256786735593685,-217.08807891197256,117.84000008352967,-1.2214778389376733
-0.16566986281167567,-0.44988147260864864,1.7542081350810812,-84.44876374882494,0.9608637468972021,-38.43999673559369,-210.6480789119726,123.36000008352967,4.2985221610623245
-0.10268156281167569,-0.4476842726086486,1.8057211350810811,-85.11288374882494,-23.1841782531028,-14.966706735593684,-210.6480789119726,123.36000008352967,4.2985221610623245
0.005472707188324322,-0.4271764126086486,1.8572351350810812,-76.99074374882494,-35.1765382531028,-21.821676735593684,-210.6480789119726,123.36000008352967,4.2985221610623245
-0.012593692811675675,-0.4186314926086486,1.8115811350810813,-69.92968374882494,-20.0620382531028,-56.24915673559369,-203.2880789119726,129.80000008352968,7.058522161062324
-0.09047456281167567,-0.4598912726086486,1.757381135081081,-74.91440374882494,7.128801746897203,-58.69190673559369,-203.2880789119726,129.80000008352968,7.058522161062324
-0.1795858628116757,-0.4474400726086486,1.7380941350810812,-78.33426374882494,1.021932746897202,-52.21861673559369,-197.76807891197257,131.64000008352969,9.818522161062326
-0.20107026281167567,-0.4640416726086486,1.8340421350810812,-71.86860374882494,-13.649823253102797,-54.02014673559369,-197.76807891197257,131.64000008352969,9.818522161062326
-0.3189901628116757,-0.4413365726086486,1.7913171350810813,-62.380053748824935,-14.901728253102798,-33.84457673559369,-197.76807891197257,131.64000008352969,9.818522161062326
-0.3148397628116757,-0.4083775926086486,1.718563135081081,-56.67776374882494,-24.046768253102798,1.0943569644063147,-193.1680789119726,133.48000008352966,11.658522161062326
-0.22255466281167569,-0.3461217326086486,1.7073331350810812,-50.85334374882493,-32.833028253102796,24.537103264406316,-193.1680789119726,133.48000008352966,11.658522161062326
-0.12172456281167567,-0.30950063260864863,1.748104135081081,-41.85334374882493,-34.1154682531028,16.170693264406314,-193.1680789119726,133.48000008352966,11.658522161062326
-0.09169526281167568,-0.2313756726086486,1.731258135081081,-43.357153748824935,-11.229976253102798,-4.310222735593686,-188.56807891197258,138.08000008352968,8.898522161062326
-0.20326756281167568,-0.2318638726086486,1.778133135081081,-37.44876374882494,-0.9475332531027978,-22.531596735593684,-188.56807891197258,138.08000008352968,8.898522161062326
-0.3040975628116757,-0.22576037260864862,1.8037681350810812,-21.525093748824936,3.937963746897202,-17.417096735593685,-185.8080789119726,140.84000008352967,9.818522161062326
-0.3177694628116757,-0.21404167260864862,1.8149991350810812,-6.135782748824937,-3.260510153102798,2.857715264406315,-185.8080789119726,140.84000008352967,9.818522161062326
-0.2789511628116757,-0.2079381726086486,1.8460041350810812,11.406206251175064,3.1211697468972024,5.872983264406314,-185.8080789119726,140.84000008352967,9.818522161062326
-0.2450155628116757,-0.21282097260864863,1.860897135081081,26.67337625117506,15.151701746897201,4.254662264406314,-185.8080789119726,140.84000008352967,9.818522161062326
-0.22084566281167567,-0.2416295426086486,1.855038135081081,41.535976251175065,24.754761746897202,-1.9590777355936853,-185.8080789119726,140.84000008352967,9.818522161062326
-0.2699179628116757,-0.2921666526086486,1.8447841350810812,53.52833625117506,37.1975017468972,-5.752970735593686,-185.8080789119726,140.84000008352967,9.818522161062326
-0.28700776281167567,-0.3241490726086486,1.8347741350810813,63.75734625117507,36.1975017468972,14.338633264406315,-187.6480789119726,138.08000008352968,11.658522161062326
-0.21034756281167571,-0.3541783726086486,1.846981135081081,74.00162625117505,36.479941746897204,26.033293264406314,-187.6480789119726,138.08000008352968,11.658522161062326
-0.2008261628116757,-0.33952993160864864,1.8804281350810812,87.03978625117506,40.289111746897206,25.338633264406315,-192.24807891197258,133.48000008352966,13.498522161062326
-0.16664646281167567,-0.4218053226086486,1.853084135081081,91.84131625117506,42.708951746897206,26.392063264406314,-192.24807891197258,133.48000008352966,13.498522161062326
-0.15248626281167565,-0.46550647260864864,1.8547931350810813,91.87948625117505,40.296741746897204,36.42260326440631,-192.24807891197258,133.48000008352966,13.498522161062326
-0.17299406281167568,-0.45500847260864863,1.8201261350810811,96.69628625117505,28.2967417468972,47.697413264406315,-200.52807891197259,127.96000008352968,15.338522161062325
-0.16200776281167567,-0.4886998726086486,1.8020591350810813,97.03978625117506,28.3578117468972,61.73558326440631,-200.52807891197259,127.96000008352968,15.338522161062325
-0.08949796281167567,-0.4835728726086486,1.7742271350810812,96.55123625117506,18.5639217468972,74.2394032644063,-200.52807891197259,127.96000008352968,15.338522161062325
0.04892973718832433,-0.4662388726086486,1.768856135081081,97.21536625117506,9.724221746897202,72.68977326440631,-208.8080789119726,122.44000008352967,11.658522161062326
0.06943755318832433,-0.45818227260864863,1.728084135081081,93.94055625117505,12.121171746897202,41.33863326440631,-208.8080789119726,122.44000008352967,11.658522161062326
-0.012105412811675681,-0.5209263726086486,1.671688135081081,87.36039625117506,20.9837617468972,26.506573264406317,-217.08807891197256,116.00000008352967,5.2185221610623245
-0.006734322811675672,-0.5570592726086486,1.6133385350810812,77.77261625117505,16.8692617468972,25.628703264406315,-217.08807891197256,116.00000008352967,5.2185221610623245
0.044779347188324325,-0.5450963726086486,1.5659752350810812,69.20009625117505,7.105901746897203,17.598173264406316,-217.08807891197256,116.00000008352967,5.2185221610623245
0.06870512718832432,-0.5436314726086486,1.5142174350810813,55.024516251175065,2.6784217468972025,5.376799264406314,-222.6080789119726,108.64000008352967,-2.141477838937675
0.07261138118832433,-0.5592564726086486,1.4690514350810813,39.20772625117507,0.8387267468972026,-13.058316735593685,-222.6080789119726,108.64000008352967,-2.141477838937675
0.032084037188324324,-0.5773228726086486,1.4143639350810813,19.352766251175062,-1.2605102531027979,-23.356026735593684,-222.6080789119726,108.64000008352967,-2.141477838937675
-0.012105412811675681,-0.5848912726086486,1.380916635081081,-3.4334927488249365,-8.443716253102798,-23.745336735593686,-224.44807891197257,104.04000008352968,-4.9014778389376765
-0.05092376281167567,-0.5883092726086486,1.3882408350810813,-29.50982374882494,-12.542953253102798,-25.371296735593685,-224.44807891197257,104.04000008352968,-4.9014778389376765
-0.10194916281167567,-0.5939244726086486,1.4297447350810812,-48.55563374882493,-13.604022253102798,-20.882746735593685,-223.52807891197256,104.96000008352966,-3.981477838937675
-0.13368746281167565,-0.5707310726086486,1.4719811350810812,-67.00601374882494,-24.397918253102798,-1.4628947355936854,-223.52807891197256,104.96000008352966,-3.981477838937675
-0.026509762811675677,-0.5221470726086486,1.522274035081081,-82.70830374882495,-37.36737825310279,22.857713264406314,-223.52807891197256,104.96000008352966,-3.981477838937675
0.06846098718832433,-0.4965123726086486,1.654354135081081,-95.32662374882494,-49.901728253102796,11.407333264406315,-218.9280789119726,114.16000008352967,-1.2214778389376733
0.01401762718832432,-0.4764928726086486,1.690731135081081,-99.26555374882494,-45.1307382531028,-19.562136735593686,-218.9280789119726,114.16000008352967,-1.2214778389376733
-0.07460546281167567,-0.4818638726086486,1.7290611350810812,-111.08998374882493,-33.9856982531028,-17.043046735593684,-218.9280789119726,114.16000008352967,-1.2214778389376733
-0.05067966281167567,-0.42351430260864864,1.7705651350810814,-113.44878374882494,-44.12310825310279,-2.6155667355936854,-209.7280789119726,125.20000008352967,0.6185221610623266
0.007425837188324319,-0.36443227260864863,1.8799401350810814,-114.00598374882495,-46.8635682531028,-4.0964827355936855,-209.7280789119726,125.20000008352967,0.6185221610623266
-0.08730076281167569,-0.3619908726086486,1.9221761350810813,-105.67018374882494,-30.2070782531028,-29.516326735593683,-209.7280789119726,125.20000008352967,0.6185221610623266
-0.17714446281167567,-0.3678502426086486,1.890682135081081,-101.42588374882494,-22.604018253102797,-28.607936735593686,-199.6080789119726,135.32000008352966,2.4585221610623265
-0.17763276281167567,-0.3556432126086486,1.873104135081081,-96.39532374882494,-24.4589882531028,-17.875106735593686,-199.6080789119726,135.32000008352966,2.4585221610623265
-0.12904876281167565,-0.3358678226086486,1.907772135081081,-88.24265374882494,-32.634558253102796,-5.3407577355936855,-191.32807891197257,140.84000008352967,3.3785221610623246
-0.1512655628116757,-0.32317250960864863,1.804745135081081,-64.20448374882494,-6.6421892531027975,-24.959076735593683,-184.88807891197257,144.52000008352968,1.5385221610623248
-0.16127536281167565,-0.3246373536086486,1.8071861350810812,-53.074713748824934,-5.367380253102798,-23.615566735593685,-184.88807891197257,144.52000008352968,1.5385221610623248
-0.2144979628116757,-0.3041295426086486,1.7871671350810812,-39.49456374882494,-4.558220053102798,-17.256786735593685,-184.88807891197257,144.52000008352968,1.5385221610623248
-0.1878866628116757,-0.26335805260864864,1.781063135081081,-28.341893748824937,-7.535319253102798,-2.4170937355936855,-182.12807891197258,146.36000008352966,2.4585221610623265
-0.16420506281167568,-0.2269810726086486,1.794979135081081,-16.891503748824938,-0.6803572531027977,1.7661122644063147,-182.12807891197258,146.36000008352966,2.4585221610623265
-0.16420506281167568,-0.23235219260864862,1.8223231350810813,0.032156251175063266,1.8616277468972027,8.659242264406315,-182.12807891197258,146.36000008352966,2.4585221610623265
-0.13441986281167567,-0.2177037726086486,1.843807135081081,16.169566251175063,5.113534746897203,15.918783264406315,-181.20807891197256,148.2000000835297,2.4585221610623265
-0.08168546281167567,-0.21965687260864863,1.8513761350810811,27.02452625117506,9.853991746897202,13.056193264406316,-181.20807891197256,148.2000000835297,2.4585221610623265
-0.05116796281167567,-0.2411412626086486,1.8816491350810813,46.22299625117507,17.4723117468972,-4.1193837355936855,-181.20807891197256,147.28000008352967,2.4585221610623265
-0.11244726281167568,-0.29411977260864863,1.8728601350810812,59.597046251175065,30.708951746897203,-8.478162735593685,-181.20807891197256,147.28000008352967,2.4585221610623265
-0.14784756281167566,-0.35246938260864863,1.8792081350810812,70.71917625117506,33.098271746897204,-12.607936735593684,-181.20807891197256,147.28000008352967,2.4585221610623265
-0.2013143628116757,-0.4088658726086486,1.8882411350810813,82.81841625117505,39.9608617468972,-10.623196735593686,-186.7280789119726,143.60000008352966,4.2985221610623245
-0.24525976281167566,-0.4403599726086486,1.8860431350810813,89.08559625117506,38.029571746897204,10.155425264406315,-186.7280789119726,143.60000008352966,4.2985221610623245
-0.2623495628116757,-0.4799107726086486,2.000057135081081,97.46726625117506,32.87689174689721,31.621073264406316,-186.7280789119726,143.60000008352966,4.2985221610623245
-0.16786716281167569,-0.5431431726086486,1.9378011350810813,104.03981625117505,41.1975017468972,45.18596326440631,-195.00807891197258,137.16000008352967,7.058522161062324
-0.1461386628116757,-0.5306920726086486,1.9258381350810811,111.03211625117505,29.762391746897197,57.09435326440631,-195.00807891197258,137.16000008352967,7.058522161062324
-0.06068936281167568,-0.5031041726086486,1.876278135081081,122.45201625117505,21.0066617468972,67.5142032644063,-203.2880789119726,131.64000008352969,5.2185221610623245
0.030863337188324326,-0.5050572726086486,1.836239135081081,122.64281625117506,19.2814717468972,57.08672326440631,-203.2880789119726,131.64000008352969,5.2185221610623245
0.02451567718832432,-0.4991978726086486,1.743465135081081,115.82601625117506,23.8921617468972,47.25466326440631,-203.2880789119726,131.64000008352969,5.2185221610623245
0.04551176718832432,-0.5194615726086487,1.6909751350810813,112.29171625117506,20.0066617468972,40.50657326440631,-213.4080789119726,123.36000008352967,-0.3014778389376751
0.07895903718832432,-0.5050572726086486,1.6365319350810812,103.15431625117506,14.563921746897202,31.384433264406315,-213.4080789119726,123.36000008352967,-0.3014778389376751
0.07261138118832433,-0.5055455726086486,1.5510826350810811,90.09322625117505,14.434151746897202,18.170693264406314,-213.4080789119726,123.36000008352967,-0.3014778389376751
0.07090239618832432,-0.5016392726086486,1.4871178350810812,75.70390625117506,12.159341746897203,7.048555264406314,-220.76807891197257,114.16000008352967,-8.581477838937676
0.07871489658832433,-0.5048131726086487,1.4368248350810813,56.38329625117507,2.2585737468972025,-0.9972457355936856,-220.76807891197257,114.16000008352967,-8.581477838937676
0.09849028718832432,-0.4955357726086486,1.4045983350810811,37.28406625117506,-7.542953253102798,-19.203356735593683,-225.3680789119726,107.72000008352967,-14.101477838937672
0.07529692818832433,-0.4886998726086486,1.381649035081081,17.306966251175062,-2.710891853102798,-19.516326735593683,-225.3680789119726,107.72000008352967,-14.101477838937672
0.013529347188324325,-0.49675647260864864,1.3545494350810812,-4.013645748824937,-1.573487253102798,-18.233886735593686,-225.3680789119726,107.72000008352967,-14.101477838937672
-0.018453072811675672,-0.5053013726086486,1.3672447350810812,-26.631963748824937,-9.062036253102798,-12.913276735593685,-225.3680789119726,104.96000008352966,-14.101477838937672
-0.030904262811675673,-0.5089635726086486,1.3933678350810812,-47.135783748824934,-15.695628253102797,-4.104116735593686,-225.3680789119726,104.96000008352966,-14.101477838937672
-0.011617132811675673,-0.5126256726086487,1.4165611350810812,-66.57090374882495,-23.4055482531028,-2.111749735593685,-225.3680789119726,104.96000008352966,-14.101477838937672
0.026712947188324322,-0.5035924726086486,1.5281334350810811,-86.86860374882494,-26.9475282531028,0.5142042644063145,-223.52807891197256,109.56000008352967,-10.421477838937676
0.025980517188324323,-0.48479357260864864,1.6057701350810811,-100.63960374882494,-32.558218253102794,-12.752966735593684,-223.52807891197256,109.56000008352967,-10.421477838937676
-0.040425762811675675,-0.4943150726086486,1.6611901350810812,-108.61668374882494,-28.7490582531028,-16.646096735593684,-216.1680789119726,119.68000008352968,-4.9014778389376765
-0.06679296281167567,-0.4789342726086486,1.7195401350810813,-113.55558374882494,-37.49714825310279,5.895883264406314,-216.1680789119726,119.68000008352968,-4.9014778389376765
-0.008687442811675675,-0.4254674326086486,1.809139135081081,-115.85338374882494,-46.07730825310279,13.995123264406315,-216.1680789119726,119.68000008352968,-4.9014778389376765
-0.044331962811675674,-0.4176549326086486,1.8428311350810813,-115.47928374882494,-35.9322682531028,-3.6995367355936852,-206.0480789119726,132.56000008352967,-3.061477838937673
-0.07582616281167569,-0.4249791526086486,1.871883135081081,-120.96018374882495,-22.291048253102797,-1.9285437355936854,-206.0480789119726,132.56000008352967,-3.061477838937673
-0.052632762811675685,-0.3856725126086486,1.8711511350810812,-117.63198374882494,-25.2986782531028,4.3004642644063145,-206.0480789119726,132.56000008352967,-3.061477838937673
0.015238337188324319,-0.35686391260864864,1.9082601350810813,-113.90678374882494,-31.222338253102798,7.1248912644063145,-195.00807891197258,141.76000008352966,-0.3014778389376751
0.07554106818832432,-0.32561391660864863,1.9807701350810811,-103.68538374882495,-38.1536382531028,-5.203352735593686,-195.00807891197258,141.76000008352966,-0.3014778389376751
0.06992583418832432,-0.2997350126086486,1.9463461350810811,-86.90677374882495,-30.4131782531028,-33.073586735593686,-195.00807891197258,141.76000008352966,-1.2214778389376733
-0.026753862811675674,-0.3043736826086486,1.921932135081081,-77.57853374882494,-18.9475382531028,-44.85983673559369,-184.88807891197257,149.12000008352967,-1.2214778389376733
-0.13637296281167566,-0.33562368160864864,1.911922135081081,-61.87624374882493,-13.527686253102797,-45.63083673559369,-184.88807891197257,149.12000008352967,-1.2214778389376733
-0.1944784628116757,-0.3324498539086486,1.876522135081081,-38.56326374882494,-14.649818253102797,-27.745336735593686,-181.20807891197256,150.96000008352968,-2.141477838937675
-0.17763276281167567,-0.31413930260864864,1.837704135081081,-26.75410374882494,-13.420815253102797,-9.600299735593685,-181.20807891197256,150.96000008352968,-2.141477838937675
-0.1424764628116757,-0.3158482926086486,1.8037681350810812,-14.051813748824936,-5.825395253102798,7.895883264406314,-181.20807891197256,150.96000008352968,-2.141477838937675
-0.09071866281167566,-0.2987584426086486,1.7900961350810811,-3.7999047488249365,-2.4437162531027976,12.972223264406315,-179.3680789119726,151.88000008352967,-4.9014778389376765
-0.06947846281167568,-0.28679555260864864,1.8142661350810814,7.711545251175064,-0.25287625310279793,5.6134412644063145,-179.3680789119726,151.88000008352967,-4.9014778389376765
-0.06020116281167569,-0.3038854026086486,1.8057211350810811,18.948186251175063,7.8310917468972026,0.19359356440631453,-179.3680789119726,151.88000008352967,-4.9014778389376765
-0.06972256281167567,-0.3131627426086486,1.7898521350810812,28.925286251175063,16.5944517468972,-1.0430477355936856,-179.3680789119726,152.80000008352965,-4.9014778389376765
-0.06508396281167568,-0.32585805660864864,1.8128011350810813,38.910016251175065,19.6784217468972,-0.6537347355936854,-179.3680789119726,152.80000008352965,-4.9014778389376765
-0.06288666281167567,-0.3695592326086486,1.876522135081081,68.16956625117506,24.5639217468972,-1.1575517355936853,-182.12807891197258,150.96000008352968,-3.061477838937673
-0.04555266281167568,-0.3829869626086486,1.887508135081081,80.47490625117506,26.846361746897202,2.8424482644063147,-187.6480789119726,147.28000008352967,-1.2214778389376733
-0.04945896281167568,-0.3907994626086486,1.884334135081081,88.94055625117505,30.525751746897203,3.1019902644063144,-187.6480789119726,147.28000008352967,-1.2214778389376733
-0.06313076281167566,-0.4264439926086486,1.904354135081081,97.42909625117505,29.0295717468972,10.537103264406316,-187.6480789119726,147.28000008352967,-1.2214778389376733
-0.06752536281167566,-0.44304557260864863,1.9089931350810811,108.18481625117506,31.5639117468972,8.369166264406315,-195.9280789119726,141.76000008352966,-0.3014778389376751
-0.07899996281167566,-0.4838170726086486,1.8472251350810813,111.24591625117506,41.9150617468972,11.872983264406315,-195.9280789119726,141.76000008352966,-0.3014778389376751
-0.07509366281167566,-0.5365513726086486,1.7991291350810812,109.09321625117506,42.228041746897205,24.918783264406315,-195.9280789119726,141.76000008352966,-0.3014778389376751
-0.005513622811675681,-0.5504674726086486,1.738827135081081,108.88711625117506,30.3654417468972,33.12489326440631,-206.0480789119726,132.56000008352967,-0.3014778389376751
0.07602934918832432,-0.5099400726086486,1.6804771350810812,105.27641625117506,24.0143017468972,18.941683264406315,-206.0480789119726,132.56000008352967,-0.3014778389376751
0.10679106718832432,-0.5319127726086486,1.6077233350810811,91.92528625117505,34.89979174689721,3.9264182644063146,-215.24807891197258,123.36000008352967,-4.9014778389376765
0.08335356818832432,-0.5377720726086486,1.5413170350810812,75.70390625117506,35.640251746897206,-2.0506817355936855,-215.24807891197258,123.36000008352967,-4.9014778389376765
0.08262114618832432,-0.5233678726086486,1.5042076350810811,61.44436625117507,28.693691746897198,-1.8903757355936852,-215.24807891197258,123.36000008352967,-4.9014778389376765
0.09922270718832432,-0.5221470726086486,1.4663658350810813,44.452006251175064,22.6936917468972,-5.882742735593686,-220.76807891197257,114.16000008352967,-5.821477838937675
0.09922270718832432,-0.5470494726086486,1.4402428350810812,27.67337625117506,20.7852917468972,-9.004879735593684,-220.76807891197257,114.16000008352967,-5.821477838937675
0.10825591718832432,-0.5446080726086486,1.406063135081081,12.772616251175064,14.281471746897202,-8.256787735593685,-220.76807891197257,114.16000008352967,-5.821477838937675
0.11533598718832433,-0.5321568726086486,1.3955651350810812,-5.280821748824936,2.9455967468972024,-9.661366735593685,-223.52807891197256,108.64000008352967,-5.821477838937675
0.07456450618832433,-0.5299595726086486,1.4172936350810812,-23.212113748824937,-9.184174253102798,-18.310226735593684,-223.52807891197256,108.64000008352967,-5.821477838937675
-0.012349552811675671,-0.5485142726086486,1.4280358350810811,-37.181583748824934,-11.916998253102797,-17.997246735593684,-222.6080789119726,109.56000008352967,-4.9014778389376765
-0.07216396281167568,-0.5367955726086486,1.4517174350810813,-58.128153748824936,-20.581118253102797,-0.22625373559368545,-222.6080789119726,109.56000008352967,-4.9014778389376765
-0.05507416281167567,-0.5341099726086487,1.5418053350810812,-70.10524374882495,-39.680358253102796,19.834813264406314,-222.6080789119726,109.56000008352967,-4.9014778389376765
-0.02333586281167567,-0.4933385726086486,1.6043053350810812,-79.98310374882495,-42.2147082531028,31.498933264406315,-218.00807891197258,117.84000008352967,-3.061477838937673
-0.058003862811675674,-0.4813756726086486,1.709286135081081,-84.75410374882495,-40.9093682531028,37.918783264406315,-218.00807891197258,117.84000008352967,-3.061477838937673
-0.056294862811675686,-0.45769397260864864,1.762264135081081,-88.51746374882494,-41.19180825310279,34.40733326440631,-218.00807891197258,117.84000008352967,-3.061477838937673
-0.02162686281167568,-0.4220494626086486,1.796932135081081,-88.21975374882494,-42.32157825310279,30.582903264406315,-209.7280789119726,130.72000008352967,-3.981477838937675
0.016947317188324325,-0.37981313260864863,1.810848135081081,-87.38768374882494,-43.07730825310279,26.430233264406315,-209.7280789119726,130.72000008352967,-3.981477838937675
0.031595757188324324,-0.3556432126086486,1.8079181350810813,-88.21212374882494,-33.0391382531028,26.247023264406316,-199.6080789119726,141.76000008352966,-4.9014778389376765
0.08774810018832432,-0.3544225126086486,1.795223135081081,-90.23501374882494,-27.7490582531028,12.437873264406315,-199.6080789119726,141.76000008352966,-4.9014778389376765
0.08384185018832432,-0.33952993160864864,1.837704135081081,-90.47166374882494,-25.604018253102797,-9.432359735593685,-199.6080789119726,141.76000008352966,-4.9014778389376765
0.002298877188324319,-0.29460805260864864,1.8088951350810811,-84.34952374882494,-15.405548253102797,-19.401826735593684,-190.40807891197258,148.2000000835297,-4.9014778389376765
-0.06630466281167567,-0.2999791526086486,1.8298911350810814,-79.05944374882495,-15.871198253102797,-4.088848735593686,-190.40807891197258,148.2000000835297,-4.9014778389376765
-0.05727146281167568,-0.25505727260864863,1.8892171350810814,-65.34188374882494,-21.4284482531028,7.750845264406315,-190.40807891197258,148.2000000835297,-4.9014778389376765
-0.06874606281167568,-0.22844597260864863,1.9082601350810813,-53.341883748824934,-14.466618253102798,2.8348152644063145,-182.12807891197258,152.80000008352965,-5.821477838937675
-0.09804296281167567,-0.2167271726086486,1.9116781350810812,-38.03654374882493,-8.817762253102797,4.109624264406315,-182.12807891197258,152.80000008352965,-5.821477838937675
-0.08192966281167567,-0.2089146726086486,1.9038661350810813,-17.746473748824936,-10.229976253102798,7.033288264406314,-177.52807891197259,155.56000008352967,-6.741477838937676
-0.03749606281167568,-0.2111119726086486,1.878231135081081,-5.9678437488249365,-1.4589832531027978,2.2088612644063144,-177.52807891197259,155.56000008352967,-6.741477838937676
-0.04164646281167568,-0.22893427260864863,1.8772541350810812,3.7802472511750635,8.770021746897203,-5.203352735593686,-177.52807891197259,155.56000008352967,-6.741477838937676
-0.051412062811675666,-0.2535924326086486,1.879696135081081,17.108496251175062,12.487581746897204,-10.913276735593685,-177.52807891197259,155.56000008352967,-5.821477838937675
-0.05043546281167567,-0.2894811026086486,1.8721271350810813,33.764976251175064,15.014301746897202,-15.852206735593686,-177.52807891197259,155.56000008352967,-5.821477838937675
-0.06264256281167567,-0.29827016260864864,1.838680135081081,41.742076251175064,23.0982717468972,-17.707166735593685,-177.52807891197259,155.56000008352967,-5.821477838937675
-0.07607026281167568,-0.32952016660864863,1.8357511350810811,50.27643625117506,27.4265117468972,-14.943806735593684,-181.20807891197256,153.72000008352967,-3.981477838937675
-0.056294862811675686,-0.3478307126086486,1.8604091350810812,59.70390625117506,27.266211746897202,-16.333126735593684,-181.20807891197256,153.72000008352967,-3.981477838937675
-0.06557226281167568,-0.3810338426086486,1.860897135081081,64.88711625117506,34.686051746897206,-23.783506735593686,-181.20807891197256,153.72000008352967,-3.981477838937675
-0.08900976281167568,-0.4327916726086486,1.881405135081081,71.79551625117506,45.403611746897205,-19.188086735593686,-187.6480789119726,150.04000008352966,-2.141477838937675
-0.12123626281167567,-0.4896763726086486,1.874813135081081,82.00162625117505,43.1059017468972,-9.378925735593684,-187.6480789119726,150.04000008352966,-2.141477838937675
-0.10536716281167567,-0.5016392726086486,1.837459135081081,88.93292625117506,41.388341746897204,9.949318264406315,-195.9280789119726,142.68000008352968,1.5385221610623248
-0.006734322811675672,-0.5182408726086486,1.8274501350810812,93.66573625117506,33.9837617468972,18.567643264406314,-195.9280789119726,142.68000008352968,1.5385221610623248
0.027445367188324327,-0.5067662726086486,1.773006135081081,96.24589625117505,29.9761317468972,9.750845264406315,-195.9280789119726,142.68000008352968,1.5385221610623248
0.003519587188324319,-0.5248326726086486,1.6909751350810813,95.69628625117505,35.312011746897205,12.224123264406314,-205.12807891197258,135.32000008352966,2.4585221610623265
0.026712947188324322,-0.5380162726086486,1.657039735081081,91.45963625117506,21.8616317468972,18.842453264406316,-205.12807891197258,135.32000008352966,2.4585221610623265
0.05869536718832433,-0.5309361726086486,1.6165123350810813,86.97872625117506,17.7929217468972,17.529473264406317,-205.12807891197258,135.32000008352966,2.4585221610623265
0.06748442718832433,-0.5245885726086486,1.5637779350810812,77.25353625117506,12.838721746897201,17.995123264406317,-214.32807891197257,126.12000008352967,-1.2214778389376733
0.12510161718832433,-0.4965123726086486,1.4409752350810812,46.37566625117507,-4.474250553102798,14.224123264406314,-219.8480789119726,119.68000008352968,-6.741477838937676
0.1451211471883243,-0.4896763726086486,1.406795535081081,25.93291625117506,-5.985701253102798,5.277563264406314,-219.8480789119726,119.68000008352968,-6.741477838937676
0.12021880718832433,-0.48064317260864864,1.4019127350810812,2.3451332511750635,-0.32157925310279767,-9.447627735593684,-221.68807891197258,116.92000008352967,-10.421477838937676
0.03183989718832433,-0.4984654726086486,1.4243736350810812,-16.593793748824936,-7.382647253102798,-11.088846735593686,-221.68807891197258,116.92000008352967,-10.421477838937676
0.005472707188324322,-0.46965687260864863,1.453670535081081,-29.425863748824938,-20.8788282531028,2.9874862644063147,-221.68807891197258,116.92000008352967,-10.421477838937676
-0.018208932811675682,-0.4672154726086486,1.5286217350810811,-42.02127374882493,-30.1612782531028,14.613443264406316,-219.8480789119726,118.76000008352968,-10.421477838937676
-0.04262296281167567,-0.4782017726086486,1.545955735081081,-49.86860374882493,-33.3902782531028,22.552373264406317,-219.8480789119726,118.76000008352968,-10.421477838937676
-0.012105412811675681,-0.4677037726086486,1.5903893350810812,-59.88387374882493,-31.3368482531028,43.46077326440631,-219.8480789119726,118.76000008352968,-10.421477838937676
0.07773833418832432,-0.4557408726086486,1.6304283350810813,-68.99074374882494,-42.9933382531028,52.857713264406314,-214.32807891197257,127.96000008352968,-11.341477838937674
0.1924844371883243,-0.4215611826086486,1.6516686350810812,-82.02127374882494,-41.9398982531028,40.47603326440631,-214.32807891197257,127.96000008352968,-11.341477838937674
0.21396883718832432,-0.4037389126086486,1.7339441350810811,-95.21975374882494,-25.5200482531028,1.9264182644063146,-205.12807891197258,139.00000008352967,-13.181477838937678
0.07016997418832432,-0.42668813260864863,1.8096271350810813,-101.57848374882494,-11.916998253102797,-25.531596735593684,-205.12807891197258,139.00000008352967,-13.181477838937678
-0.08095306281167568,-0.4332799726086486,1.798153135081081,-101.57088374882494,-13.642189253102798,-12.073586735593684,-205.12807891197258,139.00000008352967,-13.181477838937678
-0.03505466281167567,-0.4362095726086486,1.815487135081081,-94.80754374882494,-25.4284482531028,9.766113264406314,-195.9280789119726,144.52000008352968,-10.421477838937676
0.08603911518832433,-0.38420766260864864,1.8589441350810811,-97.11288374882494,-27.6269182531028,6.376799264406314,-195.9280789119726,144.52000008352968,-10.421477838937676
0.08433013118832433,-0.3539342326086486,1.915584135081081,-90.25029374882494,-15.283408253102797,-24.768236735593685,-195.9280789119726,144.52000008352968,-10.421477838937676
-0.0023397928116756783,-0.3300084476086486,1.8447841350810812,-87.04418374882493,4.487581746897202,-34.12701673559369,-186.7280789119726,150.96000008352968,-9.501477838937674
-0.06483976281167568,-0.3351354006086486,1.835995135081081,-77.99074374882494,-6.084937253102797,-26.333126735593684,-186.7280789119726,150.96000008352968,-9.501477838937674
-0.05824796281167567,-0.30242055260864864,1.8464931350810811,-62.570893748824936,-27.2757782531028,-11.050676735593685,-181.20807891197256,152.80000008352965,-9.501477838937674
-0.05873626281167567,-0.23650259260864862,1.848446135081081,-58.18921374882493,-13.474250253102797,-15.691906735593683,-181.20807891197256,152.80000008352965,-9.501477838937674
-0.12343356281167568,-0.21794787260864862,1.8587001350810812,-47.288453748824935,4.876894746897202,-12.752966735593684,-181.20807891197256,152.80000008352965,-9.501477838937674
-0.15834566281167567,-0.20915887260864863,1.8694421350810813,-29.82280374882494,-2.8330292531027976,10.995123264406315,-177.52807891197259,155.56000008352967,-8.581477838937676
-0.05434176281167567,-0.1840123726086486,1.884090135081081,-10.219752748824936,-1.7108922531027977,16.392063264406314,-177.52807891197259,155.56000008352967,-8.581477838937676
-0.011861272811675677,-0.20207877260864862,1.8633381350810811,3.635209251175063,12.014301746897203,7.979853264406314,-177.52807891197259,155.56000008352967,-8.581477838937676
-0.01137299281167567,-0.23161977260864863,1.8694421350810813,16.74207625117506,18.9150617468972,-0.23388733559368546,-175.68807891197258,155.56000008352967,-8.581477838937676
-0.008687442811675675,-0.2682408726086486,1.8633381350810811,34.864216251175066,21.3425417468972,-5.829306735593685,-175.68807891197258,155.56000008352967,-8.581477838937676
-0.010396432811675682,-0.3107213426086486,1.8320881350810811,47.11612625117507,25.8692617468972,-9.791136735593685,-175.68807891197258,155.56000008352967,-8.581477838937676
-0.0006308028116756709,-0.3400182136086486,1.8052331350810813,52.87948625117507,29.876891746897204,-13.447626735593685,-178.44807891197257,154.64000008352969,-6.741477838937676
-0.010884712811675676,-0.3741979026086486,1.8035241350810813,56.36039625117507,33.61735174689721,-12.210986735593686,-178.44807891197257,154.64000008352969,-6.741477838937676
-0.04091396281167567,-0.3966588426086486,1.832821135081081,64.19245625117506,28.8845317468972,-10.088846735593686,-183.96807891197258,150.96000008352968,-3.981477838937675
-0.01991791281167568,-0.4137486826086486,1.846737135081081,70.15429625117505,31.838721746897203,-3.432360735593685,-183.96807891197258,150.96000008352968,-3.981477838937675
-0.014790962811675676,-0.4288854026086486,1.8460041350810812,77.69628625117505,32.85399174689721,-3.3941927355936854,-183.96807891197258,150.96000008352968,-3.981477838937675
-0.030660062811675673,-0.44670767260864863,1.8367271350810812,84.88711625117506,34.0143017468972,4.766113264406314,-190.40807891197258,146.36000008352966,-2.141477838937675
-0.017720652811675675,-0.4943150726086486,1.831356135081081,89.24589625117505,30.1898717468972,8.735578264406316,-190.40807891197258,146.36000008352966,-2.141477838937675
0.04844145718832432,-0.4955357726086486,1.789120135081081,91.86421625117507,26.067731746897202,12.468403264406316,-200.52807891197259,139.92000008352966,-1.2214778389376733
0.06894926718832432,-0.5162877726086486,1.7549401350810814,90.84895625117505,26.0066617468972,-1.6232007355936853,-200.52807891197259,139.92000008352966,-1.2214778389376733
0.024271537188324324,-0.5399693726086486,1.7034261350810813,86.04742625117505,28.838721746897203,-7.3865587355936855,-200.52807891197259,139.92000008352966,-1.2214778389376733
0.008890677188324328,-0.5492467726086486,1.6445885350810812,82.62757625117506,25.044831746897202,1.8729832644063147,-208.8080789119726,131.64000008352969,-2.141477838937675
0.033060597188324325,-0.5328892726086486,1.5896569350810812,75.94055625117505,13.983761746897203,11.094353264406315,-208.8080789119726,131.64000008352969,-2.141477838937675
0.07749419318832432,-0.5231236726086486,1.5430260350810812,66.16956625117506,6.899791746897202,8.437868264406315,-208.8080789119726,131.64000008352969,-2.141477838937675
0.08457427118832432,-0.5179967726086486,1.4876061350810812,52.10085625117507,9.365441746897202,0.9035172644063145,-216.1680789119726,124.28000008352967,-5.821477838937675
0.04941801718832432,-0.5128697726086486,1.4688072350810812,37.925286251175066,5.892161746897203,0.9340515644063145,-216.1680789119726,124.28000008352967,-5.821477838937675
0.06211333718832432,-0.5233678726086486,1.4570885350810812,21.062686251175062,-2.1383722531027978,1.2012271644063146,-219.8480789119726,119.68000008352968,-8.581477838937676
0.08799224018832433,-0.5121373726086487,1.4351158350810813,5.5207052511750625,-3.9169986531027976,-4.5621317355936855,-219.8480789119726,119.68000008352968,-8.581477838937676
0.06455473718832433,-0.5211705726086486,1.454647135081081,-13.845703748824937,-5.260510253102797,-7.981978735593686,-219.8480789119726,119.68000008352968,-8.581477838937676
0.059427787188324324,-0.5255650726086486,1.4727135350810812,-32.570893748824936,-7.359747253102798,-11.516326735593685,-218.9280789119726,119.68000008352968,-8.581477838937676
0.019632867188324327,-0.5289830726086486,1.5122643350810812,-46.83044374882493,-11.695624253102798,-7.7911387355936865,-218.9280789119726,119.68000008352968,-8.581477838937676
0.043314507188324324,-0.5260533726086486,1.5571861350810812,-60.097613748824934,-13.443716253102798,-7.394192735593686,-218.9280789119726,119.68000008352968,-8.581477838937676
0.01719145718832432,-0.5184849726086487,1.5913658350810813,-69.34952374882494,-11.123105253102798,-6.485795735593686,-216.1680789119726,124.28000008352967,-5.821477838937675
0.029398487188324322,-0.5231236726086486,1.6436119350810812,-76.33426374882494,-18.115468253102797,-4.3865587355936855,-216.1680789119726,124.28000008352967,-5.821477838937675
0.03769926718832432,-0.5145787726086486,1.682430135081081,-79.14341374882494,-23.1918082531028,-10.600296735593686,-209.7280789119726,131.64000008352969,-3.061477838937673
0.0020547371883243293,-0.4828404726086486,1.8274501350810812,-89.59379374882494,-19.9856982531028,-21.256786735593685,-209.7280789119726,131.64000008352969,-3.061477838937673
-0.06752536281167566,-0.4598912726086486,1.8115811350810813,-82.45639374882494,-26.0085982531028,-22.829306735593686,-201.44807891197257,138.08000008352968,-0.3014778389376751
-0.06020116281167569,-0.4699010726086486,1.817196135081081,-81.74646374882494,-24.7032582531028,-10.508696735593684,-201.44807891197257,138.08000008352968,-0.3014778389376751
0.02842192718832432,-0.4359654726086486,1.8027921350810812,-80.98310374882495,-29.6345582531028,-9.829306735593685,-193.1680789119726,143.60000008352966,-1.2214778389376733
0.05356840718832433,-0.3998326626086486,1.8174401350810814,-79.46402374882494,-25.0849382531028,-32.63083673559369,-193.1680789119726,143.60000008352966,-1.2214778389376733
0.02060942718832432,-0.3903111826086486,1.8323331350810812,-77.27318374882495,-5.466617253102798,-61.12701673559369,-193.1680789119726,143.60000008352966,-1.2214778389376733
-0.1402792628116757,-0.41252798260864865,1.8587001350810812,-76.09761374882494,6.434141746897202,-64.35602673559369,-186.7280789119726,146.36000008352966,-0.3014778389376751
-0.2076620628116757,-0.3905553226086486,1.828182135081081,-59.65486374882494,-14.955168253102798,-33.294956735593686,-186.7280789119726,146.36000008352966,-0.3014778389376751
-0.13759366281167568,-0.36443227260864863,1.8098721350810814,-45.128153748824936,-18.6421882531028,-20.943816735593686,-186.7280789119726,146.36000008352966,-0.3014778389376751
-0.1314901628116757,-0.36418813260864863,1.7976651350810813,-41.80753374882494,-4.458983453102798,-20.768236735593685,-183.96807891197258,147.28000008352967,-0.3014778389376751
-0.15102146281167567,-0.3595494626086486,1.8035241350810813,-28.55563374882494,3.1669707468972024,-19.638466735593685,-183.96807891197258,147.28000008352967,-0.3014778389376751
-0.17983006281167568,-0.34490102260864863,1.791805135081081,-15.387693748824937,-0.35974725310279787,-9.737706735593685,-182.12807891197258,148.2000000835297,0.6185221610623266
-0.15273046281167568,-0.3300084476086486,1.789364135081081,-5.685401748824937,7.212771746897202,-3.0277807355936854,-182.12807891197258,148.2000000835297,0.6185221610623266
-0.1278280628116757,-0.3380650886086486,1.808163135081081,2.9176522511750638,15.693691746897203,-1.4018267355936853,-182.12807891197258,148.2000000835297,0.6185221610623266
-0.12807226281167566,-0.3497838426086486,1.842098135081081,18.764976251175064,20.1593317468972,-5.554497735593686,-181.20807891197256,148.2000000835297,2.4585221610623265
-0.12709566281167567,-0.3424596226086486,1.8128011350810813,34.07032625117507,21.021931746897202,-5.661368735593686,-181.20807891197256,148.2000000835297,2.4585221610623265
-0.13808196281167567,-0.3585729026086486,1.806454135081081,41.40619625117507,31.464681746897202,-8.852207735593685,-181.20807891197256,148.2000000835297,2.4585221610623265
-0.15199796281167566,-0.3856725126086486,1.836239135081081,44.20009625117507,43.350181746897206,-6.920910735593686,-183.96807891197258,145.44000008352967,3.3785221610623246
-0.16127536281167565,-0.40349477260864863,1.870174135081081,57.41383625117506,38.441781746897206,-0.5392308355936855,-183.96807891197258,145.44000008352967,3.3785221610623246
-0.09731046281167567,-0.4222936026086486,1.875057135081081,70.07795625117505,40.182241746897205,6.987487264406314,-188.56807891197258,140.84000008352967,7.978522161062326
-0.04384366281167568,-0.4252232926086486,1.8508871350810812,76.95581625117507,42.640251746897206,4.323364264406314,-188.56807891197258,140.84000008352967,7.978522161062326
-0.05580656281167569,-0.46233267260864863,1.8547931350810813,80.75734625117506,57.464681746897206,-7.5850327355936855,-188.56807891197258,140.84000008352967,7.978522161062326
-0.13734956281167565,-0.5282506726086487,1.8569911350810813,84.84131625117506,62.4875817468972,-0.24152093559368548,-196.84807891197258,134.40000008352968,11.658522161062326
-0.1310018628116757,-0.5768345726086486,1.8540611350810812,91.68864625117506,50.89979174689721,20.384433264406315,-196.84807891197258,134.40000008352968,11.658522161062326
-0.06313076281167566,-0.5758580726086486,1.7854581350810812,99.10081625117506,44.228041746897205,36.25466326440631,-196.84807891197258,134.40000008352968,11.658522161062326
0.01597075718832433,-0.5927037726086486,1.7334561350810813,95.67337625117506,38.9379617468972,33.33863326440631,-206.0480789119726,126.12000008352967,14.418522161062326
0.06943755318832433,-0.5829381726086487,1.6670494350810812,90.05505625117506,40.6707917468972,21.063823264406317,-206.0480789119726,126.12000008352967,14.418522161062326
0.05332426718832432,-0.6049107726086487,1.6216393350810812,82.17719625117506,38.57155174689721,10.224128264406316,-214.32807891197257,116.92000008352967,13.498522161062326
0.026468807188324325,-0.6166295726086486,1.5574303350810812,71.65047625117506,31.617351746897203,6.743211264406314,-214.32807891197257,116.92000008352967,13.498522161062326
0.047220757188324324,-0.5944127726086486,1.4895592350810811,60.619946251175065,22.464681746897202,9.086724264406316,-214.32807891197257,116.92000008352967,13.498522161062326
0.06504301718832432,-0.5956334726086486,1.4556236350810812,46.688646251175065,15.136431746897204,0.3997004444063145,-219.8480789119726,107.72000008352967,11.658522161062326
0.028177787188324324,-0.5917271726086486,1.4326744350810812,32.19246625117506,4.166970746897203,0.24702866440631455,-219.8480789119726,107.72000008352967,11.658522161062326
0.010599657188324327,-0.5748814726086486,1.4031334350810811,18.04742625117506,-10.497151253102798,3.9187842644063147,-219.8480789119726,107.72000008352967,11.658522161062326
0.033060597188324325,-0.5507115726086487,1.4143639350810813,0.8794842511750636,-13.458983253102797,11.598173264406315,-222.6080789119726,104.04000008352968,8.898522161062326
0.056498097188324325,-0.5372838726086486,1.4551354350810812,-17.120513748824937,-18.6345582531028,4.269929264406314,-222.6080789119726,104.04000008352968,8.898522161062326
0.01719145718832432,-0.5128697726086486,1.4863854350810812,-28.46402374882494,-23.8101282531028,-2.0735817355936854,-221.68807891197258,106.80000008352967,7.058522161062324
-0.04359956281167568,-0.5189732726086487,1.5349694350810812,-40.57853374882493,-32.1460082531028,0.08672336440631451,-221.68807891197258,106.80000008352967,7.058522161062324
-0.04164646281167568,-0.5084752726086486,1.577205735081081,-51.158683748824934,-35.771958253102795,12.468403264406316,-221.68807891197258,106.80000008352967,7.058522161062324
-0.006978462811675676,-0.4843053726086486,1.6155358350810811,-60.79227374882493,-35.0238682531028,17.071453264406315,-218.00807891197258,114.16000008352967,7.058522161062324
0.042093807188324325,-0.46648307260864863,1.6511803350810812,-67.25792374882494,-41.0925682531028,12.330993264406315,-218.00807891197258,114.16000008352967,7.058522161062324
0.05332426718832432,-0.4501256726086486,1.7205161350810814,-70.65487374882494,-39.0085982531028,-1.9896127355936852,-218.00807891197258,114.16000008352967,7.058522161062324
-0.03285736281167567,-0.45452017260864863,1.7693441350810812,-72.92968374882494,-34.0620382531028,-16.508696735593684,-211.56807891197258,123.36000008352967,5.2185221610623245
-0.07094326281167566,-0.4542760726086486,1.790584135081081,-72.67776374882494,-33.3063082531028,-14.180456735593685,-211.56807891197258,123.36000008352967,5.2185221610623245
-0.10390226281167568,-0.4454869726086486,1.823788135081081,-69.18158374882495,-39.1994382531028,-7.226253735593686,-204.20807891197256,130.72000008352967,5.2185221610623245
-0.15053316281167567,-0.44206897260864864,1.7962001350810812,-67.04418374882493,-33.634558253102796,0.5752729644063146,-204.20807891197256,130.72000008352967,5.2185221610623245
-0.15468356281167567,-0.42766470260864864,1.790584135081081,-67.65487374882494,-34.596388253102795,14.063823264406315,-204.20807891197256,130.72000008352967,5.2185221610623245
-0.05727146281167568,-0.3998326626086486,1.831356135081081,-67.27318374882495,-33.1460082531028,18.040923264406317,-196.84807891197258,136.24000008352968,2.4585221610623265
0.0013223171883243179,-0.34856313260864863,1.848446135081081,-60.72356374882494,-34.1536382531028,-0.2491545355936855,-196.84807891197258,136.24000008352968,2.4585221610623265
-0.07436126281167567,-0.3300084476086486,1.805965135081081,-53.395323748824936,-23.8406682531028,-16.875106735593686,-196.84807891197258,136.24000008352968,2.4585221610623265
-0.14272066281167567,-0.32707875960864863,1.778133135081081,-52.85334374882493,-18.176538253102798,-14.157546735593685,-191.32807891197257,140.84000008352967,0.6185221610623266
-0.13344326281167568,-0.3031529826086486,1.7766681350810813,-46.341883748824934,-18.3215782531028,-2.8751087355936855,-191.32807891197257,140.84000008352967,0.6185221610623266
-0.12025976281167568,-0.2877721226086486,1.7673911350810814,-37.937313748824934,-13.542953253102798,-5.195719735593686,-191.32807891197257,140.84000008352967,0.6185221610623266
-0.09779876281167567,-0.24846548260864862,1.7664151350810813,-18.84570374882494,-1.5353192531027977,1.9874862644063147,-187.6480789119726,143.60000008352966,-0.3014778389376751
-0.09755466281167567,-0.2494420426086486,1.7962001350810812,-12.433493748824937,5.563917746897202,-5.462894735593686,-184.88807891197257,145.44000008352967,-0.3014778389376751
-0.11659756281167567,-0.25871938260864863,1.834530135081081,0.11612525117506345,10.976131746897202,-5.0964827355936855,-184.88807891197257,145.44000008352967,-0.3014778389376751
-0.11855076281167569,-0.2755650926086486,1.838680135081081,15.742076251175062,10.976131746897202,-6.905642735593686,-184.88807891197257,146.36000008352966,1.5385221610623248
-0.12050386281167567,-0.2968053226086486,1.8357511350810811,28.253526251175064,23.5486517468972,-11.478166735593685,-184.88807891197257,146.36000008352966,1.5385221610623248
-0.1627401628116757,-0.33952993160864864,1.837459135081081,33.03215625117507,33.58682174689721,-12.378926735593685,-184.88807891197257,146.36000008352966,1.5385221610623248
-0.15224216281167569,-0.3739537626086486,1.851131135081081,46.09322625117507,33.1975017468972,1.1554255644063145,-187.6480789119726,143.60000008352966,3.3785221610623246
-0.09804296281167567,-0.39153188260864863,1.868465135081081,55.696276251175064,36.228041746897205,6.262295264406315,-187.6480789119726,143.60000008352966,3.3785221610623246
-0.06654876281167567,-0.4052037626086486,1.8757901350810813,65.65047625117506,38.43415174689721,2.2928302644063145,-187.6480789119726,143.60000008352966,3.3785221610623246
-0.053853462811675676,-0.4557408726086486,1.868709135081081,75.55887625117506,41.63262174689721,-1.7300707355936855,-192.24807891197258,139.92000008352966,7.058522161062324
-0.060445262811675685,-0.4850377726086486,1.860897135081081,83.38329625117505,39.83872174689721,4.025654264406314,-192.24807891197258,139.92000008352966,7.058522161062324
-0.014546822811675672,-0.4991978726086486,1.8347741350810813,89.34512625117506,39.50285174689721,7.6592422644063145,-200.52807891197259,133.48000008352966,9.818522161062326
-0.013081982811675677,-0.5270299726086486,1.802547135081081,90.91001625117507,44.9608617468972,3.5371052644063146,-200.52807891197259,133.48000008352966,9.818522161062326
-0.02602146281167568,-0.5519322726086486,1.7534751350810813,92.82604625117506,43.45705174689721,2.888250264406315,-200.52807891197259,133.48000008352966,9.818522161062326
-0.00038666281167568095,-0.5570592726086486,1.7100181350810812,89.93292625117506,36.342541746897204,11.292833264406315,-209.7280789119726,123.36000008352967,9.818522161062326
0.020365287188324324,-0.5712193726086486,1.6594811350810812,86.62757625117506,31.647891746897198,7.338631264406314,-209.7280789119726,123.36000008352967,9.818522161062326
0.00840239718832432,-0.5858678726086486,1.602108035081081,75.98634625117506,33.58682174689721,6.956952264406314,-209.7280789119726,123.36000008352967,9.818522161062326
0.029398487188324322,-0.5912388726086486,1.5759850350810811,67.44436625117505,28.510481746897202,14.292833264406315,-217.08807891197256,114.16000008352967,8.898522161062326
0.03183989718832433,-0.5809849726086487,1.5010338350810812,59.14665625117507,15.044831746897204,11.056193264406316,-217.08807891197256,114.16000008352967,8.898522161062326
0.03330473718832432,-0.5678013726086486,1.4497643350810812,44.658116251175066,10.060101746897203,13.674513264406315,-221.68807891197258,106.80000008352967,5.2185221610623245
0.03574614718832433,-0.5536412726086486,1.399227235081081,25.13902625117506,5.7623907468972035,15.155423264406314,-221.68807891197258,106.80000008352967,5.2185221610623245
0.04917387718832432,-0.5516881726086487,1.3875084350810811,5.192461251175063,-4.062036853102798,17.598173264406316,-221.68807891197258,106.80000008352967,5.2185221610623245
0.07407622418832432,-0.5316685726086486,1.4107018350810812,-11.929673748824936,-14.321578253102798,8.422601264406316,-222.6080789119726,105.88000008352967,2.4585221610623265
0.026712947188324322,-0.5226353726086486,1.4316979350810812,-28.922043748824937,-18.962798253102797,2.4531352644063147,-222.6080789119726,105.88000008352967,2.4585221610623265
-0.0035604928116756696,-0.5311803726086486,1.4644127350810812,-45.464023748824935,-24.466618253102798,5.101990264406314,-222.6080789119726,105.88000008352967,2.4585221610623265
-0.01747651281167567,-0.5348424726086486,1.5095787350810812,-63.68540374882493,-29.3368482531028,12.285193264406315,-219.8480789119726,110.48000008352967,2.4585221610623265
-0.01527924281167567,-0.5453404726086486,1.5969811350810812,-76.87624374882495,-31.756688253102798,15.590543264406316,-219.8480789119726,110.48000008352967,2.4585221610623265
-0.0020956528116756745,-0.5521763726086486,1.6524010350810812,-82.56326374882494,-35.878828253102796,14.407333264406315,-214.32807891197257,120.60000008352966,3.3785221610623246
-0.008443302811675671,-0.5409459726086486,1.662166635081081,-90.83807374882494,-36.8024982531028,15.514203264406316,-214.32807891197257,120.60000008352966,3.3785221610623246
0.007181697188324329,-0.5758580726086486,1.6902431350810811,-99.10524374882495,-38.489518253102794,15.185963264406315,-214.32807891197257,120.60000008352966,3.3785221610623246
0.07114653718832432,-0.5909947726086486,1.7141681350810813,-102.64718374882494,-35.2070782531028,13.995123264406315,-205.12807891197258,131.64000008352969,3.3785221610623246
0.16269926718832434,-0.5912388726086486,1.7222251350810813,-113.25788374882494,-26.2376082531028,-6.180452735593686,-205.12807891197258,131.64000008352969,3.3785221610623246
0.12510161718832433,-0.6046666726086486,1.8035241350810813,-121.37238374882494,-22.199438253102798,-57.17281673559369,-205.12807891197258,131.64000008352969,3.3785221610623246
0.004984427188324328,-0.5455845726086486,1.8486901350810814,-127.38008374882494,-4.100204853102798,-76.75297673559369,-194.0880789119726,139.92000008352966,4.2985221610623245
-0.2132772628116757,-0.5592564726086486,1.9080161350810814,-114.92208374882495,-16.5658582531028,-45.34839673559369,-194.0880789119726,139.92000008352966,4.2985221610623245
-0.15199796281167566,-0.5070103726086486,1.9316981350810813,-97.28082374882494,-40.0391382531028,-9.065947735593685,-184.88807891197257,144.52000008352968,6.138522161062324
-0.04799406281167569,-0.45036977260864863,1.9522061350810813,-79.55563374882495,-38.642188253102795,-10.294956735593685,-184.88807891197257,144.52000008352968,6.138522161062324
-0.01527924281167567,-0.39958852260864863,1.9163171350810813,-67.67776374882494,-23.092568253102797,-25.951446735593684,-184.88807891197257,144.52000008352968,6.138522161062324
-0.08168546281167567,-0.3951939926086486,1.8787191350810812,-51.235023748824936,-12.031502253102797,-51.73770673559369,-179.3680789119726,148.2000000835297,4.2985221610623245
-0.22597256281167571,-0.4056920426086486,1.8162191350810812,-38.75410374882493,1.5486497468972025,-50.386556735593686,-179.3680789119726,148.2000000835297,4.2985221610623245
-0.3180136628116757,-0.4215611826086486,1.7871671350810812,-25.83807374882494,-5.5276862531027975,-20.691906735593683,-179.3680789119726,148.2000000835297,4.2985221610623245
-0.2455038628116757,-0.3991002426086486,1.792049135081081,-13.502193748824936,-16.825398253102797,1.9035172644063145,-178.44807891197257,148.2000000835297,3.3785221610623246
-0.1820272628116757,-0.3629674326086486,1.7732511350810811,-4.250286748824937,-2.9475330531027977,-3.0506817355936855,-178.44807891197257,148.2000000835297,3.3785221610623246
-0.17665616281167568,-0.3522252426086486,1.800106135081081,5.848950251175063,11.861631746897203,-4.607932735593685,-178.44807891197257,148.2000000835297,3.3785221610623246
-0.1856893628116757,-0.3734654826086486,1.8284261350810813,19.215366251175062,18.067731746897202,-4.8522077355936855,-178.44807891197257,148.2000000835297,4.2985221610623245
-0.1717733628116757,-0.3737096226086486,1.8257411350810813,33.83368625117507,22.243311746897202,1.0332882644063144,-178.44807891197257,148.2000000835297,4.2985221610623245
-0.15883396281167567,-0.4044713426086486,1.823055135081081,48.58940625117506,30.8463617468972,2.2699292644063145,-179.3680789119726,147.28000008352967,5.2185221610623245
-0.14320896281167567,-0.4357213726086486,1.828182135081081,57.81078625117507,36.74712174689721,0.6897767644063145,-179.3680789119726,147.28000008352967,5.2185221610623245
-0.14540616281167568,-0.45403187260864863,1.843563135081081,67.57414625117507,38.6936917468972,2.819548264406315,-179.3680789119726,147.28000008352967,5.2185221610623245
-0.15614836281167566,-0.48943227260864863,1.8503991350810813,75.71154625117506,49.2204017468972,2.4836702644063147,-183.96807891197258,142.68000008352968,7.978522161062326
-0.1830038628116757,-0.5172642726086486,1.8799401350810814,79.20772625117506,54.0372017468972,15.567643264406316,-183.96807891197258,142.68000008352968,7.978522161062326
-0.06728116281167566,-0.5731724726086487,1.853084135081081,104.45961625117506,49.81582174689721,34.20886326440631,-190.40807891197258,138.08000008352968,11.658522161062326
-0.026753862811675674,-0.5785435726086486,1.824764135081081,110.15431625117506,46.1517017468972,39.97222326440631,-190.40807891197258,138.08000008352968,11.658522161062326
-0.0008749428116756747,-0.6075963726086486,1.781307135081081,113.38331625117506,38.563911746897205,39.78138326440631,-199.6080789119726,130.72000008352967,14.418522161062326
0.016459037188324324,-0.6166295726086486,1.7131921350810813,110.78021625117506,34.9685017468972,43.06382326440631,-199.6080789119726,130.72000008352967,14.418522161062326
0.08188872518832432,-0.6266392726086486,1.662899035081081,103.58181625117506,30.3654417468972,41.09435326440631,-210.6480789119726,121.52000008352967,12.578522161062324
0.09189848718832433,-0.6154088726086486,1.6126061350810812,94.66573625117506,21.289111746897202,23.132523264406316,-210.6480789119726,121.52000008352967,12.578522161062324
0.05698637718832432,-0.6193150726086486,1.5479088350810812,84.35276625117505,18.7929217468972,14.651613264406315,-210.6480789119726,121.52000008352967,12.578522161062324
0.053812557188324325,-0.6210240726086487,1.492733035081081,70.23062625117505,14.060101746897201,13.735573264406314,-218.00807891197258,112.32000008352968,7.978522161062326
0.07212309918832432,-0.6110142726086486,1.453914735081081,51.13139625117507,8.624981746897202,12.231763264406315,-218.00807891197258,112.32000008352968,7.978522161062326
0.060404347188324325,-0.6212681726086486,1.4187584350810811,30.67337625117506,5.365444746897202,-0.13465073559368546,-218.00807891197258,112.32000008352968,7.978522161062326
-0.01625580281167567,-0.6168736726086486,1.3823815350810813,8.848946251175065,6.2738407468972035,0.9951202644063145,-222.6080789119726,105.88000008352967,4.2985221610623245
-0.18080656281167568,-0.6029576726086486,1.4045983350810811,-12.715933748824936,-10.161273253102797,37.33863326440631,-222.6080789119726,105.88000008352967,4.2985221610623245
-0.05946866281167566,-0.6407994726086486,1.4229088350810812,-17.006013748824937,-33.481888253102795,34.77374326440631,-222.6080789119726,106.80000008352967,1.5385221610623248
-0.01137299281167567,-0.5953892726086486,1.4639244350810812,-37.486923748824935,-33.4131782531028,25.613443264406314,-222.6080789119726,106.80000008352967,1.5385221610623248
0.017435597188324325,-0.5736607726086487,1.508602235081081,-57.54036374882494,-29.4818882531028,12.071453264406315,-222.6080789119726,106.80000008352967,1.5385221610623248
0.006449267188324323,-0.5614537726086486,1.5732994350810812,-69.92204374882495,-34.9704382531028,11.575273264406315,-218.9280789119726,115.08000008352967,-0.3014778389376751
0.033060597188324325,-0.5573033726086486,1.6399498350810813,-80.25029374882494,-40.2834082531028,10.483673264406315,-218.9280789119726,115.08000008352967,-0.3014778389376751
0.027201227188324323,-0.5341099726086487,1.677547135081081,-92.12815374882494,-34.2147082531028,9.750845264406315,-218.9280789119726,115.08000008352967,-0.3014778389376751
-0.0008749428116756747,-0.5204381726086487,1.740780135081081,-98.97548374882494,-33.924628253102796,8.834814264406315,-211.56807891197258,125.20000008352967,0.6185221610623266
0.020121147188324327,-0.5255650726086486,1.7727621350810812,-99.60143374882495,-39.8253982531028,8.025655264406314,-211.56807891197258,125.20000008352967,0.6185221610623266
0.07602934918832432,-0.48845567260864864,1.775204135081081,-103.43348374882494,-41.20707825310279,7.781379264406314,-201.44807891197257,136.24000008352968,1.5385221610623248
0.10776762718832432,-0.46501817260864864,1.7910731350810813,-107.74648374882494,-33.3368482531028,-4.5621317355936855,-201.44807891197257,136.24000008352968,1.5385221610623248
0.08188872518832432,-0.4345006726086486,1.800106135081081,-112.02128374882494,-28.0620382531028,-16.859836735593685,-201.44807891197257,136.24000008352968,1.5385221610623248
0.06553130718832433,-0.4064244626086486,1.8579671350810814,-112.43348374882494,-24.7643282531028,-41.142286735593686,-191.32807891197257,143.60000008352966,0.6185221610623266
-0.028462862811675677,-0.3942174326086486,1.9236411350810814,-96.57853374882494,-4.084937653102798,-73.05067673559368,-191.32807891197257,143.60000008352966,0.6185221610623266
-0.3370565628116757,-0.4169225126086486,1.893856135081081,-83.30371374882495,-13.955168253102798,-40.317856735593686,-191.32807891197257,143.60000008352966,0.6185221610623266
-0.3080038628116757,-0.3903111826086486,1.868465135081081,-62.983113748824934,-38.8253982531028,10.033288264406314,-183.96807891197258,147.28000008352967,0.6185221610623266
-0.12074796281167567,-0.3331822756086486,1.865780135081081,-53.006013748824934,-36.6727282531028,23.674513264406315,-183.96807891197258,147.28000008352967,0.6185221610623266
-0.06313076281167566,-0.3014439926086486,1.853084135081081,-42.53273374882493,-17.451348253102797,5.964586264406314,-178.44807891197257,151.88000008352967,-2.141477838937675
-0.09926366281167569,-0.2897252426086486,1.838924135081081,-31.471663748824938,-8.214708253102797,-11.577396735593686,-178.44807891197257,151.88000008352967,-2.141477838937675
-0.15566006281167566,-0.3043736826086486,1.837704135081081,-18.899143748824937,1.1517037468972027,-11.050676735593685,-178.44807891197257,151.88000008352967,-2.141477838937675
-0.16713476281167566,-0.3187779826086486,1.8347741350810813,-1.9754776488249366,9.144071746897202,-4.577398735593686,-176.6080789119726,152.80000008352965,-1.2214778389376733
-0.12929296281167568,-0.3409947756086486,1.848202135081081,11.268796251175063,12.716591746897203,0.6210744644063145,-176.6080789119726,152.80000008352965,-1.2214778389376733
-0.06191006281167567,-0.3500279826086486,1.840389135081081,26.61994625117506,14.899791746897202,2.5142042644063145,-176.6080789119726,152.80000008352965,-1.2214778389376733
-0.011861272811675677,-0.35710805260864864,1.820370135081081,40.10085625117507,18.4723117468972,-3.9132767355936857,-176.6080789119726,152.80000008352965,-0.3014778389376751
-0.005025342811675673,-0.3810338426086486,1.809383135081081,47.21536625117506,27.907431746897203,-19.859836735593685,-176.6080789119726,152.80000008352965,-0.3014778389376751
-0.05702726281167568,-0.4215611826086486,1.8135341350810812,53.803146251175065,39.63262174689721,-25.356026735593684,-181.20807891197256,149.12000008352967,1.5385221610623248
-0.06532806281167568,-0.4403599726086486,1.8789631350810811,63.44436625117506,40.334911746897205,-16.371296735593685,-181.20807891197256,149.12000008352967,1.5385221610623248
-0.009908152811675675,-0.45769397260864864,1.953182135081081,79.85658625117506,38.57155174689721,-14.356026735593685,-181.20807891197256,149.12000008352967,1.5385221610623248
-0.061665962811675676,-0.4921178726086486,1.956112135081081,93.28406625117506,47.8845317468972,-10.974346735593684,-187.6480789119726,144.52000008352968,5.2185221610623245
-0.11049406281167569,-0.5663365726086487,1.9351161350810813,102.69631625117506,47.7623917468972,-2.9056427355936854,-187.6480789119726,144.52000008352968,5.2185221610623245
-0.09511326281167569,-0.6288365726086487,1.851620135081081,116.65051625117506,47.121171746897204,3.1630592644063147,-187.6480789119726,144.52000008352968,5.2185221610623245
-0.09584566281167568,-0.6371373726086487,1.805965135081081,116.52831625117506,46.0448317468972,20.659243264406314,-198.68807891197258,136.24000008352968,7.978522161062326
-0.05483006281167567,-0.6405553726086486,1.7473721350810814,115.75731625117506,36.9761317468972,30.124893264406314,-198.68807891197258,136.24000008352968,7.978522161062326
-0.010640572811675672,-0.6346959726086486,1.690731135081081,113.58181625117506,30.9990317468972,28.918783264406315,-209.7280789119726,126.12000008352967,6.138522161062324
0.010843807188324325,-0.6180943726086486,1.6279869350810812,101.49021625117506,30.5181117468972,26.934053264406316,-209.7280789119726,126.12000008352967,6.138522161062324
0.03525786718832433,-0.6220006726086487,1.5916100350810811,90.84131625117506,26.2509417468972,24.567643264406314,-209.7280789119726,126.12000008352967,6.138522161062324
0.06553130718832433,-0.5970982726086487,1.5386315350810813,76.68100625117506,22.556281746897202,20.773743264406313,-218.00807891197258,116.92000008352967,1.5385221610623248
0.08091216218832432,-0.5873326726086486,1.4880944350810812,64.68864625117506,14.296741746897203,14.865353264406314,-218.00807891197258,116.92000008352967,1.5385221610623248
0.09116606718832432,-0.5868443726086486,1.4463463350810812,47.39856625117507,8.968501746897203,14.422603264406314,-218.00807891197258,116.92000008352967,1.5385221610623248
0.11899809718832433,-0.5765904726086486,1.406795535081081,29.986356251175064,6.418881746897203,11.850083264406315,-221.68807891197258,110.48000008352967,-3.061477838937673
0.07139067818832433,-0.5624303726086486,1.4099694350810812,-19.693033748824938,-14.451348253102797,2.0561892644063144,-223.52807891197256,109.56000008352967,-5.821477838937675
0.032572317188324325,-0.5707310726086486,1.4426842350810811,-37.79227374882493,-18.695628253102797,5.422601264406314,-223.52807891197256,109.56000008352967,-5.821477838937675
0.011576227188324323,-0.5665806726086486,1.4898033350810813,-53.80753374882494,-29.0162382531028,15.384433264406315,-223.52807891197256,109.56000008352967,-5.821477838937675
0.014750057188324325,-0.5387486726086486,1.5667076350810811,-64.60143374882493,-38.313948253102794,30.147793264406314,-219.8480789119726,115.08000008352967,-5.821477838937675
0.014505907188324327,-0.5365513726086486,1.6262779350810812,-72.30371374882495,-43.710888253102794,35.17069326440631,-219.8480789119726,115.08000008352967,-5.821477838937675
-0.0023397928116756783,-0.5243443726086486,1.664852235081081,-80.45639374882494,-43.313948253102794,35.44550326440631,-213.4080789119726,126.12000008352967,-6.741477838937676
0.020853567188324325,-0.5148228726086486,1.699764135081081,-87.70066374882494,-47.16127825310279,38.38443326440631,-213.4080789119726,126.12000008352967,-6.741477838937676
0.06772856718832432,-0.4562291726086486,1.7395591350810813,-95.78463374882494,-50.42844825310279,29.422603264406316,-213.4080789119726,126.12000008352967,-6.741477838937676
0.01621489718832432,-0.4635533726086486,1.851620135081081,-93.20448374882494,-44.7795982531028,11.124893264406316,-203.2880789119726,138.08000008352968,-8.581477838937676
-0.06557226281167568,-0.4181432126086486,1.8298911350810814,-90.81517374882495,-34.4360782531028,21.811913264406314,-203.2880789119726,138.08000008352968,-8.581477838937676
-0.053853462811675676,-0.41130727260864863,1.831112135081081,-92.79990374882495,-29.7032582531028,32.21649326440631,-203.2880789119726,138.08000008352968,-8.581477838937676
0.01670317718832432,-0.3575963426086486,1.8604091350810812,-89.83807374882494,-22.1078382531028,27.437863264406314,-192.24807891197258,146.36000008352966,-10.421477838937676
0.06919341218832432,-0.2953404826086486,1.893612135081081,-88.56326374882494,-11.802494253102797,12.376803264406314,-192.24807891197258,146.36000008352966,-10.421477838937676
0.07529692818832433,-0.2579869626086486,1.9050861350810813,-78.19685374882494,-9.031502253102797,-6.356024735593686,-183.0480789119726,152.80000008352965,-7.6614778389376745
0.021585987188324322,-0.2660436026086486,1.9021571350810813,-61.097613748824934,-4.229975853102798,-22.974346735593684,-183.0480789119726,152.80000008352965,-7.6614778389376745
-0.03774016281167568,-0.2819127426086486,1.838680135081081,-54.05944374882493,4.754756746897202,-24.096486735593686,-183.0480789119726,152.80000008352965,-7.6614778389376745
-0.06191006281167567,-0.28606313260864863,1.8235431350810813,-41.84570374882493,6.189870746897203,-19.752976735593684,-179.3680789119726,154.64000008352969,-5.821477838937675
-0.030660062811675673,-0.27825063260864863,1.8318441350810812,-25.55563374882494,0.5944517468972026,-13.943806735593684,-179.3680789119726,154.64000008352969,-5.821477838937675
-0.013814402811675675,-0.2772740726086486,1.825008135081081,-11.525093748824936,-0.04676925310279767,-9.409459735593686,-179.3680789119726,154.64000008352969,-5.821477838937675
