ax,ay,az,gx,gy,gz,mx,my,mz
-0.06410736281167569,0.4070521273913514,1.342586535081081,12.910016251175064,-1.9933342531027978,7.506571264406314,-210.6480789119726,46.08000008352967,-77.58147783893767
-0.02358006281167567,0.42755992739135135,1.352352235081081,10.360396251175064,0.2891077468972023,1.1172576644063146,-210.6480789119726,46.08000008352967,-77.58147783893767
0.036966847188324325,0.4773646273913514,1.2925377350810812,20.612306251175063,39.495211746897205,2.5142042644063145,-209.7280789119726,45.160000083529674,-79.42147783893768
-0.11781826281167566,0.5037318273913514,1.2607994350810812,19.963456251175064,29.9685017468972,-10.607936735593684,-207.88807891197257,46.08000008352967,-84.94147783893767
-0.14858006281167568,0.4409876273913514,1.2854576350810811,16.810786251175063,13.808191746897203,0.45313555440631453,-207.88807891197257,46.08000008352967,-84.94147783893767
-0.1351522628116757,0.3465052273913514,1.218563135081081,21.123756251175063,-7.016235253102797,10.834813264406314,-207.88807891197257,46.08000008352967,-84.94147783893767
-0.005757762811675671,0.34015752739135136,1.1604576350810811,6.711545251175064,-21.3750082531028,11.376803264406314,-206.0480789119726,47.00000008352967,-88.62147783893768
0.003275447188324329,0.32282362739135134,1.2241783350810813,0.6733772511750633,-26.1002082531028,-4.272054735593686,-206.0480789119726,47.00000008352967,-88.62147783893768
-0.06435146281167568,0.4717493273913514,1.3081627350810812,6.2764302511750625,-41.855928253102796,22.964583264406315,-206.0480789119726,47.92000008352967,-89.54147783893768
0.005960987188324329,0.5742884273913513,1.3167076350810811,5.444370251175064,-19.7490582531028,32.81955326440631,-206.0480789119726,47.92000008352967,-89.54147783893768
0.07114653718832432,0.5464564273913515,1.2659264350810813,6.436736251175063,-17.802498253102797,37.964583264406315,-206.0480789119726,47.92000008352967,-89.54147783893768
0.1805215371883243,0.5113001273913513,1.2085533350810813,-5.647233748824936,-12.794861253102797,9.101990264406314,-206.96807891197258,51.60000008352967,-93.22147783893767
0.10483794718832433,0.4832239273913514,1.212459635081081,-23.28082374882494,17.9914017468972,-25.455256735593686,-206.96807891197258,51.60000008352967,-93.22147783893767
0.022074267188324323,0.4531947273913514,1.3071861350810812,-28.547993748824936,29.1059017468972,-31.676636735593686,-206.96807891197258,51.60000008352967,-93.22147783893767
-0.1361288628116757,0.4490443273913514,1.3508873350810813,-17.48693374882494,16.6784217468972,-20.943816735593686,-208.8080789119726,51.60000008352967,-90.46147783893768
-0.09218356281167568,0.4065638273913514,1.3081627350810812,-9.784638748824936,-2.054403253102798,0.03328826440631455,-208.8080789119726,51.60000008352967,-90.46147783893768
-0.08876556281167568,0.44318492739135135,1.3042565350810813,-4.586164748824936,-3.573487253102798,-0.27968893559368546,-208.8080789119726,51.60000008352967,-89.54147783893768
-0.11147066281167568,0.47834112739135143,1.3145104350810812,-8.334255748824937,-5.955166253102798,5.1935932644063145,-208.8080789119726,51.60000008352967,-89.54147783893768
-0.04335546281167568,0.48224742739135135,1.274959635081081,-14.830443748824937,-2.3521132531027975,3.8729832644063147,-208.8080789119726,51.60000008352967,-89.54147783893768
0.021341847188324325,0.45514782739135135,1.2769127350810812,-26.90677374882494,-5.604021253102798,-4.653734735593686,-210.6480789119726,52.52000008352967,-89.54147783893768
0.023050837188324326,0.4607630273913514,1.2839928350810812,-32.196853748824935,-2.2223422531027976,-10.417096735593685,-210.6480789119726,52.52000008352967,-89.54147783893768
-0.0018515128116756707,0.4602747273913514,1.3189049350810813,-36.486923748824935,2.357810746897202,-21.562136735593686,-210.6480789119726,52.52000008352967,-89.54147783893768
-0.01894135281167568,0.44172002739135136,1.350399035081081,-33.01364374882493,-1.9704342531027979,-24.997246735593684,-212.4880789119726,53.44000008352967,-84.94147783893767
-0.038228462811675676,0.43390752739135136,1.3855553350810812,-31.670133748824938,-1.9475332531027978,-23.783506735593686,-212.4880789119726,53.44000008352967,-84.94147783893767
-0.06435146281167568,0.39533332739135135,1.392147135081081,-26.051813748824937,2.0753677468972023,-28.798776735593684,-215.24807891197258,52.52000008352967,-79.42147783893768
-0.09462496281167566,0.3709193273913514,1.3635826350810811,-25.318993748824937,6.678421746897202,-18.272056735593686,-215.24807891197258,52.52000008352967,-79.42147783893768
-0.06410736281167569,0.3360072273913514,1.422420535081081,-29.15105374882494,16.4036117468972,-15.073586735593684,-215.24807891197258,52.52000008352967,-79.42147783893768
-0.15199796281167566,0.31818492739135135,1.392147135081081,-19.547993748824936,8.556281746897202,-9.623196735593686,-217.08807891197256,50.68000008352967,-73.90147783893768
-0.12367766281167568,0.3523646273913514,1.384334635081081,-9.601431748824936,-6.0620372531027975,5.811914264406314,-217.08807891197256,50.68000008352967,-73.90147783893768
-0.07753506281167567,0.28962042739135135,1.5364342350810811,-4.990744748824937,-5.848296253102798,12.338633264406315,-217.08807891197256,50.68000008352967,-73.90147783893768
-0.11610936281167568,0.38898572739135134,1.431209635081081,1.1390262511750633,0.07536774689720227,0.018021064406314513,-218.00807891197258,51.60000008352967,-72.06147783893768
-0.08656826281167566,0.36359502739135136,1.398983035081081,1.3604002511750632,3.3883447468972023,-2.4705287355936854,-218.00807891197258,51.60000008352967,-72.06147783893768
-0.06630466281167567,0.3472376273913514,1.4185143350810812,4.413835251175064,-2.588754253102798,4.216494264406315,-218.00807891197258,50.68000008352967,-72.06147783893768
-0.06606046281167567,0.37555792739135135,1.4080162350810812,8.673377251175063,-15.161278253102797,11.636343264406316,-218.00807891197258,50.68000008352967,-72.06147783893768
-0.03847256281167567,0.40412242739135135,1.389461535081081,8.123759251175064,-14.817758253102797,4.598173264406314,-218.00807891197258,50.68000008352967,-72.06147783893768
-0.011617132811675673,0.39948372739135135,1.3960533350810813,3.9100182511750634,-13.916998253102797,-0.08121553559368544,-218.00807891197258,51.60000008352967,-72.98147783893768
-0.02211516281167568,0.4029017273913514,1.3633385350810812,-1.7922715488249366,-5.825395253102798,-8.340757735593685,-218.00807891197258,51.60000008352967,-72.98147783893768
-0.02968356281167568,0.38337042739135135,1.3806725350810811,-6.494561748824937,0.24330674689720233,-11.210986735593686,-218.00807891197258,51.60000008352967,-72.98147783893768
-0.07680266281167568,0.36408332739135135,1.3938561350810812,-8.181584748824937,4.029565746897202,-11.699536735593686,-218.00807891197258,51.60000008352967,-72.06147783893768
-0.09828706281167567,0.3496790273913514,1.4194908350810813,-7.975477748824936,4.884528746897203,-8.585031735593684,-218.00807891197258,51.60000008352967,-72.06147783893768
-0.11366796281167567,0.32184702739135135,1.4258385350810812,-4.097614748824936,3.9684977468972025,-5.508696735593686,-218.00807891197258,51.60000008352967,-72.06147783893768
-0.1283163628116757,0.32087042739135135,1.4153404350810812,0.2840642511750633,-1.9475332531027978,-1.1880857355936856,-218.00807891197258,50.68000008352967,-69.30147783893767
-0.11171476281167568,0.33283332739135135,1.4192467350810811,2.2077282511750633,-4.726159253102798,2.2546622644063143,-218.00807891197258,50.68000008352967,-69.30147783893767
-0.07973236281167569,0.3587122273913514,1.414852235081081,4.597041251175064,-3.9933346531027976,6.430235264406314,-218.9280789119726,51.60000008352967,-70.22147783893767
-0.06313076281167566,0.3662806273913514,1.3980065350810813,3.7955142511750632,-1.8788302531027978,9.033288264406314,-218.9280789119726,51.60000008352967,-70.22147783893767
-0.03334566281167567,0.3675013273913514,1.3848229350810812,2.9176522511750638,-5.764327253102797,9.575273264406315,-218.9280789119726,51.60000008352967,-70.22147783893767
-0.006978462811675676,0.3860560273913514,1.4009361350810812,0.7955142511750635,-3.8711971531027976,5.5447392644063145,-218.9280789119726,52.52000008352967,-71.14147783893767
-0.010640572811675672,0.3892298273913514,1.3943444350810812,0.18482725117506327,-0.9780672531027976,0.7432118644063146,-218.9280789119726,52.52000008352967,-71.14147783893767
-0.01625580281167567,0.3731165273913514,1.3855553350810812,-2.7693707488249366,-1.329212253102798,-3.142284735593685,-218.9280789119726,52.52000008352967,-71.14147783893767
-0.032613262811675675,0.37140752739135136,1.4024010350810812,-4.639599748824937,0.2662077468972024,-3.3025897355936853,-218.9280789119726,52.52000008352967,-71.14147783893767
-0.05312106281167568,0.3657923273913514,1.4153404350810812,-2.906775748824937,0.3196427468972023,-6.424726735593686,-218.9280789119726,52.52000008352967,-71.14147783893767
-0.07387296281167567,0.35407362739135134,1.4002037350810812,-1.7541035488249368,0.7623907468972022,2.2546622644063143,-218.9280789119726,52.52000008352967,-70.22147783893767
-0.05507416281167567,0.3589564273913514,1.4026451350810811,-0.9220425488249366,2.136435746897202,1.0103874644063144,-218.9280789119726,52.52000008352967,-70.22147783893767
-0.053853462811675676,0.3638392273913514,1.4048424350810813,-1.6548669488249366,0.2891077468972023,2.3920672644063146,-218.9280789119726,52.52000008352967,-70.22147783893767
-0.04652926281167567,0.36408332739135135,1.4038658350810813,-3.5556307488249366,-0.02386925310279775,-5.462894735593686,-218.9280789119726,52.52000008352967,-70.22147783893767
-0.05067966281167567,0.35724742739135135,1.4194908350810813,-5.731202748824936,3.602085746897202,-4.279688735593686,-218.9280789119726,51.60000008352967,-69.30147783893767
-0.06776946281167569,0.35309702739135135,1.4136315350810813,-6.151049748824937,4.571550746897202,-3.2033527355936853,-218.9280789119726,51.60000008352967,-69.30147783893767
-0.06947846281167568,0.3272181273913514,1.412166635081081,-3.9678437488249365,3.7700237468972024,-3.7071697355936855,-219.8480789119726,51.60000008352967,-68.38147783893768
-0.06606046281167567,0.3330775273913514,1.4194908350810813,-2.5861647488249364,2.205138746897202,3.1401582644063146,-219.8480789119726,51.60000008352967,-68.38147783893768
-0.05971286281167566,0.3738489273913514,1.406795535081081,-2.4487597488249366,4.220405746897201,-0.004879735593685486,-219.8480789119726,51.60000008352967,-68.38147783893768
-0.04530856281167568,0.35773572739135134,1.4104576350810811,-1.2197524488249367,7.548651746897203,-5.447627735593686,-219.8480789119726,52.52000008352967,-67.46147783893768
-0.047749962811675664,0.35260872739135135,1.399227235081081,-3.8838747488249368,5.716588746897203,-0.12701713559368544,-219.8480789119726,52.52000008352967,-67.46147783893768
-0.04286716281167567,0.3545618273913514,1.419979135081081,-9.410591748824936,10.853991746897202,-4.493428735593686,-219.8480789119726,52.52000008352967,-67.46147783893768
-0.07533786281167566,0.35773572739135134,1.4133873350810813,-6.2350197488249375,11.853991746897202,-9.027779735593684,-219.8480789119726,51.60000008352967,-66.54148783893768
-0.07533786281167566,0.3418665273913514,1.4211998350810813,-7.563263748824937,11.289111746897202,-11.531596735593684,-219.8480789119726,51.60000008352967,-66.54148783893768
-0.1769003628116757,0.34211072739135134,1.4592858350810811,-7.082347748824937,7.289111746897202,-6.752970735593686,-220.76807891197257,51.60000008352967,-64.70147783893768
-0.09804296281167567,0.30304822739135134,1.427791635081081,-7.044179748824936,12.289111746897202,-12.058316735593685,-220.76807891197257,51.60000008352967,-64.70147783893768
-0.07387296281167567,0.3147669273913514,1.451961535081081,-11.296083748824936,13.090631746897204,-10.149916735593685,-220.76807891197257,51.60000008352967,-64.70147783893768
-0.11610936281167568,0.3360072273913514,1.4299889350810813,-8.128149748824937,13.441781746897204,-4.714802735593686,-220.76807891197257,50.68000008352967,-61.94147783893767
-0.18178316281167567,0.33283332739135135,1.4404869350810812,-7.265553748824937,14.823461746897204,-14.111746735593686,-220.76807891197257,50.68000008352967,-61.94147783893767
-0.09023046281167567,0.2891322273913514,1.4504967350810811,-9.219752748824936,14.579181746897204,-10.638466735593685,-220.76807891197257,50.68000008352967,-61.94147783893767
-0.1793417628116757,0.30158332739135135,1.4319420350810812,-6.151049748824937,10.411241746897202,10.682143264406315,-221.68807891197258,49.76000008352967,-59.18147783893768
-0.1952108628116757,0.2898646273913514,1.4492760350810812,-2.906775748824937,8.762391746897203,-1.1575517355936853,-221.68807891197258,49.76000008352967,-59.18147783893768
-0.13808196281167567,0.2871790273913514,1.4268151350810812,0.3374992511750634,5.976130746897203,5.857715264406314,-221.68807891197258,49.76000008352967,-59.18147783893768
-0.14565036281167565,0.28302862739135143,1.4502526350810812,0.3451332511750633,1.7089557468972019,8.987486264406314,-221.68807891197258,49.76000008352967,-59.18147783893768
-0.1480917628116757,0.3289271273913514,1.4185143350810812,3.299331251175063,-0.37501425310279757,11.033293264406316,-221.68807891197258,49.76000008352967,-59.18147783893768
-0.11269136281167567,0.3272181273913514,1.436580735081081,-0.15868374882493663,0.556283746897202,4.773746264406314,-221.68807891197258,50.68000008352967,-60.10147783893768
-0.12270116281167569,0.3191614273913514,1.438045535081081,0.3909342511750633,-1.596388253102798,5.506571264406314,-221.68807891197258,50.68000008352967,-60.10147783893768
-0.13002536281167565,0.3152552273913514,1.413875635081081,3.009255251175063,-3.1689070531027976,0.7890134644063145,-221.68807891197258,50.68000008352967,-60.10147783893768
-0.10927336281167567,0.30988412739135135,1.405330735081081,2.1237592511750636,-5.909365253102798,2.9951202644063146,-221.68807891197258,50.68000008352967,-60.10147783893768
-0.11220306281167568,0.31672002739135136,1.4341393350810812,-0.8228058488249366,-0.04676925310279767,0.15542566440631453,-221.68807891197258,50.68000008352967,-60.10147783893768
-0.14272066281167567,0.32575322739135143,1.4412194350810812,2.9558202511750635,-0.9551662531027976,1.8577152644063144,-221.68807891197258,50.68000008352967,-60.10147783893768
-0.12343356281167568,0.31501112739135134,1.4407311350810812,3.1771942511750635,-0.9246322531027977,4.819547264406314,-221.68807891197258,50.68000008352967,-61.021477838937685
-0.11586516281167568,0.3084193273913514,1.4258385350810812,2.8260492511750632,0.9684977468972025,4.995120264406315,-221.68807891197258,50.68000008352967,-61.021477838937685
-0.12563076281167568,0.3198939273913514,1.415584635081081,2.948186251175063,1.0142987468972025,2.934051264406315,-221.68807891197258,51.60000008352967,-61.021477838937685
-0.12050386281167567,0.31720832739135135,1.430233035081081,3.123759251175063,2.518115746897202,4.063822264406315,-221.68807891197258,51.60000008352967,-61.021477838937685
-0.11879486281167569,0.32453252739135136,1.4243736350810812,3.8642172511750634,1.0066657468972022,6.208861264406314,-221.68807891197258,51.60000008352967,-61.021477838937685
-0.09975186281167568,0.3281947273913514,1.4229088350810812,0.49780525117506347,-3.0620369531027976,3.4836702644063147,-221.68807891197258,52.52000008352967,-61.021477838937685
-0.10048436281167568,0.32990362739135143,1.4243736350810812,1.4672702511750635,-0.1460062531027977,-2.2338877355936853,-221.68807891197258,52.52000008352967,-61.021477838937685
-0.10976166281167567,0.32648572739135134,1.4258385350810812,0.2840642511750633,-1.5582202531027978,0.4989370644063145,-221.68807891197258,52.52000008352967,-61.021477838937685
-0.11684176281167567,0.32502082739135135,1.4290123350810813,-1.3876913488249367,1.915061746897202,-2.7300707355936855,-221.68807891197258,51.60000008352967,-61.94147783893767
-0.11855076281167569,0.3154993273913514,1.427791635081081,0.20009525117506333,0.7165887468972021,0.36916608440631454,-221.68807891197258,51.60000008352967,-61.94147783893767
-0.10536716281167567,0.31794072739135143,1.428768235081081,0.0016212511750632874,-0.840663253102798,0.8119141644063146,-221.68807891197258,52.52000008352967,-61.94147783893767
-0.11073826281167569,0.32453252739135136,1.421688135081081,-0.3113554488249366,-2.0238692531027977,1.6668762644063144,-221.68807891197258,52.52000008352967,-61.94147783893767
-0.11342376281167567,0.3311243273913514,1.427791635081081,1.0550562511750634,-2.4208152531027975,0.7432118644063146,-221.68807891197258,52.52000008352967,-61.94147783893767
-0.11342376281167567,0.32209112739135143,1.4192467350810811,-0.02891274882493655,-4.497151353102797,-2.2338877355936853,-222.6080789119726,51.60000008352967,-61.94147783893767
-0.11537686281167568,0.32453252739135136,1.4307213350810812,-0.3571570488249366,-3.000968153102798,2.1935932644063145,-222.6080789119726,51.60000008352967,-61.94147783893767
-0.11733006281167567,0.32453252739135136,1.430233035081081,0.9863542511750634,-2.6803572531027977,0.5829065644063145,-222.6080789119726,51.60000008352967,-61.94147783893767
-0.08974216281167567,0.3198939273913514,1.4280358350810811,1.6504762511750632,-2.649823253102798,2.0485552644063145,-221.68807891197258,52.52000008352967,-61.021477838937685
-0.09413666281167567,0.3240443273913514,1.4253502350810812,0.26879725117506337,-2.3215792531027977,0.9645859644063145,-221.68807891197258,52.52000008352967,-61.021477838937685
-0.09413666281167567,0.3281947273913514,1.431209635081081,-0.47929444882493666,0.08300174689720219,0.5065706644063145,-221.68807891197258,52.52000008352967,-61.94147783893767
-0.09413666281167567,0.3196497273913514,1.428768235081081,0.5207052511750634,0.1364367468972021,0.02565466440631453,-221.68807891197258,52.52000008352967,-61.94147783893767
-0.10732026281167568,0.3211146273913514,1.4319420350810812,0.9863542511750634,0.556283746897202,1.3309981644063145,-222.6080789119726,52.52000008352967,-61.94147783893767
-0.10609956281167567,0.32184702739135135,1.428524035081081,1.1313922511750634,0.8310927468972023,-0.3254904355936855,-222.6080789119726,52.52000008352967,-61.94147783893767
-0.10707616281167569,0.3184290273913514,1.4251061350810812,3.2611632511750632,1.0753677468972023,1.2928301644063145,-221.68807891197258,52.52000008352967,-61.94147783893767
-0.11000576281167566,0.32990362739135143,1.4219322350810812,1.5283392511750633,-0.4360822531027977,2.643975264406315,-221.68807891197258,52.52000008352967,-61.94147783893767
-0.09462496281167566,0.32917122739135135,1.4280358350810811,1.9100182511750634,0.16697074689720237,1.1248912644063145,-221.68807891197258,52.52000008352967,-61.94147783893767
-0.09779876281167567,0.3340540273913514,1.4175377350810812,-0.9602104488249367,-0.06967025310279773,-0.2033529355936855,-221.68807891197258,52.52000008352967,-61.94147783893767
-0.10463476281167568,0.3235560273913514,1.4270592350810811,-0.1815845488249367,1.021932746897202,-1.2109867355936856,-221.68807891197258,52.52000008352967,-61.94147783893767
-0.09901946281167569,0.3152552273913514,1.4387779350810812,1.3069652511750633,1.044833746897202,0.35389891440631455,-221.68807891197258,52.52000008352967,-61.94147783893767
-0.11244726281167568,0.3225794273913514,1.4358483350810811,0.6199422511750634,-0.5047852531027979,0.24702866440631455,-221.68807891197258,52.52000008352967,-61.94147783893767
-0.11122646281167568,0.32135872739135135,1.4314537350810812,-0.09761474882493659,-2.7872277531027976,1.0103874644063144,-221.68807891197258,52.52000008352967,-61.94147783893767
-0.10024016281167568,0.3274622273913514,1.4299889350810813,-0.9067753488249366,-2.2681442531027978,0.38443326440631453,-221.68807891197258,52.52000008352967,-61.94147783893767
-0.09340426281167567,0.3247767273913514,1.438289735081081,0.4291022511750633,-0.9933342531027978,1.3309981644063145,-221.68807891197258,52.52000008352967,-61.94147783893767
-0.10243746281167566,0.32648572739135134,1.4270592350810811,1.6504762511750632,-0.4284492531027979,1.2546622644063146,-221.68807891197258,52.52000008352967,-61.94147783893767
-0.10146086281167567,0.32209112739135143,1.4182701350810811,0.6733772511750633,-1.6498232531027979,1.0027538644063145,-221.68807891197258,52.52000008352967,-61.94147783893767
-0.09242766281167568,0.32868292739135135,1.4202233350810811,0.6657442511750633,-0.5353192531027977,0.6974103644063145,-221.68807891197258,52.52000008352967,-61.94147783893767
-0.08778896281167568,0.3311243273913514,1.4314537350810812,-0.22738604882493663,0.10590174689720211,-0.012513335593685448,-221.68807891197258,52.52000008352967,-61.94147783893767
-0.09877536281167566,0.3262415273913514,1.4292565350810813,1.7344462511750636,1.9455967468972024,2.2317612644063147,-221.68807891197258,52.52000008352967,-61.94147783893767
-0.10121676281167567,0.3311243273913514,1.4273033350810813,1.2687972511750636,2.0066657468972022,0.31573097440631454,-221.68807891197258,52.52000008352967,-61.94147783893767
-0.09584566281167568,0.32453252739135136,1.427791635081081,0.6428432511750635,1.602085746897202,-0.9361777355936854,-222.6080789119726,53.44000008352967,-61.94147783893767
-0.09364836281167567,0.32502082739135135,1.4258385350810812,1.8413162511750634,0.02193274689720237,1.3004637644063144,-222.6080789119726,53.44000008352967,-61.94147783893767
-0.09193936281167568,0.32648572739135134,1.4231529350810812,0.7497132511750633,-4.199441453102798,1.0332882644063144,-222.6080789119726,53.44000008352967,-61.94147783893767
-0.08510346281167568,0.3262415273913514,1.4275475350810811,2.1390262511750633,-0.9704342531027979,2.2470282644063144,-221.68807891197258,53.44000008352967,-62.861477838937674
-0.09389256281167567,0.3281947273913514,1.4292565350810813,1.2916982511750632,1.2433067468972019,1.8577152644063144,-221.68807891197258,53.44000008352967,-62.861477838937674
-0.08705656281167569,0.3252650273913514,1.4265709350810811,2.2000952511750635,1.334909746897202,2.2699292644063145,-221.68807891197258,53.44000008352967,-62.861477838937674
-0.08778896281167568,0.3303919273913514,1.431209635081081,0.6581102511750634,0.05246674689720221,0.7355782644063145,-221.68807891197258,53.44000008352967,-62.861477838937674
-0.09340426281167567,0.3272181273913514,1.4316979350810812,1.2687972511750636,-0.06967025310279773,0.7890134644063145,-221.68807891197258,53.44000008352967,-62.861477838937674
-0.09413666281167567,0.32599742739135135,1.4229088350810812,1.1695602511750636,0.8158257468972026,2.399700264406315,-221.68807891197258,52.52000008352967,-63.781477838937676
-0.09608976281167568,0.32965952739135135,1.4258385350810812,1.0245222511750636,0.3807117468972021,0.40733402440631455,-221.68807891197258,52.52000008352967,-63.781477838937676
-0.08949796281167567,0.3262415273913514,1.428524035081081,1.0168892511750633,-1.1460062531027977,0.6287080644063145,-221.68807891197258,52.52000008352967,-63.781477838937676
-0.08876556281167568,0.3316126273913514,1.4326744350810812,0.5512402511750634,-0.01623525310279783,0.8424485644063145,-221.68807891197258,53.44000008352967,-62.861477838937674
-0.09071866281167566,0.3303919273913514,1.4221764350810813,1.9023852511750632,0.36544374689720227,0.38443326440631453,-221.68807891197258,53.44000008352967,-62.861477838937674
-0.08852146281167568,0.32550912739135135,1.414852235081081,1.5817742511750632,-0.3368462531027978,0.5294714644063145,-221.68807891197258,53.44000008352967,-62.861477838937674
-0.08461516281167568,0.33356572739135143,1.4290123350810813,0.40620225117506337,-0.9169982531027978,1.7432122644063144,-221.68807891197258,53.44000008352967,-63.781477838937676
-0.08363866281167569,0.33356572739135143,1.435604135081081,0.6046752511750633,-0.9322662531027976,0.07908976440631454,-221.68807891197258,53.44000008352967,-63.781477838937676
-0.08778896281167568,0.33063612739135134,1.4268151350810812,0.5970412511750633,0.41887974689720187,-0.16518503559368547,-221.68807891197258,53.44000008352967,-63.781477838937676
-0.09535736281167569,0.32550912739135135,1.4309654350810812,0.04742325117506341,0.014298746897202008,-1.0201467355936855,-221.68807891197258,53.44000008352967,-63.781477838937676
-0.09413666281167567,0.3274622273913514,1.4255944350810812,2.7191792511750634,0.39597774689720255,1.3080973644063145,-221.68807891197258,53.44000008352967,-63.781477838937676
-0.07533786281167566,0.3289271273913514,1.4282799350810813,3.7497132511750633,2.495214746897202,1.7050442644063146,-221.68807891197258,53.44000008352967,-62.861477838937674
-0.08217376281167567,0.32965952739135135,1.4263268350810812,0.6046752511750633,1.8387267468972026,-0.10411633559368544,-221.68807891197258,53.44000008352967,-62.861477838937674
-0.09267186281167568,0.3367396273913514,1.4251061350810812,-0.5708975488249366,0.9990317468972019,1.0561889644063145,-221.68807891197258,53.44000008352967,-62.861477838937674
-0.08363866281167569,0.33283332739135135,1.4331627350810812,-0.20448524882493668,-0.41318225310279777,-1.0048797355936854,-221.68807891197258,53.44000008352967,-63.781477838937676
-0.07631436281167568,0.32917122739135135,1.4280358350810811,1.6886442511750634,0.8310927468972023,0.36916608440631454,-221.68807891197258,53.44000008352967,-63.781477838937676
-0.08583586281167567,0.33234502739135136,1.4192467350810811,0.36040025117506347,0.02193274689720237,0.7279447644063146,-221.68807891197258,53.44000008352967,-63.781477838937676
-0.08534756281167567,0.32917122739135135,1.4309654350810812,0.16192725117506335,0.9837647468972022,0.26992946440631455,-221.68807891197258,53.44000008352967,-63.781477838937676
-0.09218356281167568,0.33283332739135135,1.4336510350810812,-0.16631734882493665,-0.30631125310279783,0.7737462644063146,-221.68807891197258,53.44000008352967,-63.781477838937676
-0.08608006281167567,0.3311243273913514,1.430477235081081,1.0397892511750633,0.3807117468972021,1.3080973644063145,-221.68807891197258,53.44000008352967,-62.861477838937674
-0.08217376281167567,0.3303919273913514,1.4246178350810812,-0.10524874882493673,0.8387267468972026,-0.5010629355936854,-221.68807891197258,53.44000008352967,-62.861477838937674
-0.08144136281167567,0.3345423273913514,1.430233035081081,-0.16631734882493665,0.9379637468972022,2.5294712644063146,-221.68807891197258,53.44000008352967,-62.861477838937674
-0.08730076281167569,0.32965952739135135,1.4358483350810811,0.5588732511750634,1.090634746897202,-0.7148037355936855,-221.68807891197258,53.44000008352967,-63.781477838937676
-0.07802336281167567,0.3281947273913514,1.421688135081081,1.9481862511750632,2.403611746897202,-0.05831483559368544,-221.68807891197258,53.44000008352967,-63.781477838937676
-0.08168546281167567,0.33332162739135135,1.4324303350810812,0.40620225117506337,0.8768947468972024,0.6821431644063145,-221.68807891197258,53.44000008352967,-63.781477838937676
-0.08876556281167568,0.3308802273913514,1.4192467350810811,0.07795725117506347,-0.40554825310279785,0.8271813644063145,-221.68807891197258,53.44000008352967,-63.781477838937676
-0.08803316281167568,0.32965952739135135,1.4263268350810812,1.9176522511750633,1.0524667468972022,1.0027538644063145,-221.68807891197258,53.44000008352967,-63.781477838937676
-0.07899996281167566,0.3289271273913514,1.4258385350810812,0.5054382511750635,0.8387267468972026,0.23939506440631453,-221.68807891197258,53.44000008352967,-63.781477838937676
-0.09023046281167567,0.32209112739135143,1.4292565350810813,1.2382632511750633,-0.49715125310279795,0.9798530644063146,-221.68807891197258,53.44000008352967,-63.781477838937676
-0.08876556281167568,0.3313685273913514,1.4316979350810812,0.9176522511750633,-1.8101282531027978,2.0256542644063145,-221.68807891197258,53.44000008352967,-63.781477838937676
-0.08510346281167568,0.3252650273913514,1.4346276350810812,0.11612525117506345,-1.9093652531027978,1.0027538644063145,-221.68807891197258,53.44000008352967,-63.781477838937676
-0.08192966281167567,0.3316126273913514,1.4314537350810812,2.6886442511750634,0.8845277468972026,1.6439752644063144,-220.76807891197257,54.36000008352967,-63.781477838937676
-0.08754486281167569,0.3277064273913514,1.4258385350810812,1.5283392511750633,-0.4284492531027979,1.9493192644063146,-220.76807891197257,54.36000008352967,-63.781477838937676
-0.07338476281167568,0.3355189273913514,1.4255944350810812,2.4443692511750634,1.9990317468972019,0.9951202644063145,-220.76807891197257,54.36000008352967,-63.781477838937676
-0.07558196281167569,0.3347864273913514,1.4280358350810811,2.5970412511750633,1.9455967468972024,-0.4552614355936855,-221.68807891197258,53.44000008352967,-63.781477838937676
-0.08022066281167568,0.33380992739135135,1.419979135081081,-0.6243325488249366,-0.5734872531027979,-0.9361777355936854,-221.68807891197258,53.44000008352967,-63.781477838937676
-0.08095306281167568,0.3313685273913514,1.4246178350810812,2.7115452511750635,0.8845277468972026,2.1325252644063144,-221.68807891197258,53.44000008352967,-64.70147783893768
-0.08095306281167568,0.33747202739135135,1.4319420350810812,0.07032425117506347,-0.49715125310279795,0.7966470644063146,-221.68807891197258,53.44000008352967,-64.70147783893768
-0.07973236281167569,0.33332162739135135,1.4253502350810812,1.4291022511750633,-0.5811212531027978,1.0180210644063146,-221.68807891197258,53.44000008352967,-64.70147783893768
-0.08192966281167567,0.3355189273913514,1.4268151350810812,1.3985682511750634,-0.26051025310279785,0.2775630644063145,-221.68807891197258,54.36000008352967,-63.781477838937676
-0.08290616281167566,0.33332162739135135,1.4172936350810812,1.6504762511750632,0.7013217468972024,1.0027538644063145,-221.68807891197258,54.36000008352967,-63.781477838937676
-0.07802336281167567,0.33429822739135134,1.4221764350810813,0.4291022511750633,-0.5811212531027978,1.5142042644063145,-221.68807891197258,54.36000008352967,-63.781477838937676
-0.07094326281167566,0.3355189273913514,1.4221764350810813,1.3451332511750635,0.7165887468972021,0.20886076440631454,-221.68807891197258,53.44000008352967,-64.70147783893768
-0.07289646281167568,0.33063612739135134,1.4292565350810813,1.6352092511750635,0.6860547468972018,1.4226012644063144,-221.68807891197258,53.44000008352967,-64.70147783893768
-0.08119726281167568,0.3345423273913514,1.4319420350810812,1.2687972511750636,-0.5582202531027978,1.9722192644063146,-221.68807891197258,53.44000008352967,-64.70147783893768
-0.06996676281167567,0.3347864273913514,1.4204674350810813,3.2611632511750632,0.6784217468972025,1.7279442644063145,-221.68807891197258,53.44000008352967,-64.70147783893768
-0.06093356281167568,0.3294154273913514,1.4243736350810812,1.9023852511750632,2.029565746897202,0.8195477644063145,-221.68807891197258,53.44000008352967,-64.70147783893768
-0.08315036281167566,0.3355189273913514,1.4351158350810813,0.6046752511750633,1.2814747468972025,0.7661126644063145,-220.76807891197257,54.36000008352967,-64.70147783893768
-0.08144136281167567,0.3347864273913514,1.4194908350810813,-0.6090654488249366,0.27384074689720217,-0.5010629355936854,-220.76807891197257,54.36000008352967,-64.70147783893768
-0.07436126281167567,0.3325892273913514,1.4326744350810812,1.3069652511750633,1.1669707468972024,-1.3789257355936853,-220.76807891197257,54.36000008352967,-64.70147783893768
-0.08217376281167567,0.33283332739135135,1.4273033350810813,0.9405532511750634,0.08300174689720219,2.7584792644063145,-221.68807891197258,53.44000008352967,-64.70147783893768
-0.07777926281167567,0.3408900273913514,1.4185143350810812,1.5359722511750635,1.3196427468972023,1.4226012644063144,-221.68807891197258,53.44000008352967,-64.70147783893768
-0.06630466281167567,0.3321009273913514,1.4182701350810811,-0.08234774882493667,-0.5200522531027976,-0.22625373559368545,-221.68807891197258,53.44000008352967,-64.70147783893768
-0.08095306281167568,0.3308802273913514,1.4246178350810812,0.21536225117506347,1.9074287468972027,-2.5468647355936853,-221.68807891197258,54.36000008352967,-65.62147783893768
-0.09242766281167568,0.32965952739135135,1.4334069350810812,-0.6701341488249366,-1.5124182531027976,1.1783263644063147,-221.68807891197258,54.36000008352967,-65.62147783893768
-0.07802336281167567,0.3340540273913514,1.4219322350810812,0.9252852511750636,0.4875817468972019,0.9111508644063145,-221.68807891197258,54.36000008352967,-64.70147783893768
-0.06972256281167567,0.3350306273913514,1.4150963350810812,0.6733772511750633,0.7165887468972021,0.26992946440631455,-221.68807891197258,54.36000008352967,-64.70147783893768
-0.07387296281167567,0.3318568273913514,1.429500635081081,-0.41059214882493666,0.25857374689720203,-0.2720552355936855,-221.68807891197258,54.36000008352967,-64.70147783893768
-0.07948826281167569,0.3367396273913514,1.4292565350810813,-0.3495234488249366,-1.0009682531027977,-0.5926659355936854,-220.76807891197257,54.36000008352967,-64.70147783893768
-0.06874606281167568,0.33283332739135135,1.4243736350810812,0.8947512511750633,-0.01623525310279783,0.5218378644063145,-220.76807891197257,54.36000008352967,-64.70147783893768
-0.07753506281167567,0.3362513273913514,1.4236412350810812,0.8642172511750634,0.7776577468972019,0.6974103644063145,-220.76807891197257,54.36000008352967,-64.70147783893768
-0.07387296281167567,0.3318568273913514,1.4260826350810811,0.35276625117506333,1.670787746897202,-0.2491545355936855,-221.68807891197258,54.36000008352967,-64.70147783893768
-0.06899016281167568,0.3294154273913514,1.4268151350810812,0.6428432511750635,0.3196427468972023,-0.07358203559368548,-221.68807891197258,54.36000008352967,-64.70147783893768
-0.07607026281167568,0.33698372739135135,1.4275475350810811,1.0855912511750634,-1.2299762531027976,2.964586264406315,-221.68807891197258,54.36000008352967,-64.70147783893768
-0.06923436281167568,0.3482142273913514,1.428768235081081,0.4291022511750633,-0.1536402531027976,0.26992946440631455,-221.68807891197258,54.36000008352967,-64.70147783893768
-0.06239836281167567,0.3433314273913514,1.4214440350810813,0.43673625117506343,1.021932746897202,-1.3865587355936855,-221.68807891197258,54.36000008352967,-64.70147783893768
-0.07143156281167569,0.33063612739135134,1.4221764350810813,0.9329192511750635,1.777657746897202,0.8195477644063145,-220.76807891197257,54.36000008352967,-64.70147783893768
-0.08046476281167568,0.3321009273913514,1.420955735081081,-0.47166084882493664,-2.008602253102798,0.45313555440631453,-220.76807891197257,54.36000008352967,-64.70147783893768
-0.07265226281167568,0.34162242739135135,1.436336535081081,1.8413162511750634,0.6555197468972023,0.45313555440631453,-220.76807891197257,54.36000008352967,-64.70147783893768
-0.07143156281167569,0.3394251273913514,1.421688135081081,0.8489502511750633,1.7547567468972018,-0.2033529355936855,-221.68807891197258,54.36000008352967,-64.70147783893768
-0.07338476281167568,0.3360072273913514,1.4243736350810812,2.0092552511750634,1.334909746897202,1.1325248644063146,-221.68807891197258,54.36000008352967,-64.70147783893768
-0.06923436281167568,0.3352747273913514,1.4211998350810813,0.5054382511750635,-1.0544032531027976,0.5905401644063145,-221.68807891197258,54.36000008352967,-65.62147783893768
-0.06606046281167567,0.3357630273913514,1.4170494350810812,-0.6014318488249366,-0.886464253102798,0.26992946440631455,-221.68807891197258,54.36000008352967,-65.62147783893768
-0.07216396281167568,0.33796032739135135,1.4231529350810812,1.3985682511750634,0.3807117468972021,-0.7758717355936854,-221.68807891197258,54.36000008352967,-65.62147783893768
-0.07265226281167568,0.3367396273913514,1.4319420350810812,0.5817742511750634,1.1288027468972026,0.12489126440631454,-221.68807891197258,54.36000008352967,-64.70147783893768
-0.06630466281167567,0.33014782739135135,1.413875635081081,2.513072251175063,1.8081917468972022,2.4378682644063145,-221.68807891197258,54.36000008352967,-64.70147783893768
-0.07631436281167568,0.3418665273913514,1.423397135081081,1.1619272511750633,0.1364367468972021,0.5523721644063145,-221.68807891197258,54.36000008352967,-65.62147783893768
-0.058003862811675674,0.3389368273913514,1.4202233350810811,1.2382632511750633,0.5944517468972026,0.6058073644063146,-221.68807891197258,54.36000008352967,-65.62147783893768
-0.06215426281167567,0.33747202739135135,1.427791635081081,0.3909342511750633,-0.09257125310279779,1.0180210644063146,-221.68807891197258,54.36000008352967,-65.62147783893768
-0.07387296281167567,0.3311243273913514,1.4343834350810811,0.46727025117506327,0.09826874689720233,-0.9590777355936854,-221.68807891197258,54.36000008352967,-65.62147783893768
-0.08290616281167566,0.33380992739135135,1.4219322350810812,-0.16631734882493665,-0.6116552531027977,0.46076914440631456,-221.68807891197258,54.36000008352967,-65.62147783893768
-0.06801366281167569,0.3360072273913514,1.422420535081081,0.46727025117506327,-1.7948612531027979,1.8653492644063143,-221.68807891197258,54.36000008352967,-65.62147783893768
-0.059224562811675666,0.3357630273913514,1.4326744350810812,-0.08998174882493659,-1.3673802531027976,1.6592422644063145,-221.68807891197258,54.36000008352967,-65.62147783893768
-0.07704686281167568,0.3408900273913514,1.4270592350810811,1.5512402511750634,3.0066657468972022,1.1935935644063145,-221.68807891197258,54.36000008352967,-64.70147783893768
-0.06117766281167568,0.32965952739135135,1.4246178350810812,0.5970412511750633,1.403611746897202,-1.1346507355936857,-221.68807891197258,54.36000008352967,-64.70147783893768
-0.06728116281167566,0.3372279273913514,1.4348717350810811,1.3222322511750635,2.426512746897202,1.2699294644063146,-221.68807891197258,54.36000008352967,-64.70147783893768
-0.06776946281167569,0.33844862739135134,1.4275475350810811,0.6046752511750633,0.47994774689720243,0.5676393644063146,-221.68807891197258,54.36000008352967,-65.62147783893768
-0.07045506281167567,0.3362513273913514,1.421688135081081,0.9023852511750632,0.5639177468972023,0.5371050644063146,-221.68807891197258,54.36000008352967,-65.62147783893768
-0.06630466281167567,0.3284388273913514,1.422664735081081,-0.1892181488249366,0.6402537468972018,0.3462653244063145,-221.68807891197258,54.36000008352967,-65.62147783893768
-0.06313076281167566,0.33649542739135135,1.4292565350810813,-0.7693707488249366,-1.3826472531027978,0.5981736644063145,-221.68807891197258,54.36000008352967,-65.62147783893768
-0.06239836281167567,0.34137822739135143,1.4280358350810811,0.6046752511750633,-1.5276852531027978,0.04855536440631453,-221.68807891197258,54.36000008352967,-65.62147783893768
-0.06435146281167568,0.3321009273913514,1.4280358350810811,0.29933125117506343,-0.886464253102798,0.14015846440631455,-221.68807891197258,54.36000008352967,-65.62147783893768
-0.06093356281167568,0.3316126273913514,1.435604135081081,1.5207052511750634,0.4570477468972025,2.6821432644063146,-221.68807891197258,54.36000008352967,-65.62147783893768
-0.07411716281167567,0.33747202739135135,1.4268151350810812,1.7726142511750633,2.1669707468972024,-0.5163300355936855,-221.68807891197258,54.36000008352967,-65.62147783893768
-0.06288666281167567,0.3308802273913514,1.4358483350810811,0.4214692511750633,-0.35974725310279787,-0.9590777355936854,-221.68807891197258,54.36000008352967,-65.62147783893768
-0.06899016281167568,0.3352747273913514,1.4319420350810812,0.09322425117506339,-2.817762053102798,2.9416852644063147,-221.68807891197258,54.36000008352967,-65.62147783893768
-0.06728116281167566,0.3430872273913514,1.4185143350810812,1.7955142511750632,-1.0773042531027976,2.3691662644063145,-221.68807891197258,54.36000008352967,-65.62147783893768
-0.056294862811675686,0.34113412739135135,1.4165611350810812,0.9634532511750633,0.29674174689720223,0.4989370644063145,-221.68807891197258,54.36000008352967,-65.62147783893768
-0.05751556281167568,0.3235560273913514,1.4343834350810811,2.0321562511750635,-1.7795942531027977,-0.8598417355936855,-221.68807891197258,54.36000008352967,-65.62147783893768
-0.07655856281167568,0.3355189273913514,1.4336510350810812,4.253530251175063,-2.3139452531027977,-1.1804527355936854,-221.68807891197258,54.36000008352967,-65.62147783893768
-0.05702726281167568,0.34552862739135143,1.4221764350810813,3.1161252511750637,-1.8253952531027977,2.0256542644063145,-221.68807891197258,54.36000008352967,-65.62147783893768
-0.05946866281167566,0.34894662739135135,1.4263268350810812,2.4291022511750633,-0.5582202531027978,2.0943572644063146,-221.68807891197258,54.36000008352967,-65.62147783893768
-0.05580656281167569,0.3399134273913514,1.4116783350810813,2.5436062511750634,1.4799477468972024,0.6668760644063145,-220.76807891197257,54.36000008352967,-66.54148783893768
-0.04701756281167567,0.3347864273913514,1.4258385350810812,-0.13578274882493657,1.6326197468972024,-1.2262537355936853,-220.76807891197257,54.36000008352967,-66.54148783893768
-0.06410736281167569,0.3428431273913514,1.4316979350810812,-1.1357829888249367,-0.1460062531027977,0.3997004444063145,-220.76807891197257,54.36000008352967,-66.54148783893768
-0.07021086281167567,0.3404017273913514,1.4280358350810811,1.2611632511750632,2.0601007468972026,0.9340515644063145,-220.76807891197257,54.36000008352967,-66.54148783893768
-0.05165616281167566,0.3345423273913514,1.4182701350810811,-1.1281493988249367,-0.05440325310279759,-0.5773987355936855,-220.76807891197257,54.36000008352967,-66.54148783893768
-0.05727146281167568,0.33747202739135135,1.4165611350810812,-0.7617371488249367,0.6173527468972027,1.1248912644063145,-221.68807891197258,54.36000008352967,-67.46147783893768
-0.06752536281167566,0.3408900273913514,1.4255944350810812,1.0779572511750635,1.0982687468972023,1.4226012644063144,-221.68807891197258,54.36000008352967,-67.46147783893768
-0.056294862811675686,0.3391810273913514,1.4214440350810813,0.1390262511750633,-0.6040212531027978,-0.012513335593685448,-221.68807891197258,54.36000008352967,-67.46147783893768
-0.05434176281167567,0.3289271273913514,1.4255944350810812,3.3298662511750634,0.5868177468972022,-2.6308337355936855,-221.68807891197258,54.36000008352967,-66.54148783893768
-0.06288666281167567,0.3345423273913514,1.4241295350810812,3.016888251175063,-1.8940982531027977,1.1172576644063146,-221.68807891197258,54.36000008352967,-66.54148783893768
-0.05971286281167566,0.3482142273913514,1.4275475350810811,1.7802472511750635,0.5715507468972025,1.3080973644063145,-221.68807891197258,54.36000008352967,-66.54148783893768
-0.051412062811675666,0.3465052273913514,1.4163170350810812,-0.5327295488249366,-0.27577725310279755,-1.1880857355936856,-221.68807891197258,54.36000008352967,-66.54148783893768
-0.04726166281167567,0.3362513273913514,1.4324303350810812,-0.08234774882493667,2.1288027468972026,-0.5468644355936855,-221.68807891197258,54.36000008352967,-66.54148783893768
-0.06459566281167568,0.3367396273913514,1.428768235081081,0.7649802511750634,0.2280397468972022,-1.1575517355936853,-220.76807891197257,54.36000008352967,-66.54148783893768
-0.07021086281167567,0.34113412739135135,1.4172936350810812,0.10085825117506331,0.006665746897202229,0.6974103644063145,-220.76807891197257,54.36000008352967,-66.54148783893768
-0.05165616281167566,0.3428431273913514,1.4238854350810812,2.7344462511750636,1.556283746897202,1.5676392644063144,-220.76807891197257,54.36000008352967,-66.54148783893768
-0.05507416281167567,0.34211072739135134,1.4336510350810812,-0.021278748824936633,-4.260510153102798,-0.3941927355936855,-221.68807891197258,54.36000008352967,-66.54148783893768
-0.05751556281167568,0.3477259273913514,1.4297447350810812,0.09322425117506339,1.2127717468972024,-0.9667117355936855,-221.68807891197258,54.36000008352967,-66.54148783893768
-0.06361906281167569,0.32990362739135143,1.4263268350810812,0.7573472511750634,-0.2452432531027977,-0.47052853559368546,-221.68807891197258,54.36000008352967,-66.54148783893768
-0.05458586281167567,0.33234502739135136,1.4273033350810813,1.4825372511750632,1.044833746897202,1.6974102644063147,-221.68807891197258,54.36000008352967,-66.54148783893768
-0.053853462811675676,0.33698372739135135,1.4319420350810812,1.2764312511750635,-1.1689072531027977,1.6668762644063144,-221.68807891197258,54.36000008352967,-66.54148783893768
-0.05702726281167568,0.3435755273913514,1.4263268350810812,2.9100182511750634,1.9913977468972024,0.4149676144063145,-220.76807891197257,55.28000008352967,-66.54148783893768
-0.05873626281167567,0.34479622739135135,1.422420535081081,3.192461251175063,2.113535746897202,0.28519662440631455,-220.76807891197257,55.28000008352967,-66.54148783893768
-0.05092376281167567,0.3391810273913514,1.4221764350810813,0.7115452511750633,0.006665746897202229,0.42260120440631455,-220.76807891197257,55.28000008352967,-66.54148783893768
-0.059224562811675666,0.3418665273913514,1.4124108350810811,2.2687972511750636,2.052466746897202,2.0943572644063146,-221.68807891197258,55.28000008352967,-66.54148783893768
-0.052632762811675685,0.34577282739135135,1.4248619350810812,0.06269025117506333,0.6631537468972026,0.28519662440631455,-221.68807891197258,55.28000008352967,-66.54148783893768
-0.05483006281167567,0.3382044273913514,1.4185143350810812,0.3909342511750633,-0.11547225310279785,0.17832636440631452,-221.68807891197258,55.28000008352967,-66.54148783893768
-0.06410736281167569,0.3438197273913514,1.4219322350810812,1.1695602511750636,0.7700237468972024,1.1096240644063147,-221.68807891197258,55.28000008352967,-66.54148783893768
-0.04970306281167568,0.3430872273913514,1.4229088350810812,1.3833012511750633,0.46468074689720185,0.8424485644063145,-220.76807891197257,55.28000008352967,-66.54148783893768
-0.047505762811675664,0.34064582739135135,1.419979135081081,0.2382632511750633,0.6326197468972024,0.46076914440631456,-220.76807891197257,55.28000008352967,-66.54148783893768
-0.05727146281167568,0.3428431273913514,1.4221764350810813,1.3680342511750632,0.9990317468972019,0.3309981544063145,-220.76807891197257,55.28000008352967,-66.54148783893768
-0.06703706281167567,0.3433314273913514,1.4236412350810812,0.3909342511750633,0.159336746897202,-1.4705287355936854,-220.76807891197257,55.28000008352967,-66.54148783893768
-0.05727146281167568,0.3396693273913514,1.4136315350810813,1.9405532511750634,0.9532297468972026,0.8042805644063145,-220.76807891197257,55.28000008352967,-66.54148783893768
-0.04726166281167567,0.3433314273913514,1.422420535081081,0.4214692511750633,0.24330674689720233,0.9264179644063145,-220.76807891197257,54.36000008352967,-66.54148783893768
-0.05067966281167567,0.3440638273913514,1.4258385350810812,0.10849225117506345,0.9913977468972024,-0.07358203559368548,-220.76807891197257,54.36000008352967,-66.54148783893768
-0.05995696281167569,0.33649542739135135,1.4265709350810811,1.3451332511750635,1.5181157468972022,-1.1957197355936855,-220.76807891197257,54.36000008352967,-66.54148783893768
-0.06361906281167569,0.33747202739135135,1.4197350350810811,-0.3113554488249366,-0.7643272531027976,-0.6232007355936854,-220.76807891197257,54.36000008352967,-67.46147783893768
-0.05971286281167566,0.3425989273913514,1.4211998350810813,0.39856825117506345,0.5486497468972025,0.20122716440631452,-220.76807891197257,54.36000008352967,-67.46147783893768
-0.04994726281167568,0.34626112739135134,1.4153404350810812,0.06269025117506333,-0.3444792531027976,0.11725766440631452,-220.76807891197257,54.36000008352967,-67.46147783893768
-0.058003862811675674,0.3433314273913514,1.4211998350810813,0.5817742511750634,0.8921617468972021,-1.0659487355936856,-220.76807891197257,54.36000008352967,-67.46147783893768
-0.06239836281167567,0.34113412739135135,1.4238854350810812,1.8413162511750634,1.4188797468972019,-0.37892553559368547,-220.76807891197257,54.36000008352967,-67.46147783893768
-0.05409756281167567,0.3433314273913514,1.4192467350810811,0.7878812511750635,0.7013217468972024,0.19359356440631453,-220.76807891197257,54.36000008352967,-66.54148783893768
-0.05507416281167567,0.33844862739135134,1.4351158350810813,1.3833012511750633,2.0066657468972022,-0.7377037355936854,-220.76807891197257,54.36000008352967,-66.54148783893768
-0.06435146281167568,0.3430872273913514,1.4251061350810812,0.8413162511750634,0.823459746897202,1.6363412644063144,-220.76807891197257,54.36000008352967,-66.54148783893768
-0.05946866281167566,0.3428431273913514,1.430233035081081,0.1390262511750633,-0.31394525310279775,0.36916608440631454,-220.76807891197257,55.28000008352967,-66.54148783893768
-0.06215426281167567,0.3391810273913514,1.4236412350810812,3.0245222511750636,-0.46661725310279767,3.2241282644063145,-220.76807891197257,55.28000008352967,-66.54148783893768
-0.03749606281167568,0.3418665273913514,1.421688135081081,1.0092552511750634,0.06010074689720213,-0.4781622355936854,-220.76807891197257,55.28000008352967,-66.54148783893768
-0.04872646281167568,0.3391810273913514,1.4263268350810812,0.17719425117506327,-0.5429532531027976,1.8195472644063146,-220.76807891197257,55.28000008352967,-66.54148783893768
-0.05775976281167568,0.34528452739135135,1.4299889350810813,0.1390262511750633,0.334909746897202,-0.07358203559368548,-220.76807891197257,55.28000008352967,-66.54148783893768
-0.05214446281167569,0.3445521273913514,1.413875635081081,0.7497132511750633,0.09063474689720241,-0.11174993559368546,-220.76807891197257,55.28000008352967,-67.46147783893768
-0.055318262811675664,0.3396693273913514,1.4163170350810812,-0.6319661488249366,-0.06203725310279795,-0.21098653559368552,-220.76807891197257,55.28000008352967,-67.46147783893768
-0.05873626281167567,0.34577282739135135,1.4107018350810812,1.5894082511750636,1.9684977468972025,2.3080972644063147,-220.76807891197257,55.28000008352967,-67.46147783893768
-0.04555266281167568,0.3501673273913514,1.427791635081081,0.9634532511750633,-1.176540253102798,0.8042805644063145,-220.76807891197257,55.28000008352967,-67.46147783893768
-0.05312106281167568,0.34992322739135134,1.4229088350810812,1.7497132511750633,1.0830017468972026,-0.4170934355936855,-220.76807891197257,55.28000008352967,-67.46147783893768
-0.05214446281167569,0.3396693273913514,1.421688135081081,1.1237592511750636,0.7394897468972021,-0.3483911355936855,-220.76807891197257,55.28000008352967,-67.46147783893768
-0.04921476281167568,0.3430872273913514,1.4275475350810811,0.6733772511750633,0.3196427468972023,1.0714561644063145,-220.76807891197257,55.28000008352967,-67.46147783893768
-0.05116796281167567,0.3508997273913514,1.4236412350810812,1.2000952511750635,1.7547567468972018,1.9569522644063144,-220.76807891197257,55.28000008352967,-67.46147783893768
-0.04530856281167568,0.3465052273913514,1.420955735081081,-0.3571570488249366,0.16697074689720237,-2.1193837355936855,-220.76807891197257,55.28000008352967,-67.46147783893768
-0.05312106281167568,0.33844862739135134,1.4214440350810813,-0.13578274882493657,0.11353574689720203,-0.8980097355936855,-220.76807891197257,55.28000008352967,-67.46147783893768
-0.06142186281167568,0.3440638273913514,1.4202233350810811,2.4672702511750635,3.090634746897202,1.7966472644063147,-220.76807891197257,55.28000008352967,-67.46147783893768
-0.04994726281167568,0.3487025273913514,1.4282799350810813,0.30696525117506335,-0.5505862531027979,0.8119141644063146,-220.76807891197257,55.28000008352967,-67.46147783893768
-0.04091396281167567,0.34577282739135135,1.4229088350810812,1.7497132511750633,2.472313746897202,0.06382256440631451,-220.76807891197257,55.28000008352967,-67.46147783893768
-0.04799406281167569,0.3469935273913514,1.4219322350810812,0.39856825117506345,-0.03913625310279789,0.25466226440631456,-220.76807891197257,55.28000008352967,-67.46147783893768
-0.05067966281167567,0.3482142273913514,1.422420535081081,0.9100182511750634,0.6631537468972026,0.5676393644063146,-220.76807891197257,55.28000008352967,-67.46147783893768
-0.055318262811675664,0.3428431273913514,1.4190026350810812,1.4672702511750635,1.8845277468972026,0.30046379440631454,-220.76807891197257,55.28000008352967,-67.46147783893768
-0.05360936281167568,0.34430792739135135,1.420955735081081,-0.3266227488249366,-0.26814325310279763,0.49130346440631456,-220.76807891197257,54.36000008352967,-66.54148783893768
-0.04872646281167568,0.3506556273913514,1.4236412350810812,1.4520032511750633,0.7929247468972025,1.4149672644063145,-220.76807891197257,54.36000008352967,-66.54148783893768
-0.047749962811675664,0.34211072739135134,1.4211998350810813,0.06269025117506333,0.21277274689720205,0.7508454644063145,-220.76807891197257,54.36000008352967,-66.54148783893768
-0.05312106281167568,0.3513880273913514,1.420955735081081,0.15429325117506343,0.3196427468972023,0.5829065644063145,-220.76807891197257,55.28000008352967,-67.46147783893768
-0.04726166281167567,0.3508997273913514,1.4246178350810812,0.5665072511750633,-0.03913625310279789,-1.6079327355936854,-220.76807891197257,55.28000008352967,-67.46147783893768
-0.05458586281167567,0.34626112739135134,1.413875635081081,0.30696525117506335,0.2356727468972024,0.3615325044063145,-220.76807891197257,55.28000008352967,-67.46147783893768
-0.05824796281167567,0.3445521273913514,1.4158287350810812,1.7191792511750634,2.205138746897202,1.1172576644063146,-220.76807891197257,55.28000008352967,-67.46147783893768
-0.04677336281167567,0.35627082739135135,1.4185143350810812,1.1771942511750635,-0.35211325310279795,1.1172576644063146,-220.76807891197257,55.28000008352967,-67.46147783893768
-0.047505762811675664,0.3506556273913514,1.419979135081081,0.5359722511750633,0.8310927468972023,-1.8064067355936855,-220.76807891197257,54.36000008352967,-67.46147783893768
-0.06117766281167568,0.3382044273913514,1.4165611350810812,0.5207052511750634,0.25857374689720203,0.6134408644063145,-221.68807891197258,55.28000008352967,-67.46147783893768
-0.04677336281167567,0.34626112739135134,1.420711535081081,2.5283392511750633,1.044833746897202,2.1935932644063145,-221.68807891197258,55.28000008352967,-67.46147783893768
-0.04482026281167567,0.35260872739135135,1.4204674350810813,1.6581102511750632,0.6326197468972024,-0.2491545355936855,-221.68807891197258,55.28000008352967,-67.46147783893768
-0.05287686281167568,0.3438197273913514,1.4265709350810811,0.21536225117506347,0.05246674689720221,-0.6155667355936855,-220.76807891197257,55.28000008352967,-67.46147783893768
-0.048482362811675686,0.34528452739135135,1.412166635081081,0.7802472511750633,-3.252876553102798,-0.012513335593685448,-220.76807891197257,55.28000008352967,-67.46147783893768
-0.04262296281167567,0.3482142273913514,1.4180260350810812,0.18482725117506327,-0.12310525310279763,0.42260120440631455,-220.76807891197257,55.28000008352967,-67.46147783893768
-0.04335546281167568,0.34845832739135135,1.4180260350810812,1.7802472511750635,0.6555197468972023,0.4302347944063145,-220.76807891197257,55.28000008352967,-66.54148783893768
-0.05067966281167567,0.3477259273913514,1.4182701350810811,0.18482725117506327,0.34254374689720235,0.056188964406314545,-220.76807891197257,55.28000008352967,-66.54148783893768
-0.04897066281167568,0.3513880273913514,1.4182701350810811,0.10085825117506331,-1.3368462531027978,-0.6461007355936855,-220.76807891197257,55.28000008352967,-67.46147783893768
-0.04726166281167567,0.3477259273913514,1.4185143350810812,0.5588732511750634,0.1440697468972023,0.36916608440631454,-220.76807891197257,55.28000008352967,-67.46147783893768
-0.04530856281167568,0.3450404273913514,1.4168053350810812,2.6046752511750633,1.4646807468972018,1.3080973644063145,-220.76807891197257,55.28000008352967,-67.46147783893768
-0.05116796281167567,0.3418665273913514,1.4260826350810811,1.0855912511750634,0.9761307468972018,0.5600057644063146,-220.76807891197257,55.28000008352967,-67.46147783893768
-0.05287686281167568,0.3496790273913514,1.4258385350810812,0.3298662511750634,-0.2376092531027978,0.3080973844063145,-220.76807891197257,55.28000008352967,-67.46147783893768
-0.048482362811675686,0.3501673273913514,1.4219322350810812,0.5588732511750634,1.7547567468972018,0.36916608440631454,-220.76807891197257,55.28000008352967,-67.46147783893768
-0.04677336281167567,0.3450404273913514,1.4255944350810812,0.8413162511750634,0.5181157468972022,0.2775630644063145,-220.76807891197257,54.36000008352967,-67.46147783893768
-0.04384366281167568,0.3496790273913514,1.4246178350810812,0.3680342511750634,-0.22234225310279765,0.39206685240631456,-220.76807891197257,54.36000008352967,-67.46147783893768
-0.053853462811675676,0.35212042739135135,1.4177819350810812,-0.3495234488249366,-1.0238692531027977,0.9874867644063146,-220.76807891197257,55.28000008352967,-67.46147783893768
-0.04945896281167568,0.34797002739135136,1.4192467350810811,0.46727025117506327,0.3272757468972025,0.8119141644063146,-220.76807891197257,55.28000008352967,-67.46147783893768
-0.04970306281167568,0.3435755273913514,1.4236412350810812,1.5741402511750633,2.602085746897202,0.36916608440631454,-220.76807891197257,55.28000008352967,-67.46147783893768
-0.05605076281167569,0.34894662739135135,1.4221764350810813,1.6810112511750632,1.556283746897202,2.567639264406315,-220.76807891197257,55.28000008352967,-67.46147783893768
-0.048482362811675686,0.34626112739135134,1.4241295350810812,-0.11288174882493673,-0.5047852531027979,0.35389891440631455,-220.76807891197257,55.28000008352967,-67.46147783893768
-0.04335546281167568,0.33796032739135135,1.4275475350810811,1.4291022511750633,1.1517037468972027,0.9798530644063146,-220.76807891197257,55.28000008352967,-67.46147783893768
-0.04823826281167569,0.3482142273913514,1.420711535081081,0.46727025117506327,-0.008602253102797608,-1.4094597355936855,-220.76807891197257,55.28000008352967,-67.46147783893768
-0.05824796281167567,0.3501673273913514,1.4175377350810812,1.4214692511750635,0.7929247468972025,0.5447385644063145,-220.76807891197257,55.28000008352967,-67.46147783893768
-0.03554296281167568,0.34992322739135134,1.4177819350810812,-0.02891274882493655,0.2280397468972022,0.26992946440631455,-220.76807891197257,55.28000008352967,-67.46147783893768
-0.04652926281167567,0.3404017273913514,1.4331627350810812,-0.8457066488249366,0.02193274689720237,-0.4857957355936855,-220.76807891197257,55.28000008352967,-67.46147783893768
-0.04945896281167568,0.3386927273913514,1.4177819350810812,-0.3113554488249366,1.380711746897202,-0.3102232355936855,-220.76807891197257,55.28000008352967,-67.46147783893768
-0.05043546281167567,0.3474818273913514,1.4214440350810813,2.2611632511750632,1.3043757468972026,1.1325248644063146,-220.76807891197257,54.36000008352967,-67.46147783893768
-0.04262296281167567,0.35334112739135143,1.4177819350810812,0.024522251175063348,1.312008746897202,0.30046379440631454,-220.76807891197257,54.36000008352967,-67.46147783893768
-0.051412062811675666,0.3469935273913514,1.4241295350810812,0.8336822511750634,1.6402537468972018,0.7508454644063145,-220.76807891197257,54.36000008352967,-67.46147783893768
-0.04408786281167568,0.3430872273913514,1.4197350350810811,1.1084922511750634,0.5028487468972025,0.6668760644063145,-220.76807891197257,55.28000008352967,-67.46147783893768
-0.050191362811675674,0.34528452739135135,1.420711535081081,0.03978925117506327,1.0371997468972025,-1.2033527355936853,-220.76807891197257,55.28000008352967,-67.46147783893768
-0.047749962811675664,0.3435755273913514,1.420711535081081,0.26879725117506337,-0.32157925310279767,0.02565466440631453,-220.76807891197257,54.36000008352967,-67.46147783893768
-0.05409756281167567,0.34992322739135134,1.422664735081081,0.8794842511750636,0.9226957468972024,1.2470287644063145,-220.76807891197257,54.36000008352967,-67.46147783893768
-0.04555266281167568,0.3504114273913514,1.4187584350810811,0.024522251175063348,0.7318557468972018,-1.4628947355936854,-220.76807891197257,54.36000008352967,-67.46147783893768
-0.053853462811675676,0.3433314273913514,1.413875635081081,1.0168892511750633,-0.3902812531027977,0.3462653244063145,-220.76807891197257,54.36000008352967,-67.46147783893768
-0.05360936281167568,0.33771612739135143,1.4299889350810813,1.2535302511750634,-1.3215792531027977,-1.5315977355936856,-220.76807891197257,54.36000008352967,-67.46147783893768
-0.03920506281167567,0.34015752739135136,1.419979135081081,0.9329192511750635,-0.9475332531027978,3.8806162644063145,-220.76807891197257,54.36000008352967,-67.46147783893768
-0.04189056281167568,0.3506556273913514,1.4221764350810813,1.4138352511750631,1.0982687468972023,0.8042805644063145,-220.76807891197257,55.28000008352967,-67.46147783893768
-0.04408786281167568,0.34797002739135136,1.421688135081081,1.0397892511750633,2.3501767468972026,-2.0506817355936855,-220.76807891197257,55.28000008352967,-67.46147783893768
-0.05116796281167567,0.34162242739135135,1.4282799350810813,1.0779572511750635,0.10590174689720211,0.9035172644063145,-220.76807891197257,55.28000008352967,-67.46147783893768
-0.04579686281167568,0.3501673273913514,1.4238854350810812,2.5207052511750634,1.3196427468972023,1.5294712644063146,-220.76807891197257,55.28000008352967,-67.46147783893768
-0.04359956281167568,0.3438197273913514,1.4158287350810812,0.20772825117506333,1.3501767468972026,-0.3560247355936854,-220.76807891197257,55.28000008352967,-67.46147783893768
-0.04701756281167567,0.34479622739135135,1.4263268350810812,0.10085825117506331,0.3272757468972025,0.4989370644063145,-220.76807891197257,54.36000008352967,-67.46147783893768
-0.050191362811675674,0.3469935273913514,1.428768235081081,0.7497132511750633,0.3043757468972026,0.4836699044063145,-220.76807891197257,54.36000008352967,-67.46147783893768
-0.04164646281167568,0.34552862739135143,1.4214440350810813,1.2229952511750635,1.3043757468972026,-0.7682387355936854,-220.76807891197257,54.36000008352967,-67.46147783893768
-0.052632762811675685,0.34894662739135135,1.421688135081081,-0.08234774882493667,0.5028487468972025,-1.8445747355936852,-220.76807891197257,55.28000008352967,-68.38147783893768
-0.04994726281167568,0.3460169273913514,1.423397135081081,0.5588732511750634,0.7700237468972024,-0.6384677355936855,-220.76807891197257,55.28000008352967,-68.38147783893768
-0.044576162811675674,0.34552862739135143,1.4246178350810812,1.2458962511750635,1.9837647468972022,0.5142042644063145,-220.76807891197257,55.28000008352967,-68.38147783893768
-0.04335546281167568,0.3430872273913514,1.4236412350810812,0.45200325117506335,1.800558746897202,-0.7758717355936854,-220.76807891197257,55.28000008352967,-67.46147783893768
-0.05214446281167569,0.3508997273913514,1.422664735081081,0.1924612511750634,-0.11547225310279785,0.26992946440631455,-220.76807891197257,55.28000008352967,-67.46147783893768
-0.05067966281167567,0.3465052273913514,1.414852235081081,-2.2731877488249363,0.869260746897202,-0.7224367355936855,-220.76807891197257,54.36000008352967,-68.38147783893768
-0.03212496281167568,0.35334112739135143,1.4197350350810811,-0.4411265488249366,-0.22234225310279765,2.3462652644063144,-220.76807891197257,55.28000008352967,-67.46147783893768
-0.03407806281167568,0.34845832739135135,1.4165611350810812,-2.3953247488249367,-0.008602253102797608,-1.8674747355936852,-220.76807891197257,55.28000008352967,-67.46147783893768
-0.05458586281167567,0.34064582739135135,1.420955735081081,0.27643025117506337,2.5944517468972026,-0.8216737355936855,-220.76807891197257,55.28000008352967,-67.46147783893768
-0.04994726281167568,0.3386927273913514,1.4260826350810811,-0.2121188488249366,0.4265127468972021,1.9722192644063146,-220.76807891197257,55.28000008352967,-67.46147783893768
-0.044331962811675674,0.34919072739135143,1.422420535081081,1.7878812511750635,1.7013217468972024,3.0409222644063147,-220.76807891197257,55.28000008352967,-67.46147783893768
-0.03725186281167568,0.3528529273913514,1.4253502350810812,1.2153622511750632,3.1898717468972024,-0.9438107355936854,-220.76807891197257,55.28000008352967,-67.46147783893768
-0.05898046281167567,0.3423548273913514,1.4197350350810811,0.8184152511750633,1.9455967468972024,0.30046379440631454,-220.76807891197257,55.28000008352967,-67.46147783893768
-0.05507416281167567,0.33698372739135135,1.4089928350810812,1.0626902511750633,0.5944517468972026,0.6058073644063146,-220.76807891197257,55.28000008352967,-67.46147783893768
-0.04384366281167568,0.3440638273913514,1.4177819350810812,1.1161252511750632,-0.16890725310279775,1.7203112644063143,-220.76807891197257,55.28000008352967,-67.46147783893768
-0.03334566281167567,0.34919072739135143,1.412166635081081,-0.1968517488249366,-1.4589832531027978,1.6210742644063147,-220.76807891197257,55.28000008352967,-67.46147783893768
-0.03847256281167567,0.3472376273913514,1.4204674350810813,-0.7770043488249366,-1.7566932531027977,-1.9132767355936853,-220.76807891197257,55.28000008352967,-67.46147783893768
-0.06337496281167566,0.34577282739135135,1.420955735081081,0.6123082511750633,1.021932746897202,-3.3636587355936856,-220.76807891197257,55.28000008352967,-67.46147783893768
-0.05702726281167568,0.3389368273913514,1.4231529350810812,1.7649802511750634,-1.397914253102798,1.8577152644063144,-220.76807891197257,55.28000008352967,-67.46147783893768
-0.046040962811675676,0.3472376273913514,1.4229088350810812,1.0626902511750633,-0.9246322531027977,2.0180212644063147,-220.76807891197257,55.28000008352967,-67.46147783893768
-0.028218662811675677,0.3496790273913514,1.4273033350810813,-0.2502868488249367,-1.4589832531027978,0.20886076440631454,-220.76807891197257,55.28000008352967,-67.46147783893768
-0.04140226281167568,0.34626112739135134,1.4324303350810812,1.9939882511750633,1.1517037468972027,-1.8216737355936852,-220.76807891197257,55.28000008352967,-67.46147783893768
-0.06093356281167568,0.3418665273913514,1.4314537350810812,-0.0060117488249367135,0.915061746897202,0.19359356440631453,-220.76807891197257,55.28000008352967,-67.46147783893768
-0.050191362811675674,0.34162242739135135,1.4221764350810813,-0.33425624882493665,0.44941374689720215,-0.8903757355936855,-220.76807891197257,55.28000008352967,-67.46147783893768
-0.03554296281167568,0.33844862739135134,1.4221764350810813,0.11612525117506345,-0.5047852531027979,0.8806164644063146,-220.76807891197257,55.28000008352967,-67.46147783893768
-0.03969326281167568,0.3496790273913514,1.4202233350810811,0.7726142511750633,-0.06967025310279773,0.33863173440631456,-219.8480789119726,55.28000008352967,-67.46147783893768
-0.05165616281167566,0.3438197273913514,1.4258385350810812,0.25353025117506345,0.624985746897202,-0.22625373559368545,-219.8480789119726,55.28000008352967,-67.46147783893768
-0.05165616281167566,0.34992322739135134,1.422664735081081,2.6962782511750634,2.0982687468972023,2.2622962644063147,-219.8480789119726,55.28000008352967,-67.46147783893768
-0.03358976281167568,0.34894662739135135,1.4133873350810813,0.8031482511750634,1.670787746897202,-0.15755143559368545,-220.76807891197257,54.36000008352967,-67.46147783893768
-0.04262296281167567,0.34064582739135135,1.4153404350810812,2.726812251175063,3.5028487468972025,0.19359356440631453,-220.76807891197257,54.36000008352967,-67.46147783893768
-0.04701756281167567,0.34528452739135135,1.4292565350810813,1.2535302511750634,2.3959777468972026,0.7203111644063145,-220.76807891197257,54.36000008352967,-68.38147783893768
-0.05214446281167569,0.3428431273913514,1.4275475350810811,0.3909342511750633,1.0371997468972025,0.09435686440631452,-220.76807891197257,54.36000008352967,-68.38147783893768
-0.05336516281167568,0.3467493273913514,1.4219322350810812,2.4520032511750633,0.7776577468972019,0.8271813644063145,-220.76807891197257,54.36000008352967,-68.38147783893768
-0.04384366281167568,0.3408900273913514,1.4194908350810813,1.7344462511750636,0.9226957468972024,1.0943569644063147,-220.76807891197257,55.28000008352967,-67.46147783893768
-0.04140226281167568,0.34528452739135135,1.4214440350810813,1.1161252511750632,0.5715507468972025,0.7126775644063146,-220.76807891197257,55.28000008352967,-67.46147783893768
-0.047749962811675664,0.34919072739135143,1.4290123350810813,-0.05944674882493661,-0.9933342531027978,0.23176146440631454,-220.76807891197257,55.28000008352967,-67.46147783893768
-0.04677336281167567,0.3487025273913514,1.4229088350810812,1.2840642511750633,1.426512746897202,0.5981736644063145,-220.76807891197257,55.28000008352967,-67.46147783893768
-0.04213476281167568,0.34211072739135134,1.4219322350810812,1.1390262511750633,1.2204057468972018,-0.2644217355936854,-220.76807891197257,55.28000008352967,-67.46147783893768
-0.04726166281167567,0.34577282739135135,1.4136315350810813,0.4749042511750634,0.5410167468972022,0.6287080644063145,-220.76807891197257,55.28000008352967,-67.46147783893768
-0.04311126281167568,0.34894662739135135,1.4143639350810813,-0.05944674882493661,-0.5582202531027978,0.20122716440631452,-220.76807891197257,54.36000008352967,-67.46147783893768
-0.03798436281167568,0.3450404273913514,1.4248619350810812,1.4749042511750634,2.0753677468972023,-0.6384677355936855,-220.76807891197257,54.36000008352967,-67.46147783893768
-0.04140226281167568,0.3423548273913514,1.4307213350810812,1.4520032511750633,1.4341457468972023,0.30046379440631454,-220.76807891197257,55.28000008352967,-67.46147783893768
-0.04628506281167567,0.3474818273913514,1.4214440350810813,-0.2731875488249367,0.5486497468972025,0.26992946440631455,-220.76807891197257,55.28000008352967,-67.46147783893768
-0.03481046281167567,0.3506556273913514,1.4170494350810812,0.43673625117506343,1.090634746897202,-1.1880857355936856,-220.76807891197257,55.28000008352967,-67.46147783893768
-0.04066986281167567,0.33796032739135135,1.428524035081081,0.14666025117506343,1.2738407468972022,0.6287080644063145,-220.76807891197257,55.28000008352967,-67.46147783893768
-0.05312106281167568,0.33747202739135135,1.415584635081081,-0.23501964882493664,0.7165887468972021,1.5065702644063146,-220.76807891197257,55.28000008352967,-67.46147783893768
-0.04726166281167567,0.3516322273913514,1.4182701350810811,-0.49456154882493664,0.16697074689720237,-0.5239636355936854,-220.76807891197257,55.28000008352967,-67.46147783893768
-0.04115816281167567,0.3513880273913514,1.414608035081081,0.5817742511750634,0.46468074689720185,-0.3407575355936855,-221.68807891197258,55.28000008352967,-67.46147783893768
-0.03749606281167568,0.3501673273913514,1.4114342350810811,0.4214692511750633,0.9379637468972022,0.20886076440631454,-221.68807891197258,55.28000008352967,-67.46147783893768
-0.04823826281167569,0.34113412739135135,1.4175377350810812,-0.0060117488249367135,-0.31394525310279775,-0.3254904355936855,-220.76807891197257,55.28000008352967,-67.46147783893768
-0.05287686281167568,0.34919072739135143,1.4358483350810811,0.8260492511750634,0.6860547468972018,0.19359356440631453,-220.76807891197257,55.28000008352967,-67.46147783893768
-0.04726166281167567,0.34919072739135143,1.421688135081081,0.26879725117506337,0.823459746897202,-1.1957197355936855,-220.76807891197257,55.28000008352967,-67.46147783893768
-0.034566362811675674,0.3394251273913514,1.4163170350810812,0.3909342511750633,0.49521474689720213,-1.4705287355936854,-221.68807891197258,55.28000008352967,-67.46147783893768
-0.04897066281167568,0.3394251273913514,1.428524035081081,0.09322425117506339,-0.12310525310279763,0.40733402440631455,-221.68807891197258,55.28000008352967,-67.46147783893768
-0.05092376281167567,0.34113412739135135,1.4307213350810812,-0.30372194882493664,0.27384074689720217,-0.36365833559368543,-221.68807891197258,55.28000008352967,-67.46147783893768
-0.04335546281167568,0.34577282739135135,1.4314537350810812,0.2458962511750633,0.12116874689720225,0.07145616440631453,-220.76807891197257,55.28000008352967,-67.46147783893768
-0.03578706281167568,0.3467493273913514,1.422664735081081,0.9176522511750633,0.09063474689720241,-0.6079331355936854,-220.76807891197257,55.28000008352967,-67.46147783893768
-0.038228462811675676,0.3469935273913514,1.4270592350810811,1.7955142511750632,0.869260746897202,1.1859599644063146,-220.76807891197257,55.28000008352967,-67.46147783893768
-0.047749962811675664,0.34064582739135135,1.420955735081081,0.27643025117506337,0.5181157468972022,0.28519662440631455,-220.76807891197257,55.28000008352967,-67.46147783893768
-0.04506436281167568,0.3440638273913514,1.4168053350810812,2.2306292511750634,1.693687746897202,0.24702866440631455,-220.76807891197257,55.28000008352967,-67.46147783893768
-0.04140226281167568,0.34919072739135143,1.4221764350810813,1.4901712511750635,1.044833746897202,1.7126772644063144,-220.76807891197257,55.28000008352967,-67.46147783893768
-0.04677336281167567,0.34577282739135135,1.4270592350810811,-0.08998174882493659,0.8310927468972023,0.20886076440631454,-220.76807891197257,55.28000008352967,-67.46147783893768
-0.04579686281167568,0.3440638273913514,1.4219322350810812,1.9710872511750632,-0.5047852531027979,-0.10411633559368544,-220.76807891197257,55.28000008352967,-67.46147783893768
-0.042378862811675674,0.34528452739135135,1.4143639350810813,1.7955142511750632,0.5944517468972026,0.5447385644063145,-220.76807891197257,55.28000008352967,-67.46147783893768
-0.038228462811675676,0.34430792739135135,1.4270592350810811,1.0932242511750632,-0.6803572531027977,2.0332882644063144,-220.76807891197257,55.28000008352967,-67.46147783893768
-0.04311126281167568,0.3523646273913514,1.4221764350810813,1.6123082511750635,0.7013217468972024,0.8042805644063145,-220.76807891197257,55.28000008352967,-67.46147783893768
-0.038228462811675676,0.3450404273913514,1.420955735081081,0.35276625117506333,-0.8101282531027976,-0.4018263355936854,-220.76807891197257,55.28000008352967,-67.46147783893768
-0.040181562811675675,0.34992322739135134,1.4204674350810813,0.3298662511750634,1.0371997468972025,-0.5773987355936855,-220.76807891197257,55.28000008352967,-67.46147783893768
-0.04189056281167568,0.3433314273913514,1.4260826350810811,1.2306292511750634,2.915061746897202,-0.1804522355936855,-220.76807891197257,55.28000008352967,-67.46147783893768
-0.04115816281167567,0.33649542739135135,1.4275475350810811,1.5741402511750633,1.3959777468972026,1.0561889644063145,-220.76807891197257,55.28000008352967,-67.46147783893768
-0.04115816281167567,0.3362513273913514,1.4314537350810812,0.6199422511750634,0.5868177468972022,0.20122716440631452,-220.76807891197257,55.28000008352967,-67.46147783893768
-0.040425762811675675,0.3440638273913514,1.4192467350810811,1.6352092511750635,0.9226957468972024,0.5829065644063145,-220.76807891197257,55.28000008352967,-67.46147783893768
-0.04359956281167568,0.3508997273913514,1.4219322350810812,2.6810112511750632,2.823459746897202,2.0256542644063145,-220.76807891197257,55.28000008352967,-67.46147783893768
-0.04335546281167568,0.3474818273913514,1.420711535081081,1.5741402511750633,0.6402537468972018,1.9645862644063143,-220.76807891197257,55.28000008352967,-67.46147783893768
-0.04066986281167567,0.3548060273913514,1.4168053350810812,0.03978925117506327,0.04483374689720243,-0.16518503559368547,-220.76807891197257,55.28000008352967,-67.46147783893768
-0.04897066281167568,0.3472376273913514,1.4236412350810812,0.18482725117506327,0.41887974689720187,-1.0735817355936854,-220.76807891197257,55.28000008352967,-67.46147783893768
-0.04701756281167567,0.3391810273913514,1.412899035081081,1.6428432511750635,0.12880274689720217,0.7203111644063145,-220.76807891197257,55.28000008352967,-67.46147783893768
-0.03969326281167568,0.3396693273913514,1.420711535081081,2.7420792511750633,-0.7948612531027979,2.2012272644063144,-220.76807891197257,55.28000008352967,-67.46147783893768
-0.03578706281167568,0.35309702739135135,1.412899035081081,1.1466602511750632,0.16697074689720237,-1.6842687355936854,-220.76807891197257,55.28000008352967,-67.46147783893768
-0.04189056281167568,0.3560267273913514,1.4177819350810812,1.3374992511750632,-1.2681432531027976,0.7813798644063146,-220.76807891197257,55.28000008352967,-67.46147783893768
-0.032613262811675675,0.34430792739135135,1.4214440350810813,-0.1815845488249367,-2.077304253102798,0.14779206440631454,-220.76807891197257,55.28000008352967,-68.38147783893768
-0.03871676281167567,0.3501673273913514,1.427791635081081,-1.7312028488249367,-0.9475332531027978,-0.6842687355936855,-220.76807891197257,55.28000008352967,-68.38147783893768
-0.034566362811675674,0.3472376273913514,1.423397135081081,-1.0594471088249366,2.647886746897202,-1.4552617355936857,-220.76807891197257,55.28000008352967,-67.46147783893768
-0.03944916281167568,0.3352747273913514,1.420711535081081,-1.3189890488249367,0.1975047468972022,-1.6613687355936855,-220.76807891197257,55.28000008352967,-67.46147783893768
-0.03725186281167568,0.34064582739135135,1.4307213350810812,-1.1739509288249366,0.41887974689720187,0.40733402440631455,-220.76807891197257,55.28000008352967,-67.46147783893768
-0.04652926281167567,0.3487025273913514,1.4307213350810812,0.16192725117506335,2.266207746897202,0.49130346440631456,-220.76807891197257,55.28000008352967,-67.46147783893768
-0.04359956281167568,0.3472376273913514,1.413143235081081,-0.5327295488249366,2.8387267468972026,0.30046379440631454,-220.76807891197257,55.28000008352967,-67.46147783893768
-0.03871676281167567,0.3445521273913514,1.414852235081081,0.9481862511750632,2.9684977468972025,-1.1270167355936853,-220.76807891197257,55.28000008352967,-67.46147783893768
-0.04897066281167568,0.3445521273913514,1.4253502350810812,-1.2502867988249367,2.029565746897202,-0.14228433559368547,-219.8480789119726,55.28000008352967,-67.46147783893768
-0.05092376281167567,0.34797002739135136,1.4153404350810812,-1.4411265488249367,1.1517037468972027,0.5752729644063146,-219.8480789119726,55.28000008352967,-67.46147783893768
-0.04213476281167568,0.34015752739135136,1.4165611350810812,-0.2579204488249366,1.4417797468972018,0.10962416440631456,-219.8480789119726,55.28000008352967,-67.46147783893768
-0.04335546281167568,0.34430792739135135,1.4251061350810812,-0.17395094882493667,2.052466746897202,0.31573097440631454,-220.76807891197257,54.36000008352967,-66.54148783893768
-0.04726166281167567,0.34211072739135134,1.4248619350810812,-0.6548669488249367,2.5868177468972022,-0.14228433559368547,-220.76807891197257,54.36000008352967,-66.54148783893768
-0.04408786281167568,0.3313685273913514,1.430477235081081,0.30696525117506335,1.1517037468972027,0.23939506440631453,-220.76807891197257,55.28000008352967,-67.46147783893768
-0.047749962811675664,0.33844862739135134,1.4268151350810812,0.9863542511750634,-0.9704342531027979,2.6363412644063144,-220.76807891197257,55.28000008352967,-67.46147783893768
-0.05043546281167567,0.34894662739135135,1.4263268350810812,0.5512402511750634,0.6020857468972021,1.1096240644063147,-220.76807891197257,55.28000008352967,-67.46147783893768
-0.03432226281167568,0.3425989273913514,1.419979135081081,0.8413162511750634,-0.5505862531027979,-1.5010627355936856,-220.76807891197257,55.28000008352967,-66.54148783893768
-0.05214446281167569,0.34015752739135136,1.4280358350810811,0.10085825117506331,0.7623907468972022,0.7050439644063146,-220.76807891197257,55.28000008352967,-66.54148783893768
-0.04530856281167568,0.34479622739135135,1.4168053350810812,2.0550562511750634,0.693687746897202,1.1248912644063145,-220.76807891197257,55.28000008352967,-66.54148783893768
-0.03188076281167568,0.3477259273913514,1.4202233350810811,-0.5556302488249366,-0.8330292531027976,-0.4323606355936854,-220.76807891197257,55.28000008352967,-66.54148783893768
-0.04384366281167568,0.3472376273913514,1.4263268350810812,0.35276625117506333,0.6555197468972023,0.5065706644063145,-220.76807891197257,55.28000008352967,-66.54148783893768
-0.04701756281167567,0.3543177273913514,1.4075279350810812,0.8489502511750633,1.5486497468972025,-0.020146935593685467,-220.76807891197257,55.28000008352967,-66.54148783893768
-0.03944916281167568,0.34137822739135143,1.4246178350810812,0.17719425117506327,1.1211697468972024,-1.3102227355936855,-220.76807891197257,55.28000008352967,-66.54148783893768
-0.04872646281167568,0.34162242739135135,1.4331627350810812,-0.07471474882493667,0.7165887468972021,0.8882500644063145,-220.76807891197257,55.28000008352967,-66.54148783893768
-0.04652926281167567,0.3423548273913514,1.4204674350810813,0.39856825117506345,1.8997957468972024,0.018021064406314513,-220.76807891197257,54.36000008352967,-66.54148783893768
-0.03847256281167567,0.3445521273913514,1.4292565350810813,3.459636251175063,1.892161746897202,2.2393952644063146,-220.76807891197257,55.28000008352967,-66.54148783893768
-0.03432226281167568,0.3550501273913514,1.4290123350810813,0.20772825117506333,1.1211697468972024,2.422601264406315,-220.76807891197257,55.28000008352967,-66.54148783893768
-0.04359956281167568,0.3504114273913514,1.4190026350810812,0.8031482511750634,2.289107746897202,-2.2491547355936854,-220.76807891197257,55.28000008352967,-66.54148783893768
-0.04726166281167567,0.3362513273913514,1.4273033350810813,-0.5327295488249366,2.021932746897202,-1.7224367355936852,-220.76807891197257,55.28000008352967,-67.46147783893768
-0.05214446281167569,0.3355189273913514,1.4260826350810811,1.1695602511750636,2.510481746897202,1.4455022644063145,-220.76807891197257,55.28000008352967,-67.46147783893768
-0.04384366281167568,0.3372279273913514,1.4221764350810813,1.6275762511750633,1.1288027468972026,2.2088612644063144,-220.76807891197257,55.28000008352967,-66.54148783893768
-0.030904262811675673,0.3438197273913514,1.4275475350810811,2.5665072511750635,2.3730777468972026,1.1783263644063147,-220.76807891197257,55.28000008352967,-66.54148783893768
-0.04897066281167568,0.3582239273913514,1.4180260350810812,1.6810112511750632,0.4341457468972023,2.5065702644063146,-220.76807891197257,55.28000008352967,-66.54148783893768
-0.044576162811675674,0.34797002739135136,1.4182701350810811,1.9329192511750635,1.2585737468972025,-2.1651847355936855,-220.76807891197257,55.28000008352967,-66.54148783893768
-0.04530856281167568,0.3396693273913514,1.4175377350810812,-0.2579204488249366,0.9837647468972022,-0.14228433559368547,-220.76807891197257,55.28000008352967,-66.54148783893768
-0.05190036281167566,0.3445521273913514,1.4221764350810813,1.4367362511750632,1.1059017468972026,2.7584792644063145,-220.76807891197257,55.28000008352967,-66.54148783893768
-0.053853462811675676,0.34626112739135134,1.420711535081081,0.45963725117506327,0.06010074689720213,-0.6690017355936854,-220.76807891197257,54.36000008352967,-67.46147783893768
-0.03358976281167568,0.34797002739135136,1.419979135081081,-0.021278748824936633,-0.3902812531027977,-1.5621317355936855,-220.76807891197257,54.36000008352967,-67.46147783893768
-0.03627536281167568,0.3440638273913514,1.4307213350810812,-0.0060117488249367135,0.25857374689720203,0.3309981544063145,-220.76807891197257,55.28000008352967,-66.54148783893768
-0.04311126281167568,0.3382044273913514,1.422664735081081,0.024522251175063348,1.197505746897202,0.6592423644063146,-220.76807891197257,55.28000008352967,-66.54148783893768
-0.04335546281167568,0.33649542739135135,1.4172936350810812,1.3527662511750633,0.915061746897202,-1.7300707355936855,-220.76807891197257,55.28000008352967,-66.54148783893768
-0.04701756281167567,0.3460169273913514,1.4258385350810812,1.0321562511750635,0.3043757468972026,2.3844332644063146,-220.76807891197257,54.36000008352967,-67.46147783893768
-0.04140226281167568,0.35334112739135143,1.4221764350810813,2.7115452511750635,2.136435746897202,1.4760362644063147,-220.76807891197257,54.36000008352967,-67.46147783893768
-0.04213476281167568,0.3469935273913514,1.4143639350810813,1.4291022511750633,1.0142987468972025,-1.2186197355936854,-220.76807891197257,54.36000008352967,-67.46147783893768
-0.046040962811675676,0.33332162739135135,1.4246178350810812,1.9100182511750634,0.7852917468972023,-1.3102227355936855,-220.76807891197257,55.28000008352967,-67.46147783893768
-0.05238866281167569,0.34797002739135136,1.4338951350810811,2.1084922511750634,0.846359746897202,2.8653492644063148,-220.76807891197257,55.28000008352967,-67.46147783893768
-0.034566362811675674,0.35260872739135135,1.427791635081081,1.1619272511750633,0.9303297468972018,0.17069286440631454,-220.76807891197257,55.28000008352967,-67.46147783893768
-0.04262296281167567,0.3435755273913514,1.4136315350810813,1.2229952511750635,1.8387267468972026,-1.3102227355936855,-220.76807891197257,55.28000008352967,-68.38147783893768
-0.047505762811675664,0.3372279273913514,1.4158287350810812,0.18482725117506327,-0.5276852531027978,-1.4323607355936856,-220.76807891197257,55.28000008352967,-68.38147783893768
-0.04628506281167567,0.3394251273913514,1.4170494350810812,1.6123082511750635,-0.26051025310279785,2.5142042644063145,-220.76807891197257,54.36000008352967,-67.46147783893768
-0.04115816281167567,0.3496790273913514,1.4214440350810813,2.963454251175063,0.2356727468972024,2.521838264406315,-220.76807891197257,54.36000008352967,-67.46147783893768
-0.03163666281167568,0.3472376273913514,1.4150963350810812,1.9863542511750634,0.12116874689720225,1.1706928644063144,-220.76807891197257,54.36000008352967,-67.46147783893768
-0.04408786281167568,0.34919072739135143,1.4265709350810811,1.4596372511750633,1.0830017468972026,0.46076914440631456,-219.8480789119726,54.36000008352967,-68.38147783893768
-0.042378862811675674,0.35358532739135135,1.4177819350810812,2.3756672511750634,1.6860547468972018,-0.43999423559368545,-219.8480789119726,54.36000008352967,-68.38147783893768
-0.03993746281167568,0.3523646273913514,1.4119225350810811,1.7878812511750635,1.9379637468972022,1.4302352644063143,-219.8480789119726,54.36000008352967,-68.38147783893768
-0.03920506281167567,0.34943492739135135,1.4243736350810812,1.4520032511750633,1.9455967468972024,1.1935935644063145,-220.76807891197257,54.36000008352967,-68.38147783893768
-0.03993746281167568,0.34845832739135135,1.4163170350810812,0.39856825117506345,0.6860547468972018,-0.9361777355936854,-220.76807891197257,54.36000008352967,-68.38147783893768
-0.03969326281167568,0.3438197273913514,1.4229088350810812,-0.4411265488249366,0.9684977468972025,-1.1117497355936856,-219.8480789119726,54.36000008352967,-68.38147783893768
-0.04677336281167567,0.34919072739135143,1.4326744350810812,-1.7235692488249366,1.4570477468972025,-0.8216737355936855,-219.8480789119726,54.36000008352967,-68.38147783893768
-0.044576162811675674,0.3518763273913514,1.4246178350810812,-0.6777677488249366,1.3425437468972024,0.36916608440631454,-219.8480789119726,54.36000008352967,-68.38147783893768
-0.03749606281167568,0.3445521273913514,1.4153404350810812,-1.2121188588249365,1.4952147468972021,-0.9590777355936854,-219.8480789119726,55.28000008352967,-68.38147783893768
-0.04335546281167568,0.3394251273913514,1.4119225350810811,-0.30372194882493664,1.6173527468972027,0.14779206440631454,-219.8480789119726,55.28000008352967,-68.38147783893768
-0.03700776281167567,0.34430792739135135,1.422420535081081,0.5741402511750633,3.624985746897202,2.8806162644063145,-219.8480789119726,55.28000008352967,-68.38147783893768
-0.04115816281167567,0.3467493273913514,1.435604135081081,1.0932242511750632,3.9684977468972025,2.3538992644063144,-220.76807891197257,55.28000008352967,-68.38147783893768
-0.03603116281167568,0.3606654273913514,1.4321861350810812,0.30696525117506335,2.7700237468972024,2.3386312644063145,-220.76807891197257,55.28000008352967,-68.38147783893768
-0.053853462811675676,0.35260872739135135,1.4185143350810812,-0.5479967488249367,2.182237746897202,-1.1728187355936854,-220.76807891197257,55.28000008352967,-68.38147783893768
-0.05653896281167568,0.3404017273913514,1.4190026350810812,-1.1739509288249366,1.8768947468972024,-0.30258963559368546,-220.76807891197257,55.28000008352967,-68.38147783893768
-0.05190036281167566,0.3423548273913514,1.4280358350810811,0.49780525117506347,1.5181157468972022,2.6745092644063146,-220.76807891197257,55.28000008352967,-68.38147783893768
-0.04286716281167567,0.3445521273913514,1.4153404350810812,0.5359722511750633,1.1669707468972024,0.17069286440631454,-220.76807891197257,54.36000008352967,-67.46147783893768
-0.04262296281167567,0.3528529273913514,1.4063072350810812,-0.5861646488249367,0.25857374689720203,-0.4476277355936855,-220.76807891197257,54.36000008352967,-67.46147783893768
-0.05287686281167568,0.3508997273913514,1.4141197350810812,-0.12814974882493657,0.06010074689720213,-1.6537347355936856,-220.76807891197257,54.36000008352967,-67.46147783893768
-0.05507416281167567,0.3430872273913514,1.420955735081081,2.4978052511750635,-0.41318225310279777,2.1477922644063145,-220.76807891197257,54.36000008352967,-67.46147783893768
-0.03774016281167568,0.34162242739135135,1.4165611350810812,1.3756672511750634,-3.329212453102798,1.4913032644063144,-220.76807891197257,54.36000008352967,-67.46147783893768
-0.026753862811675674,0.3684779273913514,1.4163170350810812,1.6352092511750635,-2.0696702531027977,3.4455022644063145,-219.8480789119726,54.36000008352967,-67.46147783893768
-0.023091762811675673,0.3579798273913514,1.436580735081081,0.8184152511750633,1.2585737468972025,-3.0964827355936855,-219.8480789119726,54.36000008352967,-67.46147783893768
-0.02528896281167567,0.3367396273913514,1.4265709350810811,-0.1968517488249366,2.266207746897202,-2.9590777355936853,-219.8480789119726,54.36000008352967,-67.46147783893768
-0.05507416281167567,0.3399134273913514,1.4321861350810812,-0.6319661488249366,1.2433067468972019,1.3920672644063146,-220.76807891197257,55.28000008352967,-67.46147783893768
-0.04823826281167569,0.34797002739135136,1.4141197350810812,0.32223225117506327,0.15170374689720223,2.7966472644063147,-220.76807891197257,55.28000008352967,-67.46147783893768
-0.042378862811675674,0.34894662739135135,1.4058190350810813,0.6657442511750633,0.21277274689720205,-0.08884913559368546,-220.76807891197257,55.28000008352967,-67.46147783893768
-0.044331962811675674,0.3560267273913514,1.413875635081081,0.5054382511750635,1.1898717468972024,1.6668762644063144,-220.76807891197257,55.28000008352967,-67.46147783893768
-0.036763662811675674,0.3596888273913514,1.420711535081081,0.4749042511750634,1.4646807468972018,2.2622962644063147,-220.76807891197257,55.28000008352967,-67.46147783893768
-0.03139256281167567,0.3433314273913514,1.4192467350810811,0.29933125117506343,1.113535746897202,-1.9819787355936853,-220.76807891197257,55.28000008352967,-67.46147783893768
-0.04628506281167567,0.3408900273913514,1.4270592350810811,-0.39532494882493663,-0.03150225310279797,-0.9972457355936856,-220.76807891197257,55.28000008352967,-68.38147783893768
-0.04677336281167567,0.3482142273913514,1.4353600350810811,-1.5556303488249366,0.08300174689720219,-1.9285437355936854,-220.76807891197257,55.28000008352967,-68.38147783893768
-0.04823826281167569,0.3430872273913514,1.430233035081081,-0.2731875488249367,1.9532297468972026,-0.5163300355936855,-220.76807891197257,55.28000008352967,-68.38147783893768
-0.03896086281167567,0.33844862739135134,1.4255944350810812,-1.4258593488249367,0.5868177468972022,-1.7453377355936852,-219.8480789119726,55.28000008352967,-67.46147783893768
-0.052632762811675685,0.3352747273913514,1.4204674350810813,-0.9067753488249366,-0.7643272531027976,-2.1041167355936854,-219.8480789119726,55.28000008352967,-67.46147783893768
-0.04970306281167568,0.3321009273913514,1.427791635081081,1.7802472511750635,0.27384074689720217,1.9187842644063147,-219.8480789119726,55.28000008352967,-67.46147783893768
-0.03529876281167568,0.34552862739135143,1.4255944350810812,2.5436062511750634,3.0371997468972025,2.5294712644063146,-220.76807891197257,55.28000008352967,-67.46147783893768
-0.03285736281167567,0.3477259273913514,1.423397135081081,1.5970412511750633,2.021932746897202,-0.5392308355936855,-220.76807891197257,55.28000008352967,-67.46147783893768
-0.03920506281167567,0.34797002739135136,1.4236412350810812,2.6504762511750632,1.2585737468972025,1.1096240644063147,-220.76807891197257,55.28000008352967,-67.46147783893768
-0.046040962811675676,0.3477259273913514,1.4297447350810812,1.7955142511750632,0.915061746897202,-0.05068123559368548,-220.76807891197257,55.28000008352967,-67.46147783893768
-0.03358976281167568,0.3430872273913514,1.4165611350810812,0.45963725117506327,-0.22234225310279765,-0.6613687355936854,-220.76807891197257,55.28000008352967,-67.46147783893768
-0.04335546281167568,0.3440638273913514,1.4104576350810811,0.3909342511750633,2.090634746897202,-0.12701713559368544,-220.76807891197257,54.36000008352967,-67.46147783893768
-0.04677336281167567,0.34797002739135136,1.4231529350810812,0.8947512511750633,1.6097187468972023,-0.4094598355936855,-220.76807891197257,54.36000008352967,-67.46147783893768
-0.04066986281167567,0.3513880273913514,1.4180260350810812,0.7802472511750633,1.7013217468972024,-0.5315972355936854,-220.76807891197257,54.36000008352967,-67.46147783893768
-0.03798436281167568,0.34797002739135136,1.4172936350810812,1.6275762511750633,-0.09257125310279779,0.7737462644063146,-220.76807891197257,54.36000008352967,-67.46147783893768
-0.03749606281167568,0.34137822739135143,1.4255944350810812,0.6199422511750634,0.6020857468972021,-1.4705287355936854,-220.76807891197257,54.36000008352967,-67.46147783893768
-0.04994726281167568,0.3396693273913514,1.4326744350810812,0.7726142511750633,-0.2910442531027977,1.1859599644063146,-220.76807891197257,54.36000008352967,-67.46147783893768
-0.04286716281167567,0.34137822739135143,1.4368248350810813,4.497804251175063,0.5181157468972022,3.4913032644063144,-220.76807891197257,54.36000008352967,-67.46147783893768
-0.026753862811675674,0.3487025273913514,1.4316979350810812,1.7497132511750633,0.8921617468972021,2.2928302644063145,-220.76807891197257,54.36000008352967,-67.46147783893768
-0.03139256281167567,0.34552862739135143,1.4319420350810812,0.03978925117506327,3.113535746897202,0.45313555440631453,-219.8480789119726,55.28000008352967,-68.38147783893768
-0.05238866281167569,0.3355189273913514,1.421688135081081,0.46727025117506327,2.8158257468972026,1.1172576644063146,-219.8480789119726,55.28000008352967,-68.38147783893768
-0.05605076281167569,0.3372279273913514,1.4107018350810812,2.6504762511750632,2.8616277468972027,1.9569522644063144,-219.8480789119726,55.28000008352967,-68.38147783893768
-0.04286716281167567,0.35212042739135135,1.4160729350810812,-0.23501964882493664,1.8616277468972027,1.5600062644063146,-220.76807891197257,55.28000008352967,-68.38147783893768
-0.03578706281167568,0.35700322739135143,1.4150963350810812,-0.8609738488249365,0.2891077468972023,0.8806164644063146,-220.76807891197257,55.28000008352967,-68.38147783893768
-0.03285736281167567,0.35358532739135135,1.414852235081081,-1.7083020488249367,-0.5124182531027976,-1.2949557355936854,-220.76807891197257,54.36000008352967,-67.46147783893768
-0.04530856281167568,0.34797002739135136,1.414608035081081,-2.3037217488249366,-1.2223422531027976,-3.287322735593685,-220.76807891197257,54.36000008352967,-67.46147783893768
-0.047505762811675664,0.3394251273913514,1.4143639350810813,0.8489502511750633,-0.9093652531027976,-1.2033527355936853,-220.76807891197257,54.36000008352967,-67.46147783893768
-0.03749606281167568,0.3487025273913514,1.4180260350810812,-0.0060117488249367135,-3.1536399531027977,2.498937264406315,-220.76807891197257,54.36000008352967,-67.46147783893768
-0.03139256281167567,0.3543177273913514,1.4336510350810812,0.31459825117506335,-2.123105253102798,2.1172572644063146,-220.76807891197257,54.36000008352967,-67.46147783893768
-0.032369062811675675,0.3425989273913514,1.429500635081081,-0.6777677488249366,-0.8024952531027978,-2.1651847355936855,-220.76807891197257,54.36000008352967,-67.46147783893768
-0.05287686281167568,0.3433314273913514,1.4331627350810812,1.0321562511750635,3.403611746897202,-0.8369407355936854,-219.8480789119726,54.36000008352967,-67.46147783893768
-0.04970306281167568,0.3389368273913514,1.4282799350810813,2.726812251175063,2.3043757468972026,-1.1575517355936853,-219.8480789119726,54.36000008352967,-67.46147783893768
-0.05702726281167568,0.34137822739135143,1.4214440350810813,2.436736251175063,2.052466746897202,1.4684022644063144,-219.8480789119726,54.36000008352967,-68.38147783893768
-0.050191362811675674,0.35358532739135135,1.4229088350810812,3.413835251175063,1.6173527468972027,3.0638222644063147,-219.8480789119726,54.36000008352967,-68.38147783893768
-0.04091396281167567,0.3550501273913514,1.406795535081081,3.3833012511750638,-0.886464253102798,4.140158264406314,-219.8480789119726,54.36000008352967,-68.38147783893768
-0.02333586281167567,0.3477259273913514,1.4092369350810812,2.803148251175063,1.6631537468972026,0.49130346440631456,-219.8480789119726,55.28000008352967,-68.38147783893768
-0.028951162811675674,0.3487025273913514,1.4280358350810811,0.3833012511750633,1.1746037468972026,2.8500822644063146,-219.8480789119726,55.28000008352967,-68.38147783893768
-0.03139256281167567,0.3545618273913514,1.4214440350810813,-0.6014318488249366,0.006665746897202229,0.12489126440631454,-219.8480789119726,55.28000008352967,-68.38147783893768
-0.03529876281167568,0.3496790273913514,1.4104576350810811,0.30696525117506335,0.8081917468972022,-0.7758717355936854,-219.8480789119726,55.28000008352967,-68.38147783893768
-0.047505762811675664,0.3433314273913514,1.4251061350810812,0.39856825117506345,0.1440697468972023,0.6897767644063145,-219.8480789119726,55.28000008352967,-68.38147783893768
-0.04994726281167568,0.34845832739135135,1.4102135350810812,0.20772825117506333,-0.5658532531027975,-0.12701713559368544,-220.76807891197257,55.28000008352967,-68.38147783893768
-0.044331962811675674,0.35578252739135136,1.414852235081081,0.43673625117506343,0.6860547468972018,2.3386312644063145,-220.76807891197257,55.28000008352967,-68.38147783893768
-0.04066986281167567,0.3548060273913514,1.412166635081081,1.7573472511750632,-0.741426253102798,0.7432118644063146,-220.76807891197257,55.28000008352967,-68.38147783893768
-0.03212496281167568,0.3467493273913514,1.4180260350810812,0.4214692511750633,-1.7795942531027977,-0.7911397355936854,-219.8480789119726,55.28000008352967,-68.38147783893768
-0.04189056281167568,0.3474818273913514,1.4248619350810812,0.7191792511750634,-0.9017312531027977,-2.745337735593685,-219.8480789119726,55.28000008352967,-68.38147783893768
-0.01894135281167568,0.35358532739135135,1.4114342350810811,3.2687972511750636,-0.8482962531027978,4.537105264406314,-220.76807891197257,55.28000008352967,-68.38147783893768
-0.017720652811675675,0.3594447273913514,1.4036217350810811,1.9710872511750632,-1.0773042531027976,-0.4094598355936855,-220.76807891197257,55.28000008352967,-68.38147783893768
-0.024068262811675678,0.3548060273913514,1.415584635081081,-1.2197524488249367,1.0753677468972023,-1.6384677355936854,-219.8480789119726,55.28000008352967,-69.30147783893767
-0.03285736281167567,0.34552862739135143,1.428768235081081,0.8107822511750633,2.731855746897202,0.47603631440631455,-219.8480789119726,55.28000008352967,-69.30147783893767
-0.04189056281167568,0.34113412739135135,1.4331627350810812,0.29933125117506343,3.113535746897202,-0.7071697355936856,-219.8480789119726,55.28000008352967,-69.30147783893767
-0.05702726281167568,0.3440638273913514,1.4229088350810812,0.12375925117506337,1.7547567468972018,0.6058073644063146,-219.8480789119726,55.28000008352967,-68.38147783893768
-0.03358976281167568,0.3543177273913514,1.4185143350810812,0.25353025117506345,0.27384074689720217,2.9874862644063147,-219.8480789119726,55.28000008352967,-68.38147783893768
-0.021138662811675674,0.3579798273913514,1.4107018350810812,-0.5632639488249366,1.0066657468972022,-0.3560247355936854,-219.8480789119726,55.28000008352967,-69.30147783893767
-0.03139256281167567,0.3545618273913514,1.4089928350810812,0.4825372511750634,1.5868177468972022,-2.5086967355936856,-219.8480789119726,55.28000008352967,-69.30147783893767
-0.04701756281167567,0.3438197273913514,1.413143235081081,0.4825372511750634,2.579184746897202,-1.8216737355936852,-219.8480789119726,55.28000008352967,-69.30147783893767
-0.04506436281167568,0.34479622739135135,1.420711535081081,2.8107822511750635,2.495214746897202,3.5905402644063145,-219.8480789119726,54.36000008352967,-68.38147783893768
-0.024556562811675675,0.34894662739135135,1.4099694350810812,0.9863542511750634,0.37307774689720263,1.9722192644063146,-219.8480789119726,54.36000008352967,-68.38147783893768
-0.03969326281167568,0.3501673273913514,1.4102135350810812,0.9634532511750633,-0.41318225310279777,-0.020146935593685467,-219.8480789119726,54.36000008352967,-68.38147783893768
-0.03920506281167567,0.35212042739135135,1.422664735081081,1.4978052511750635,1.5944517468972026,0.38443326440631453,-220.76807891197257,55.28000008352967,-68.38147783893768
-0.04677336281167567,0.35675912739135135,1.4187584350810811,0.20009525117506333,0.8921617468972021,0.8577156644063145,-220.76807891197257,55.28000008352967,-68.38147783893768
-0.04115816281167567,0.3538294273913514,1.4172936350810812,-0.2121188488249366,0.9455967468972024,-2.2338877355936853,-220.76807891197257,55.28000008352967,-68.38147783893768
-0.030904262811675673,0.3425989273913514,1.4192467350810811,0.5436062511750634,0.915061746897202,-1.7758717355936855,-220.76807891197257,55.28000008352967,-68.38147783893768
-0.04286716281167567,0.34113412739135135,1.4172936350810812,0.7420792511750633,-0.49715125310279795,2.1477922644063145,-220.76807891197257,55.28000008352967,-68.38147783893768
-0.03725186281167568,0.34430792739135135,1.4280358350810811,3.2840642511750633,1.9303297468972018,2.8500822644063146,-219.8480789119726,55.28000008352967,-68.38147783893768
-0.032369062811675675,0.3518763273913514,1.4238854350810812,2.0168892511750633,0.29674174689720223,1.7737462644063147,-219.8480789119726,55.28000008352967,-68.38147783893768
-0.02943936281167568,0.34943492739135135,1.4202233350810811,0.7115452511750633,0.5104817468972018,-1.2338877355936853,-219.8480789119726,55.28000008352967,-68.38147783893768
-0.03139256281167567,0.34626112739135134,1.4153404350810812,0.16956025117506335,1.915061746897202,0.04855536440631453,-220.76807891197257,54.36000008352967,-68.38147783893768
-0.04262296281167567,0.3472376273913514,1.419979135081081,1.2840642511750633,0.7318557468972018,0.33863173440631456,-220.76807891197257,54.36000008352967,-68.38147783893768
-0.03798436281167568,0.3511439273913514,1.4236412350810812,0.9252852511750636,0.4265127468972021,0.9340515644063145,-220.76807891197257,55.28000008352967,-68.38147783893768
-0.03627536281167568,0.3594447273913514,1.4143639350810813,0.12375925117506337,-0.10020525310279771,1.2012271644063146,-220.76807891197257,55.28000008352967,-68.38147783893768
-0.030660062811675673,0.3565150273913514,1.423397135081081,-1.4640272488249366,0.5639177468972023,-1.9361777355936853,-220.76807891197257,55.28000008352967,-68.38147783893768
-0.03358976281167568,0.34919072739135143,1.419979135081081,0.08559125117506339,2.357810746897202,-2.646100735593685,-219.8480789119726,55.28000008352967,-67.46147783893768
-0.03700776281167567,0.3408900273913514,1.4177819350810812,0.6657442511750633,0.7013217468972024,1.4989372644063144,-219.8480789119726,55.28000008352967,-67.46147783893768
-0.03017186281167568,0.3472376273913514,1.414852235081081,3.474904251175063,2.9226957468972024,3.9569522644063144,-219.8480789119726,55.28000008352967,-67.46147783893768
-0.028462862811675677,0.3538294273913514,1.4197350350810811,1.3909342511750635,1.1669707468972024,2.1019902644063144,-219.8480789119726,55.28000008352967,-68.38147783893768
-0.03163666281167568,0.34797002739135136,1.4246178350810812,0.3756672511750634,2.0601007468972026,0.42260120440631455,-219.8480789119726,55.28000008352967,-68.38147783893768
-0.04482026281167567,0.3445521273913514,1.4190026350810812,0.06269025117506333,1.113535746897202,-0.2491545355936855,-219.8480789119726,55.28000008352967,-68.38147783893768
-0.044331962811675674,0.3472376273913514,1.4204674350810813,2.8107822511750635,0.4341457468972023,2.4455022644063145,-219.8480789119726,55.28000008352967,-68.38147783893768
-0.03285736281167567,0.3574915273913514,1.4165611350810812,-0.24265324882493666,0.4417797468972018,2.422601264406315,-219.8480789119726,55.28000008352967,-68.38147783893768
-0.03505466281167567,0.35358532739135135,1.413143235081081,-0.6319661488249366,1.0601007468972026,-0.3560247355936854,-219.8480789119726,55.28000008352967,-68.38147783893768
-0.05092376281167567,0.3460169273913514,1.4185143350810812,-0.15868374882493663,0.07536774689720227,-1.4705287355936854,-219.8480789119726,55.28000008352967,-68.38147783893768
-0.04701756281167567,0.34797002739135136,1.4180260350810812,-0.8991417488249367,-1.7795942531027977,-0.6842687355936855,-219.8480789119726,55.28000008352967,-68.38147783893768
-0.03700776281167567,0.3538294273913514,1.4260826350810811,0.04742325117506341,-2.1460062531027977,0.5142042644063145,-220.76807891197257,55.28000008352967,-68.38147783893768
-0.02968356281167568,0.3469935273913514,1.4170494350810812,0.7802472511750633,-0.4818842531027978,-1.4094597355936855,-220.76807891197257,55.28000008352967,-68.38147783893768
-0.03774016281167568,0.3428431273913514,1.4150963350810812,2.2764312511750635,-1.1612732531027978,1.6439752644063144,-219.8480789119726,54.36000008352967,-69.30147783893767
-0.02553316281167567,0.35334112739135143,1.428524035081081,1.6428432511750635,1.0601007468972026,1.8195472644063146,-219.8480789119726,54.36000008352967,-69.30147783893767
-0.016988232811675677,0.3508997273913514,1.4175377350810812,0.6504762511750635,-0.6269222531027978,0.2928302144063145,-219.8480789119726,54.36000008352967,-69.30147783893767
-0.027730462811675682,0.3513880273913514,1.4219322350810812,0.49780525117506347,1.647886746897202,0.7508454644063145,-220.76807891197257,55.28000008352967,-68.38147783893768
-0.04506436281167568,0.34479622739135135,1.4236412350810812,1.2153622511750632,0.8081917468972022,-1.0201467355936855,-220.76807891197257,55.28000008352967,-68.38147783893768
-0.042378862811675674,0.3474818273913514,1.4190026350810812,2.5665072511750635,2.403611746897202,2.521838264406315,-220.76807891197257,55.28000008352967,-68.38147783893768
-0.028951162811675674,0.36188612739135134,1.414852235081081,1.7649802511750634,1.3883447468972023,2.3080972644063147,-219.8480789119726,55.28000008352967,-69.30147783893767
-0.028706962811675674,0.3528529273913514,1.412166635081081,1.0779572511750635,0.4341457468972023,0.056188964406314545,-219.8480789119726,55.28000008352967,-69.30147783893767
-0.03285736281167567,0.3482142273913514,1.4170494350810812,0.5207052511750634,0.3043757468972026,-0.43999423559368545,-220.76807891197257,55.28000008352967,-68.38147783893768
-0.03774016281167568,0.35773572739135134,1.4177819350810812,1.0474232511750632,2.021932746897202,1.0561889644063145,-220.76807891197257,55.28000008352967,-68.38147783893768
-0.032613262811675675,0.35724742739135135,1.4180260350810812,1.0245222511750636,2.6555197468972023,-0.9285437355936855,-220.76807891197257,55.28000008352967,-68.38147783893768
-0.036763662811675674,0.34919072739135143,1.4160729350810812,-1.1357829888249367,-0.0009682531027976893,-1.4476277355936853,-219.8480789119726,55.28000008352967,-68.38147783893768
-0.02943936281167568,0.3550501273913514,1.4172936350810812,-1.2426532188249366,0.12880274689720217,0.31573097440631454,-219.8480789119726,54.36000008352967,-69.30147783893767
-0.032613262811675675,0.35334112739135143,1.4150963350810812,-1.1892180988249366,0.8387267468972026,0.23176146440631454,-219.8480789119726,54.36000008352967,-69.30147783893767
-0.02699796281167567,0.34943492739135135,1.4231529350810812,-0.8838746488249367,1.4570477468972025,-2.1193837355936855,-219.8480789119726,54.36000008352967,-69.30147783893767
-0.03993746281167568,0.34919072739135143,1.4190026350810812,-0.6319661488249366,0.647886746897202,-0.3178568355936855,-220.76807891197257,54.36000008352967,-68.38147783893768
-0.023091762811675673,0.3445521273913514,1.4221764350810813,-1.8380730488249366,2.182237746897202,-1.1499177355936854,-220.76807891197257,54.36000008352967,-68.38147783893768
-0.036763662811675674,0.3389368273913514,1.419979135081081,-1.3571570488249367,-0.9322662531027976,0.25466226440631456,-220.76807891197257,54.36000008352967,-68.38147783893768
-0.04115816281167567,0.34479622739135135,1.4204674350810813,0.5512402511750634,2.716588746897202,1.8271812644063146,-220.76807891197257,55.28000008352967,-68.38147783893768
-0.030660062811675673,0.3538294273913514,1.4214440350810813,-1.0594471088249366,0.6173527468972027,-0.035414035593685445,-220.76807891197257,55.28000008352967,-68.38147783893768
-0.028706962811675674,0.35260872739135135,1.422420535081081,-0.13578274882493657,0.7013217468972024,0.7355782644063145,-220.76807891197257,55.28000008352967,-67.46147783893768
-0.03578706281167568,0.34552862739135143,1.4107018350810812,0.7802472511750633,0.3120087468972019,0.21649436440631453,-220.76807891197257,55.28000008352967,-67.46147783893768
-0.03334566281167567,0.3430872273913514,1.420711535081081,1.2077282511750633,0.18987174689720243,0.3080973844063145,-220.76807891197257,55.28000008352967,-67.46147783893768
-0.03944916281167568,0.3428431273913514,1.4329186350810812,1.5436062511750634,0.800558746897202,1.6592422644063145,-220.76807891197257,55.28000008352967,-67.46147783893768
-0.036519462811675674,0.33356572739135143,1.429500635081081,2.0855912511750634,-0.48951825310279773,0.18595996440631454,-220.76807891197257,55.28000008352967,-67.46147783893768
-0.03139256281167567,0.3445521273913514,1.4165611350810812,2.6123082511750635,-2.3902812531027977,0.9035172644063145,-220.76807891197257,55.28000008352967,-67.46147783893768
-0.02577726281167568,0.3543177273913514,1.4246178350810812,2.8184152511750633,-0.5429532531027976,2.2775632644063144,-220.76807891197257,55.28000008352967,-68.38147783893768
-0.030415962811675676,0.3548060273913514,1.4114342350810811,2.9710872511750632,-1.3139452531027977,-1.4857957355936855,-220.76807891197257,55.28000008352967,-68.38147783893768
-0.03310146281167567,0.3550501273913514,1.4258385350810812,-1.5021952488249366,0.7623907468972022,-3.188085735593685,-220.76807891197257,55.28000008352967,-68.38147783893768
-0.02724216281167567,0.3445521273913514,1.4231529350810812,-1.3037219488249367,2.823459746897202,-3.1728187355936854,-220.76807891197257,55.28000008352967,-68.38147783893768
-0.03505466281167567,0.3347864273913514,1.4253502350810812,-0.8915081488249366,0.915061746897202,-1.3102227355936855,-220.76807891197257,55.28000008352967,-68.38147783893768
-0.03578706281167568,0.34137822739135143,1.4163170350810812,-0.9144089488249366,1.0371997468972025,-0.3254904355936855,-220.76807891197257,55.28000008352967,-68.38147783893768
-0.04213476281167568,0.3465052273913514,1.4136315350810813,2.2153622511750632,1.9913977468972024,-0.14228433559368547,-220.76807891197257,55.28000008352967,-68.38147783893768
-0.03383396281167568,0.3460169273913514,1.412899035081081,0.7115452511750633,1.5639177468972023,-0.37129193559368545,-220.76807891197257,55.28000008352967,-68.38147783893768
-0.03358976281167568,0.34894662739135135,1.4175377350810812,0.40620225117506337,-0.36738025310279765,0.5752729644063146,-220.76807891197257,55.28000008352967,-67.46147783893768
-0.03139256281167567,0.3435755273913514,1.4180260350810812,2.8184152511750633,2.029565746897202,1.8882502644063144,-220.76807891197257,55.28000008352967,-67.46147783893768
-0.03603116281167568,0.3408900273913514,1.4248619350810812,4.085591251175064,1.7547567468972018,1.9645862644063143,-220.76807891197257,55.28000008352967,-67.46147783893768
-0.03114836281167567,0.34064582739135135,1.422664735081081,3.9252862511750632,1.9913977468972024,1.9951202644063146,-220.76807891197257,55.28000008352967,-67.46147783893768
-0.040181562811675675,0.34797002739135136,1.4141197350810812,0.7268122511750634,-0.5429532531027976,0.09435686440631452,-220.76807891197257,55.28000008352967,-67.46147783893768
-0.03358976281167568,0.35407362739135134,1.415584635081081,-0.2655540488249366,-1.184174253102798,1.4455022644063145,-220.76807891197257,56.20000008352967,-68.38147783893768
-0.02699796281167567,0.35627082739135135,1.4158287350810812,1.7497132511750633,0.800558746897202,1.0943569644063147,-220.76807891197257,56.20000008352967,-68.38147783893768
-0.028462862811675677,0.3435755273913514,1.4150963350810812,2.368034251175063,1.5486497468972025,-0.7453377355936855,-220.76807891197257,56.20000008352967,-68.38147783893768
-0.03163666281167568,0.3465052273913514,1.4150963350810812,1.6886442511750634,-1.2605102531027979,0.4989370644063145,-220.76807891197257,55.28000008352967,-68.38147783893768
-0.04066986281167567,0.3523646273913514,1.4214440350810813,1.7497132511750633,-2.077304253102798,0.32336456440631456,-220.76807891197257,55.28000008352967,-68.38147783893768
-0.023091762811675673,0.3513880273913514,1.4190026350810812,3.2229962511750636,-1.6345562531027977,2.9874862644063147,-219.8480789119726,55.28000008352967,-68.38147783893768
-0.020406192811675675,0.35260872739135135,1.4136315350810813,0.41383525117506337,-4.390281153102798,-0.11174993559368546,-219.8480789119726,55.28000008352967,-68.38147783893768
-0.036519462811675674,0.34845832739135135,1.415584635081081,2.2306292511750634,-0.886464253102798,-1.9896127355936852,-219.8480789119726,55.28000008352967,-68.38147783893768
-0.02602146281167568,0.3474818273913514,1.4231529350810812,3.5970412511750633,-0.2986782531027976,-0.3254904355936855,-219.8480789119726,55.28000008352967,-69.30147783893767
-0.028951162811675674,0.3474818273913514,1.4202233350810811,3.0932242511750636,-0.2376092531027978,3.8958832644063146,-219.8480789119726,55.28000008352967,-69.30147783893767
-0.02187106281167568,0.3638392273913514,1.420711535081081,2.0397892511750633,-1.8101282531027978,4.025654264406314,-219.8480789119726,55.28000008352967,-69.30147783893767
-0.016499942811675675,0.36457162739135135,1.419979135081081,0.6352092511750633,-2.359747253102798,0.15542566440631453,-219.8480789119726,55.28000008352967,-69.30147783893767
-0.008443302811675671,0.3550501273913514,1.4163170350810812,0.6199422511750634,-0.01623525310279783,-0.4476277355936855,-219.8480789119726,55.28000008352967,-69.30147783893767
-0.02333586281167567,0.3596888273913514,1.4136315350810813,1.5359722511750635,1.113535746897202,1.0256545644063144,-219.8480789119726,55.28000008352967,-69.30147783893767
-0.02992766281167568,0.36457162739135135,1.4197350350810811,0.16192725117506335,1.624985746897202,1.4226012644063144,-219.8480789119726,55.28000008352967,-69.30147783893767
-0.01357026281167567,0.3518763273913514,1.419979135081081,-0.34188984882493667,0.800558746897202,0.28519662440631455,-219.8480789119726,55.28000008352967,-69.30147783893767
-0.019429632811675673,0.34626112739135134,1.4133873350810813,0.49780525117506347,1.777657746897202,1.1935935644063145,-219.8480789119726,55.28000008352967,-69.30147783893767
-0.026265562811675677,0.35334112739135143,1.4204674350810813,-0.6319661488249366,0.6402537468972018,0.5294714644063145,-219.8480789119726,55.28000008352967,-69.30147783893767
-0.03188076281167568,0.3584681273913514,1.4126549350810813,0.032156251175063266,0.3196427468972023,0.6897767644063145,-219.8480789119726,55.28000008352967,-69.30147783893767
-0.02162686281167568,0.3508997273913514,1.4133873350810813,1.0092552511750634,0.7852917468972023,0.9645859644063145,-219.8480789119726,55.28000008352967,-70.22147783893767
-0.020894482811675677,0.3543177273913514,1.4194908350810813,-1.5556303488249366,0.37307774689720263,-0.027780535593685485,-219.8480789119726,55.28000008352967,-70.22147783893767
-0.028462862811675677,0.34943492739135135,1.4177819350810812,-0.2197524488249366,1.6784217468972025,-0.7529717355936855,-219.8480789119726,55.28000008352967,-69.30147783893767
-0.030904262811675673,0.3538294273913514,1.4150963350810812,-0.2197524488249366,-0.45898325310279775,0.4455019644063145,-219.8480789119726,55.28000008352967,-69.30147783893767
-0.02235936281167568,0.3543177273913514,1.4160729350810812,2.2993312511750634,0.6631537468972026,0.8882500644063145,-219.8480789119726,55.28000008352967,-69.30147783893767
-0.018453072811675672,0.3506556273913514,1.4253502350810812,0.7420792511750633,1.9761307468972018,0.5829065644063145,-219.8480789119726,55.28000008352967,-69.30147783893767
-0.02602146281167568,0.35627082739135135,1.4192467350810811,0.49780525117506347,1.380711746897202,0.3080973844063145,-219.8480789119726,55.28000008352967,-69.30147783893767
-0.02797456281167568,0.35260872739135135,1.4150963350810812,0.2306292511750634,0.09826874689720233,-2.6690017355936853,-219.8480789119726,55.28000008352967,-69.30147783893767
-0.014546822811675672,0.3450404273913514,1.419979135081081,1.4749042511750634,1.113535746897202,0.7813798644063146,-219.8480789119726,55.28000008352967,-69.30147783893767
-0.02211516281167568,0.3460169273913514,1.423397135081081,1.1008582511750635,0.9990317468972019,0.6897767644063145,-219.8480789119726,55.28000008352967,-69.30147783893767
-0.02528896281167567,0.3487025273913514,1.4160729350810812,-0.5250959488249366,0.4112457468972024,-1.3178567355936854,-219.8480789119726,55.28000008352967,-69.30147783893767
-0.02797456281167568,0.3506556273913514,1.4182701350810811,3.368034251175063,0.44941374689720215,0.9493187644063146,-219.8480789119726,55.28000008352967,-69.30147783893767
-0.016988232811675677,0.36115362739135143,1.4150963350810812,2.4672702511750635,2.3196427468972023,4.308097264406315,-219.8480789119726,55.28000008352967,-69.30147783893767
-0.013814402811675675,0.36505992739135135,1.4072838350810812,0.7039112511750634,2.0066657468972022,-0.5468644355936855,-219.8480789119726,55.28000008352967,-69.30147783893767
-0.028218662811675677,0.3548060273913514,1.412899035081081,-0.6014318488249366,0.9990317468972019,-1.7071697355936855,-220.76807891197257,55.28000008352967,-69.30147783893767
-0.02943936281167568,0.35212042739135135,1.4243736350810812,-0.47166084882493664,1.4417797468972018,-0.6995357355936854,-220.76807891197257,55.28000008352967,-69.30147783893767
-0.014058542811675678,0.3623743273913514,1.4275475350810811,0.4214692511750633,1.197505746897202,1.4607692644063146,-220.76807891197257,55.28000008352967,-69.30147783893767
-0.014790962811675676,0.3518763273913514,1.430477235081081,-0.22738604882493663,1.2814747468972025,-1.4934297355936854,-219.8480789119726,56.20000008352967,-69.30147783893767
-0.024312462811675678,0.3367396273913514,1.4190026350810812,-0.5556302488249366,1.716588746897202,-1.0430477355936856,-219.8480789119726,56.20000008352967,-69.30147783893767
-0.030660062811675673,0.3311243273913514,1.4124108350810811,0.6199422511750634,2.7471237468972025,-1.2262537355936853,-219.8480789119726,56.20000008352967,-69.30147783893767
-0.036763662811675674,0.34528452739135135,1.4190026350810812,2.2458962511750635,1.0066657468972022,2.2546622644063143,-219.8480789119726,55.28000008352967,-68.38147783893768
-0.02138276281167567,0.3665247273913514,1.413143235081081,2.2000952511750635,-0.7261592531027978,2.4073342644063147,-219.8480789119726,55.28000008352967,-68.38147783893768
-0.018453072811675672,0.3606654273913514,1.4177819350810812,0.44436925117506343,-0.3902812531027977,0.5752729644063146,-220.76807891197257,55.28000008352967,-68.38147783893768
-0.028951162811675674,0.3626185273913514,1.4124108350810811,0.32223225117506327,2.182237746897202,-1.2644217355936855,-220.76807891197257,55.28000008352967,-68.38147783893768
-0.028218662811675677,0.35358532739135135,1.4163170350810812,-0.24265324882493666,0.5257497468972026,-1.7911397355936853,-220.76807891197257,55.28000008352967,-68.38147783893768
-0.02992766281167568,0.3504114273913514,1.4143639350810813,0.27643025117506337,-0.7108922531027977,0.9569523644063145,-219.8480789119726,55.28000008352967,-68.38147783893768
-0.013814402811675675,0.34894662739135135,1.4231529350810812,0.5665072511750633,-2.9475330531027977,-2.0277807355936854,-219.8480789119726,55.28000008352967,-68.38147783893768
-0.02382416281167568,0.34797002739135136,1.4158287350810812,0.4901712511750633,-0.3368462531027978,0.11725766440631452,-219.8480789119726,55.28000008352967,-68.38147783893768
-0.02211516281167568,0.34626112739135134,1.4190026350810812,2.6275762511750633,1.8845277468972026,2.8271812644063146,-219.8480789119726,55.28000008352967,-69.30147783893767
-0.018453072811675672,0.3504114273913514,1.4153404350810812,2.3451332511750635,0.02193274689720237,0.9645859644063145,-219.8480789119726,55.28000008352967,-69.30147783893767
-0.02699796281167567,0.36139782739135135,1.4165611350810812,1.5588732511750631,0.2280397468972022,0.5905401644063145,-220.76807891197257,55.28000008352967,-69.30147783893767
-0.025044862811675672,0.3543177273913514,1.4190026350810812,-0.8838746488249367,0.18223774689720207,-0.004879735593685486,-220.76807891197257,55.28000008352967,-69.30147783893767
-0.02528896281167567,0.3474818273913514,1.4136315350810813,1.3069652511750633,1.113535746897202,-1.2873227355936856,-220.76807891197257,55.28000008352967,-69.30147783893767
