timestamp,ax,ay,az,gx,gy,gz,mx,my,mz,label
0.0,0.15071984177472575,0.07691413537495279,11.252660046242971,-1.920329967957668,0.6036490097669984,1.2268378626746181,490.950436411277,487.28005757244745,528.14210310128,jog
0.05008347245409015,1.25336961997698,1.0710538794893374,11.768210299428858,0.016740639680893028,-0.7777820901542217,-1.1551856833107494,443.7463905678004,543.2469661783251,608.2245959586594,jog
0.1001669449081803,2.2919601841129396,0.5233596516266474,11.919811176043764,-0.12629485147131622,-0.10037540866423465,-1.432465582945105,426.62551747231515,471.92191296140555,537.9383917498195,jog
0.15025041736227046,1.5890897771272412,0.6600361814703335,10.110604314175683,-0.7960206159938074,-0.09362153338879477,0.06734421466080526,529.0940683957261,387.7719615660864,503.0530199623089,jog
0.2003338898163606,0.038747266475079825,-0.40834625850232625,8.896313564485697,0.4377268046009626,1.4546355864502605,-0.6658104188008459,493.41978249334574,475.7065587514614,505.1082419297816,jog
0.25041736227045075,-1.2042376381839592,-0.8643273447161623,7.743252821285453,-0.7100681555307321,0.5013809033354855,-0.0826919637366462,467.12281388627775,476.1657656752524,431.6920672743892,jog
0.3005008347245409,-1.9969665108060974,-1.085696898806002,8.150184339390776,-0.1400110355011827,0.6148458640207921,-0.0655165862402071,481.59191130507594,476.99204972295246,585.1703913797984,jog
0.35058430717863104,-1.582723862544777,-0.2515198510311303,9.449558878502538,0.4063407613803821,0.26203576170432247,1.438258922230818,508.4428041543878,518.2654831127232,526.5133768630504,jog
0.4006677796327212,-0.1957394348803015,0.3402291970644471,11.136465880005426,0.8758445987398465,-0.5741095752958095,-0.9326275147351989,510.61439372860275,519.6630922538241,484.2574090383524,jog
0.4507512520868114,1.4933066535063686,0.9840613006912251,12.066713978736583,0.6055604726059636,-0.9333757162742267,-1.104276392838032,491.5032465291846,509.8154064178515,487.3596272458707,jog
0.5008347245409015,2.086074560358634,1.4839414729984501,11.694513175697395,0.6941033469339595,-0.5645139655880851,-0.13594586831775857,485.82430911817266,493.29439409501026,482.00965068695854,jog
0.5509181969949917,1.1423308113025588,0.4586704613840816,10.383789185633628,0.5219926473031654,0.7972109165594503,1.332672606766673,554.2286755532776,517.4077637928855,514.7357221499253,jog
0.6010016694490818,-0.006951556815199919,-0.18389486845729502,8.48528712985858,0.11878597492900105,0.9460247624810016,-0.32539005126718745,455.9366002036456,457.18633111360646,561.2115875137249,jog
0.651085141903172,-1.0946592044192753,-1.0854364453767285,7.383544527346496,-0.025393443574077135,-0.8903793485709964,0.2562547019912119,475.8500768501822,521.5869544914282,508.42786780721224,jog
0.7011686143572621,-1.7061858281854905,-1.3281717672861142,7.661692055943866,0.5302560995038185,-0.9387586000944537,-0.5435264918057876,570.3978113962502,458.5561283416598,538.5593602187171,jog
0.7512520868113522,-1.2286289231499168,-0.6892858970466211,9.107086749403507,0.3110272760410928,-0.32461667724172266,0.4859728300094509,526.396035579092,450.54405678977827,524.4999555360619,jog
0.8013355592654424,-0.1360844477499448,0.3810471790494238,10.63904134694084,-0.15374946452653818,-0.19197387547984393,-0.7713911549591657,572.1655146425595,461.91497492271077,501.76408818213923,jog
0.8514190317195326,1.6134028298646768,1.272342809771705,11.739334954560533,-1.5749525284236592,-1.5585815001814678,-0.34655623715320744,502.9709831412507,494.3493322084601,566.622158789533,jog
0.9015025041736228,1.9050797678479294,0.9135344357829052,11.211850802199164,0.7237407328354409,0.45245119898366604,0.31705550996230264,418.9717971335361,528.4546026289432,522.944491389058,jog
0.9515859766277128,1.5943424316946475,0.2958780788308566,10.386319478859143,-1.2969214692467894,-1.7570655665941104,-0.5337042644189156,506.1893027258659,462.90367214335174,501.11232680982096,jog
1.001669449081803,-0.16542904968474204,-0.4197292198997308,8.799527032778474,0.19114428576697337,-0.9380340966445426,0.2624857841925666,562.289567264769,402.2532745799848,512.579317774935,jog
1.0517529215358932,-1.6958404172431165,-0.6229136036601528,7.460793868212337,-0.2872269454848101,0.006777726476451189,-1.1484429011327872,501.1511154170105,409.6159127448499,513.3150012130071,jog
1.1018363939899833,-2.2136125084915044,-1.1773750066589725,8.043786998667082,-0.31284604991278664,0.41730893462806395,-0.8625550492287639,493.41095973122736,512.006137866371,494.84246820702543,jog
1.1519198664440735,-1.1057749698037314,-0.3828723346424646,9.585029274889864,1.2203587640686535,0.246856856134713,-0.7931242029345383,518.1999972871861,484.78573545120366,557.3335272531885,jog
1.2020033388981637,0.284357642594981,0.8240946895878765,10.890324028067194,-0.2733542592784063,-0.3692021381461156,-0.7502133777995812,500.70029290294434,531.682373339191,508.4669422222453,jog
1.2520868113522539,0.977419203027981,0.9847094161192362,11.735175162093025,1.2768151379225532,-0.965301497448847,1.6803528755726858,520.3070960602372,491.5534127100917,436.0298577743404,jog
1.302170283806344,1.649783197120798,0.8964920015425004,11.807067750963226,0.5363556634131038,-0.7317284600845618,0.8010206092222159,452.8945130856637,472.38179004391014,541.6529022992737,jog
1.352253756260434,1.6216512810658998,0.598824921247346,9.710468295853245,-0.6707344465135011,-0.45496139167918925,0.027500689627938033,519.3008476472899,488.09454556521996,547.4586247685456,jog
1.4023372287145242,0.09549596936457984,-0.5465655928063355,8.796745059777503,-0.8845808218258139,-0.9608319128562379,-0.19999855305728573,622.4397634131176,493.3146793725988,481.6768178157964,jog
1.4524207011686143,-1.1069949904487268,-0.8907329076820172,7.39404100474713,0.22730563872918885,-0.555845609778554,-1.2067714998121952,522.6365954222898,556.8063664790021,602.9786112243082,jog
1.5025041736227045,-1.8169015742598023,-1.5693805296668373,8.308801066457875,0.2173934084130708,-1.4187827922342384,0.0030234327140426093,494.2396545939728,503.83732912998886,518.9273763942592,jog
1.5525876460767947,-0.9614588493816216,-0.42147444277358853,9.644416708061765,-0.273950905099504,-0.40035864472627614,-0.4585064930089085,513.0073276953199,476.6365024762458,451.4192458580238,jog
1.6026711185308848,0.36179882752407067,0.3854490968348656,11.189224830274831,0.8271531474171093,0.3073807007416713,0.21645826367627535,573.4646369025161,496.09774093008684,460.0011925773163,jog
1.652754590984975,1.7158328649041201,0.9968084750007891,12.170079579110103,-0.5259266595163581,-0.11723767662875889,-0.10831261030553552,486.68746055490476,514.4229692442592,454.6361613160892,jog
1.7028380634390652,1.938693385009553,1.4237920352858762,11.539846198128147,0.8767545262953503,0.5463956860348954,-0.37198209276973926,530.2178425434604,465.58834912087883,438.8717006120053,jog
1.7529215358931554,1.0419280154492498,-0.19802346387262804,10.272780517992524,-0.6562197137414365,0.896145153372461,0.27991039663798306,540.0521843122241,494.7739951807522,511.9524690738805,jog
1.8030050083472455,0.629901712391955,-0.6207720319743593,8.754282524294156,-0.5935037463519401,0.880593529127314,0.270651830083012,537.2612552870551,477.639612969119,578.1461484232748,jog
1.8530884808013357,-1.02904008477612,-1.2119040196092365,7.385062702826836,0.05642361866853899,0.07497737797593054,1.4344670509797157,480.43031392297985,522.9225284587424,563.899429350929,jog
1.9031719532554257,-1.6152384265803958,-1.1632010317438568,8.090134105025411,-0.44568716206076225,-0.45474021230174533,0.37013239244828194,472.65079091618276,482.36506226782296,427.036074550686,jog
1.9532554257095158,-0.7974514495314668,-0.5356359439329037,9.814407957191804,0.8222747081484711,-1.3412067104881258,-0.3178608231996855,448.3162274520815,438.93800341669476,577.4236281977073,jog
2.003338898163606,0.1779117450780487,0.4516043153536156,11.048530584948352,0.008772117416126586,-0.5033880772183985,0.057475891840824106,408.7878398592325,514.1752849760591,497.0750414835649,jog
2.0534223706176964,1.0447535504659125,1.5631383032173178,12.148788465651476,0.8586561505446412,-0.03908105768549809,0.0065643497785845524,465.4215845503598,521.5546560629922,456.3375247904506,jog
2.1035058430717863,2.2809964628293296,0.994631292063394,11.396092664092704,-0.5436729948885161,0.3855359476689916,0.007548902484934523,543.1989393235397,462.2955828627876,533.825188446488,jog
2.1535893155258763,1.2514980308680987,1.1527252002950044,10.164757145016855,0.1604131192658582,0.06298853015314775,0.31367182339287636,511.30024431049236,466.298218827189,487.4712946895658,jog
2.2036727879799667,-0.07969662469183092,-0.7071618741824737,8.658604081836849,0.6113946011789262,0.12360086816130972,0.01841587351272758,471.2027083448312,544.2327188251489,463.70849692813533,jog
2.2537562604340566,-1.4377092144864623,-1.2694197343248266,7.912135730815977,-0.5323408940960832,0.020692329726111493,0.7669432164903376,559.4899924857609,509.222126865214,492.93472257465874,jog
2.303839732888147,-2.4774557864332905,-0.9887213571069091,8.202541451468988,-0.5172385307828689,0.42648905683238436,-0.340454507722538,502.93758442083157,518.3067464816196,523.3442772087424,jog
2.353923205342237,-1.0446579832784249,-0.3036982402144136,9.796689789107969,0.13207558459756524,-0.7668923312943141,-0.8429159915247042,499.5197973866926,524.565710772978,506.34456945683036,jog
2.4040066777963274,0.09816120215575232,1.2892199207719761,10.94056623308892,1.1931670243051133,-0.21071030890442308,-0.0383430388763871,467.94743590037166,490.9364938252899,469.58999355572445,jog
2.4540901502504173,1.4296212220552083,1.75429193884613,12.014791036274675,-0.32505099300464263,-0.6273873405025961,0.09030858551523777,481.024795452333,475.84648918384477,511.08265808427296,jog
2.5041736227045077,2.1046516203618224,0.9345556594597266,11.047548662367923,-0.38258819726567894,0.414014725260316,0.30352496169964016,498.24056931589223,489.78340503917616,530.212120275941,jog
2.5542570951585977,1.66610623344428,0.44711121811221133,10.29220512154418,-1.187721619403334,0.45921618968749106,-0.9706841968225284,486.4656624139163,502.1799785158118,511.26378884375384,jog
2.604340567612688,-0.053869396521552745,-0.6867807216373012,8.126476698278935,-0.8317362229323582,0.1968115724625079,0.9758759482457122,568.8976633936547,512.4944054688671,495.55833701295654,jog
2.654424040066778,-1.4268495623728448,-0.9243398343489164,7.208878031807375,-0.06721650156857707,-0.8368621592672272,0.8554704077796365,472.91940941562626,575.3547486794937,432.7791088318935,jog
2.704507512520868,-1.7534574161331387,-0.5603905501947475,8.433036259588661,-0.40610169345607167,-0.5359342300090405,-1.1285933458339041,586.4132811915316,445.3444616764347,466.6503472788491,jog
2.7545909849749584,-1.0657049190261714,-0.4287722481426998,9.698618814320318,1.1061912722716971,-0.031130555751458146,0.11164213146251413,489.2522198002475,547.463131497819,428.15200925030996,jog
2.8046744574290483,0.2398303024625687,0.8247670884853533,11.38416016703936,-0.4650282877185485,0.41306878420994986,-0.8760853681518416,484.2603191728264,535.0329198084346,479.0453473972835,jog
2.8547579298831387,1.8368531205062628,1.2954068582319944,11.975379047121725,0.813714573243783,0.297963623525328,-0.31640783061782657,558.8550980833768,507.33863121823185,452.0563959875671,jog
2.9048414023372287,1.8494400444090338,1.2507805368651959,11.116519134880765,0.2050531964063437,-0.6224643221066833,1.0080056568218514,502.71938269644755,540.9987150652108,485.891543949617,jog
2.954924874791319,1.099468094576258,0.6549271194637702,9.618247805977266,0.14051102647331626,0.24475108474858404,-1.4936989204728959,425.3118669534174,510.1054434894091,537.9737278600893,jog
3.005008347245409,0.0003861479254691491,-0.19586710113531902,8.299278145695496,-0.05795930001379199,-0.8298556262098953,0.5884983990819108,506.5754804985588,535.8617134741451,505.49561775456095,jog
3.0550918196994994,-1.4868997703891196,-0.7232007807542575,7.225154668016151,-0.22955161485819758,0.41569610486136177,-0.41461474117838254,513.371225371401,500.75306652693297,467.3122379188122,jog
3.1051752921535893,-1.5873205821791856,-1.2404071215205026,8.532050820907704,-1.1460507505196074,0.6104708293647567,0.011917655100498385,538.0143968901763,503.188980250037,534.5910443956973,jog
3.1552587646076797,-1.1006748696472073,-0.3954322132321583,9.6576519413684,0.3171852307042678,1.204906986911167,-0.10589323502285188,501.42671782632357,454.2867215341491,466.7725974326518,jog
3.2053422370617697,0.19599805761002492,0.6473909628232308,11.046716386178256,1.507753918985644,0.757885771051796,-0.623882406218034,564.8694748364275,490.974828356017,618.6565401194248,jog
3.2554257095158596,1.395306919102261,1.6500950310559823,12.357177900962535,0.5452402957340139,-0.8023697219821259,-0.012331045198293086,558.5512453303295,476.37252180623625,472.60426280756445,jog
3.30550918196995,2.192991256210863,1.353121734889629,11.698828233540942,-1.0561435709308828,0.472686271679644,-1.3467490262181674,551.0879012458136,577.648573850436,485.5577232328207,jog
3.35559265442404,1.2509172631597985,0.5942992219831424,10.258855482361856,-0.4665537473881218,-0.32793366643291055,0.8235127904712045,469.7497370196834,540.7492611549932,512.6336690651796,jog
3.4056761268781304,0.12487671636857607,-0.28564121312885904,8.964317599407796,0.6867940738340148,0.452906570432862,-0.29225781562827885,469.3397193461022,447.2830455535951,530.6092046737978,jog
3.4557595993322203,-1.1200401256888346,-0.6189989983414428,7.4293715720010916,0.8491647341438509,0.5150602594357147,-1.0163829548089485,488.5823146630755,591.6806905135915,464.38201289589574,jog
3.5058430717863107,-1.7595365998702726,-0.9657608834575118,8.122014378461193,0.20554091033095753,-0.9209375004097854,0.22401275304622142,440.2803948251555,521.9346449854788,518.0738606771039,jog
3.5559265442404007,-1.1121468737379931,0.006985450419874528,9.721602902428444,0.8401834011584279,1.008895889831765,0.4728810812151538,491.1869346770201,495.4459704806731,538.2820573082992,jog
3.606010016694491,-0.34059704055545115,0.8783081967162094,11.033531193103114,0.3029442348636422,1.165189062221585,-1.0365007031834634,477.66408548583036,451.1718650029965,559.6930847503025,jog
3.656093489148581,1.345670065860141,0.9702881024735792,11.915368856764474,0.6738727013086384,1.0026541602202645,-0.2570463075021222,549.1155213580466,531.1190088810241,567.3872243574472,jog
3.7061769616026714,1.7974767039712172,1.1117111407665874,11.532121421559593,0.6286085090705356,-0.6414471416390346,-0.6737038343067168,563.2118445953625,516.9902891594518,472.27188020184514,jog
3.7562604340567614,1.1299928893205289,0.34916615408553164,9.759059069124145,2.2163881620188026,0.26538426239783813,-0.30147001581112426,503.86069346687,539.0315285748037,484.7531546368165,jog
3.8063439065108513,0.012592499168649907,-0.5156305604392375,8.49255643466029,1.0434039295891342,0.992348754595644,-0.1392252123371647,535.3018766391383,509.18297435953855,523.4576060872638,jog
3.8564273789649417,-1.398361467930491,-1.2787630885501835,7.466978701996719,1.1525210177892016,-0.0749865198957875,0.05276965975811677,450.85897463924147,516.3266446978743,441.4952976393614,jog
3.9065108514190316,-1.8904456421922418,-1.3943808028661475,8.387480565262779,-0.04650434921083416,0.00669360376601444,0.08787513748783206,540.6868185881408,482.73757211800284,472.41318173621954,jog
3.956594323873122,-1.3023975904765064,-0.1936862987878129,9.899911916758914,0.16998196827038956,0.23775298790974203,0.7033813882027952,495.5367589334436,503.5706117821569,563.1590076263788,jog
4.006677796327212,0.47342655489955315,0.17548120126663613,10.907375309287632,-0.42440876193999855,1.0152981988158831,0.3576649329694328,517.5972924722985,432.6916416754486,479.09672745615785,jog
4.056761268781302,1.648369370922246,1.1957612443402716,12.142835239230605,-0.6194429092034932,-0.21382413035111933,-0.6870791183964049,476.3895813348444,498.2898607650565,537.1362748850503,jog
4.106844741235393,1.814359326398513,1.1826095792707396,11.319564203050476,0.6750894625585414,-0.8218960381858155,0.27346147746798294,533.9561699846886,532.2021906378249,592.3452231533595,jog
4.156928213689483,0.9565887923996453,-0.103938279210191,10.041645536030979,0.7735886047220148,0.22008727701751074,0.3526697419028739,564.3536285799423,502.42734135683537,589.7259193387325,jog
4.207011686143573,-0.45383270532902575,-0.44024062225280275,8.430535963610675,-1.120052570906311,0.5856664461833188,0.8981661575312441,550.2238081453722,411.2885180301151,467.4957471939498,jog
4.257095158597663,-1.468483302196841,-1.09264649537106,7.665935244818376,0.7741029742461492,0.8842687427941717,0.41483373487067177,555.796089162363,507.3557792016279,473.46800221523756,jog
4.307178631051753,-1.9801060647098854,-0.9745372225554831,8.11752889094834,0.2968055725007959,0.5843008976138803,0.3525956163549875,424.3218385342909,450.5369160151858,484.6216969307477,jog
4.357262103505843,-1.5090598946356786,-0.11890367015024089,9.673734959061072,-0.7198983888038422,-0.032899479930498576,-0.49675033075427105,551.4011612777099,488.67821791383096,486.8254058699972,jog
4.407345575959933,0.6440236099203159,0.5470438028531933,11.2797574077751,-0.15835749305878952,-0.26853133312841104,-0.34266582291679176,511.19843209404866,468.8110130641535,476.99764986773516,jog
4.457429048414023,1.025855702950801,0.6701203958415947,12.131949872067338,-0.4649399154084049,-0.6673095790608036,-0.5720009849693265,491.8984013840368,516.2613491588579,474.54619293915016,jog
4.507512520868113,1.249202298977849,1.1759377531250486,11.391205598025287,-2.088852743608311,1.1495162329720963,-0.8539050988458379,528.7512935866939,548.7026597729858,446.1207620431596,jog
4.557595993322204,1.0749838967462737,0.36320627349820234,10.553035420996915,-0.3732674225276098,0.9233823657714062,0.8107453811728675,489.55970109061974,461.90047633509215,462.5187893280131,jog
4.607679465776294,0.17007526064533185,-0.45654791490898167,7.92692074302805,-0.2639508035882221,-0.1472258436314582,0.3944672296733121,458.08645430820593,505.34474247214524,468.7231693629668,jog
4.657762938230384,-1.6906890845287736,-1.1051953670382384,7.3855157977768995,-1.239456363255194,1.2389899404577658,-0.26313929419343945,553.3857215378946,552.8850013736491,569.5212186645734,jog
4.707846410684474,-1.1891024455160486,-1.4100218704708103,7.994324103859468,0.9669570921514393,0.9390523031234438,0.26348736387888705,517.6041295336072,489.5337856556922,476.5341103793966,jog
4.757929883138565,-1.3277465962454011,-0.5247199980540884,9.772119502928614,-1.1917453411171912,0.27593312072987186,-1.2568342936969414,539.1977396552902,507.12943038857225,413.9947210658437,jog
4.808013355592655,0.43020132783987924,0.43413621173331907,11.400721108164738,-0.5944770192069931,0.6350494754340972,0.5155663527996796,411.13244482535544,478.9277519026938,598.4549131643072,jog
4.858096828046745,0.90337736692343,1.0340192228914744,12.100108758489563,0.3811288157433707,-0.9277914742905001,-0.1732795472109987,505.2542314261716,526.5813554635947,507.9316705439602,jog
4.908180300500835,2.153298271355498,0.9509398781790144,10.792811969442173,0.7510326361732215,0.5130821672507689,-0.42714965511071984,462.2526535092241,560.767396809825,488.4294870992741,jog
4.958263772954925,1.3457670808009388,0.6339411814605413,10.206735989705422,0.19302845242349603,1.2670254662831413,-0.1468591440005038,493.76899777602284,456.6274415679471,505.0544787865948,jog
5.008347245409015,-0.5266754946859193,-0.3862695204796019,7.762944303692827,-1.2501915621781794,-0.268491679770113,0.1390574824861321,522.6615838931554,497.0637619922759,579.5661973994945,jog
5.058430717863105,-1.4074977794308405,-1.6285577346481608,7.80778631567447,-1.4717318932764307,0.3500401658843461,0.43880477792824646,466.3106199591171,555.045173809245,491.52978645974207,jog
5.108514190317195,-1.6406580512967752,-0.9504199693357509,8.487260438111182,-0.9876992171393568,0.025463009690275117,1.506631395569178,523.562769361179,510.695063650803,509.9322291114365,jog
5.158597662771285,-0.7109923577415201,0.08062130443450682,9.876899775618938,-0.2727084612503308,-0.45714209055534966,-0.7635278472101742,529.5318792101042,507.2504316780737,514.4130305485895,jog
5.208681135225376,0.2524214819622733,0.16735061208051483,11.008165860824125,0.8610852995383795,0.45886549073516064,-0.15009960367542458,492.367648085809,477.6475992417387,489.49205478645194,jog
5.258764607679466,1.400171076773708,1.100896478076699,12.07774678677097,-0.38773127776566657,0.16959424690714278,0.6193277065556547,490.8850021759143,473.07265272096805,566.378813315238,jog
5.308848080133556,1.8516555985889631,1.214906361804264,11.506537205446707,-0.15499909274411947,-0.022381252174957587,-0.5904814203933694,559.5191766132255,479.74795300323063,493.27938096398117,jog
5.358931552587646,1.0267611405199875,0.2013488120857668,9.910683675629056,-0.3187170949117861,1.3922075120838913,-0.5487239101458896,496.58997472935795,550.9783725384501,485.4440915236906,jog
5.409015025041736,-0.17980735144056637,-0.4061126716309857,8.288013437987996,0.6976125084090484,0.47452717309361364,-0.8646027877593447,553.2721990342767,534.1939964816571,456.064850405308,jog
5.459098497495827,-1.8142174365251285,-1.3881902900533292,7.758932295597913,-0.33497212080596717,-0.09233137593751152,-0.22876761468131832,489.3592617094061,485.73702280161336,474.1223284944389,jog
5.509181969949917,-1.8430098373492383,-1.2929918193790095,8.117402739899354,-1.2529523318197822,0.9218347281532654,0.07309120906292627,549.9505953808012,483.23718468559525,487.73473518103555,jog
5.559265442404007,-0.8190564129668082,-0.4407321879338219,9.762315156408288,-0.44126368709874386,-1.024103198210795,-0.9974395253560184,547.1492250733294,536.1821137170003,469.04067291127933,jog
5.609348914858097,0.41319608418023834,0.5886716446741225,11.663372447133053,-0.9328820732368565,-0.5472971953639366,-0.572526960885902,575.0198757782341,522.7547473307167,445.5095505209781,jog
5.6594323873121875,1.7734132867763206,0.884428292478052,12.241888287424642,-0.49943856962962224,-0.12124538845161345,0.8862090034297702,459.26405285462465,444.57548046170126,462.86327284705817,jog
5.709515859766277,2.0199397764599323,1.2274856234837357,11.322822559268372,-1.0323521565903027,-0.320958092859417,-0.801955328378812,520.9604440219891,509.0118670483087,502.56407396062065,jog
5.759599332220367,1.5301359651379598,0.47893816193640165,9.983092307718701,-0.16976236060422614,-0.8792936555575597,-0.04142738777346934,501.8656566522152,452.673104462266,508.7672888500701,jog
5.809682804674457,-0.2991179937225825,-0.4600927529096827,8.113026812315384,1.1347160930119655,-0.07892269308538909,-0.9120890634117128,458.58265315975876,536.5416139850277,531.2991800702644,jog
5.859766277128548,-1.3912190516343914,-0.7903756118549783,7.088862330849535,0.3048196229225596,-0.21352176604788758,0.5985666941720167,516.6859014317233,575.2359911431986,530.5235082702445,jog
5.909849749582638,-1.6611023907365077,-0.5765048969583002,7.586937049679424,0.6303600152671606,-0.49463792892380276,-0.9166329907322976,535.9276621887141,506.69383015468065,458.22069481338997,jog
5.959933222036728,-1.424000984101678,-0.30107878482537564,9.175691211569346,-0.4291296606420406,-0.10882004042802632,-1.1806576570319256,488.49382384353993,553.30471358077,382.6233489530721,jog
6.010016694490818,0.4416948114666453,0.3613852441530859,11.203338754563802,-0.4110085084754883,-1.2555178045883455,0.12409209936548664,466.7744551806492,537.1969144551507,454.62539507693583,jog
6.060100166944908,1.6957833254763692,1.601899222206334,11.591078505905726,-0.16151539174464835,-0.7758907236948692,0.3364160482653002,489.195394854506,521.8689665818393,444.6146167663453,jog
6.110183639398999,1.8042052117401999,1.4997005241052181,11.561199234487098,-0.05320844756782917,0.8097328500961608,0.2879594658758352,514.9565203185739,441.6502029002487,556.0237819428409,jog
6.160267111853089,0.9962722901534681,0.24329831878123342,9.620383780416208,-0.40201257067272356,-0.07953691406821106,0.05362005864975723,384.88261996302634,516.7953546708264,438.28389791300424,jog
6.210350584307179,-1.0254314380328644,-0.5933007525139704,7.987762084767684,-0.6030245333769277,-0.8315763980202739,0.5785662623652451,461.8281345179731,513.6069075896364,498.6095168671711,jog
6.260434056761269,-1.7999249166369833,-1.1245377785578738,7.719641162311992,-0.650663086961268,-0.4973263110709448,0.1671865736282117,463.7603357165473,515.9305077378353,563.7553502773069,jog
6.3105175292153595,-1.6414398515057618,-1.2648880334264132,8.827777439626255,0.28857092864729045,0.10402123861831918,1.5569635268570141,501.637903880698,569.4423963567043,408.31982576440976,jog
6.360601001669449,-1.4134186199334722,-0.4390499357492146,9.931665982263382,0.2919635576565642,0.4362947546892964,-0.5424132054526966,442.3557680002113,502.50545651895925,546.1425254883047,jog
6.410684474123539,0.6897695619030932,0.3775695311742775,11.405258702253043,-0.642430361088209,-1.1454812216787174,-1.3433984674743704,475.99286672113493,455.5665666731384,463.966626553562,jog
6.460767946577629,1.7756645881568924,1.396278705955563,12.272730400729138,0.7898912307038216,0.1833100512537729,-0.48552891670677545,492.56918962936186,538.5486573806807,524.127058271401,jog
6.510851419031719,2.300245139373654,1.4375734570382246,11.381851339806394,0.18772716531203099,-1.0604722497447683,0.356547140606198,492.3998562138495,561.8341964770154,448.2568047186391,jog
6.56093489148581,1.2736001130539039,0.5002074546808389,9.766480514455148,0.10964547054108768,-0.12964583285729617,-1.765246828878965,462.5371662593293,457.90376853307623,540.0594844743546,jog
6.6110183639399,-0.4809281989288037,-0.5378715063252917,8.50429325812958,-0.17636036342111214,-0.36601044904865043,0.7183021648766797,427.8043131592529,462.50261731343767,483.0262408144765,jog
6.66110183639399,-1.311718223114715,-1.145106548734725,8.053041494796249,-0.21551645074507314,0.5400826530264605,-0.7132053793983022,539.7455782915682,525.5798592714935,569.6631037469708,jog
6.71118530884808,-1.9807955474627221,-0.996750008733486,8.084856529929706,-0.37408956333868204,0.4674509281983654,-0.20295339082973177,473.5471710210998,537.2498896216849,548.726180823581,jog
6.761268781302171,-1.436448978443131,-0.5212401187807472,9.574608986108736,0.1317556932655039,0.8356242233338173,-0.8564958981017327,551.3576121447815,519.3166202227939,459.23237149203214,jog
6.811352253756261,0.5182629418513021,0.649282510326981,11.548765228075883,0.4160272770254755,-0.3917386291311222,0.3612767592858257,543.5263500969054,489.14440298373285,466.37736944441286,jog
6.861435726210351,1.552237467683572,1.339943313465507,12.139866797472648,-0.2634466422786806,0.08494143687263124,-0.6718143555773656,475.63718368090696,540.2836811160934,578.4326384581221,jog
6.911519198664441,1.7533637499726777,0.8489490769281782,11.04624058860851,0.012112362235886987,-1.2849512781845183,0.889608023677568,570.1467953318221,489.6678052207914,488.7266859737878,jog
6.961602671118531,1.1613509383612166,0.6906692448924863,9.839082386369173,0.4248398116740563,0.048185056954748694,0.0184859569456354,525.0472802775218,481.73873030070797,541.426668740387,jog
7.011686143572621,-0.33649228652838836,-0.8663214996294135,8.26205870929718,0.656382581653529,-0.9630689190875302,-0.2384355622815454,556.5425307691056,521.291976178553,547.4823197669585,jog
7.061769616026711,-1.573410507936615,-1.3573881029363732,7.1322367646139915,-0.4422080250936566,-1.7193770490546645,-1.102383447212827,448.89981765009503,542.7208183954235,583.6683994265031,jog
7.111853088480801,-1.3049621815384764,-0.8175089830782025,7.707615043654136,-0.15380252032890165,-0.23385117972084601,-0.07321799886633579,514.2851566570265,478.6756952009831,522.2037909941271,jog
7.161936560934891,-0.9569299595558985,-0.3085209279994515,9.735443236906459,0.791181605780598,0.8523551050083008,0.4245824850184801,480.5788423419484,496.5666056773652,417.19899544798665,jog
7.212020033388982,0.1992347036331869,0.17509409676406007,11.345952944556593,0.48318377477966495,0.669941246854801,1.3755624152396637,549.758987307599,408.8554902523858,495.10323336983237,jog
7.262103505843072,1.3186102548367176,1.2302748058448914,12.109531583148998,0.19184803888580496,-0.2903567392362162,0.15751823936248088,487.3082824031775,480.4750507110931,496.5719407336595,jog
7.312186978297162,1.8647824325289268,0.9520429846532239,11.300473581532906,0.6191171681166034,0.485136555504314,0.5171242546707845,449.26076527364273,461.00839353102583,437.17223248851974,jog
7.362270450751252,1.1382826043170728,0.06233238223203025,9.873813883546767,0.9990821484381099,1.6541700650058098,0.7433004912737858,531.7127005532648,547.7612417217183,567.7599650666676,jog
7.412353923205343,-0.8754479450136705,-0.4811709680647283,8.531167009152009,-0.1886337715383667,0.021475883899439347,-0.5874399070501188,528.6954337261691,473.3805778547542,476.4948871749972,jog
7.462437395659433,-1.3796627364369574,-1.4062805836873506,7.590535745306946,-0.3055079992954128,0.5726423796342106,-0.843532014937574,445.6033424009677,498.57830205632473,585.6656320549761,jog
7.512520868113523,-1.8460572328554576,-1.0004395349482682,8.15463628122486,0.5270826483023384,0.804769764692473,0.7474487188657333,508.23084262549526,469.3213306520132,507.6248502332055,jog
7.562604340567613,-1.1044417504430573,-0.14715215065856874,10.066000820723037,-0.6230473072556103,-0.6923515631480387,-0.3067919530586298,510.7746199460377,444.817902949537,500.8295748465356,jog
7.612687813021703,0.47153467410198463,0.4044774933843247,11.49401969853569,-0.21121845712636347,-0.6382060558400793,-0.09190468345461732,487.8774790502436,555.7056135176966,536.8817760145627,jog
7.6627712854757934,1.4585774075861635,0.4785078110746436,11.632492562487295,-0.4677011347857248,0.7455522352052317,0.22913391593363672,486.76507257384617,529.8053122383965,456.0643506544749,jog
7.712854757929883,1.6360053161252024,0.5866483854745446,11.184401970249288,1.0617876401601232,0.8814707441877611,-0.27702955147825536,511.07675373651665,435.93841123069,511.16968744742525,jog
7.762938230383973,0.9617092374774115,0.5095830550531611,9.62697425415566,0.271266797966069,0.2879944937043411,1.2570900944521017,538.6657678130159,515.9604752102304,458.4392391757825,jog
7.813021702838063,-0.5309395550936801,-0.5668023240287963,8.294917042089137,0.3409329360352534,0.8476885440070246,-0.3002517777682152,552.6148992746041,458.05424906258236,426.77056555785964,jog
7.863105175292154,-1.692919050626649,-1.435535722136819,7.473096476028891,0.3796810746742525,-1.1801068209304124,0.4605479559829199,485.76948099150627,508.7143002179635,569.3755931075136,jog
7.913188647746244,-1.7070970632371303,-1.164215363868537,8.055626972631027,0.38058690607430545,1.081559755589274,0.9931003528274782,520.9804161858754,446.9280608279174,513.4474442063319,jog
7.963272120200334,-0.7948297416489549,-0.4092558858469511,9.494556176297069,0.008497137078309692,1.121085186210764,0.1524350137904955,546.8793564393916,498.3346459583154,533.856207620803,jog
8.013355592654424,0.32731514213698415,0.5733077707666856,11.56481255227113,-1.5429718785129385,0.3293464903337628,0.3430930175480874,491.8339875998937,533.052252000266,448.26718975712,jog
8.063439065108515,1.6650402713020527,1.6235843689241447,12.123607112295737,-0.5617245433619352,-0.5284368777720575,-1.5096718975075298,519.15835093143,491.1895662685959,560.4659281109684,jog
8.113522537562604,1.43630996640125,1.3763370470119813,11.351185332753841,-0.0012106877735992398,1.4160906132443813,0.7484010544595854,538.1968140327535,532.0596994763739,475.8896624605089,jog
8.163606010016695,0.6208142191810178,0.39381629126422285,9.554272373515346,0.5747389626307723,-0.5757586683322837,-0.08879433355670034,468.26613315641964,499.09031005039367,508.38376695667984,jog
8.213689482470786,-0.5711008035664071,-0.7046114803694732,7.970224176195589,-0.37232823384588,-0.6112944240757558,-0.9803648916995708,530.0625311232213,560.6198253957583,481.8772333884392,jog
8.263772954924875,-1.7769511303679408,-1.1602927984435145,7.971550777647905,1.0908518131975438,0.6917438847899594,-0.3276823620498096,468.98192281680133,466.8381106229575,533.1636540038753,jog
8.313856427378965,-1.7981325942331239,-1.0891859536183846,8.58322871898944,-1.0056113677578717,0.6790409294108938,1.1528619731096317,434.9094356000701,446.079907940723,541.3822054751981,jog
8.363939899833055,-1.0762971106091457,-0.4651331426853867,9.820934624636966,-1.1849912882278393,-0.0769496653515931,1.2116374531579366,509.66022943486206,467.38682368100524,571.8267759512461,jog
8.414023372287145,0.571641516622191,0.33287767107348826,11.437483778991917,-0.7687918645534371,-0.6167155782572921,-0.19122025937513518,462.7524622162678,483.44618451953147,553.128486788139,jog
8.464106844741236,1.60513320756714,1.233947341484896,12.127582082238753,-1.0650694649934447,0.713174533959141,0.569859702680661,535.3495287232157,537.8134248178477,535.0024353918157,jog
8.514190317195325,1.6319753546369935,0.7935302132383946,11.453026782430626,-0.7132226220018625,-2.2992173401995615,-0.8076163439352951,552.6553156714957,512.6805167845713,534.9690875071644,jog
8.564273789649416,1.1111896671303068,0.21044930189642994,9.774951241977115,0.8915584435481115,-0.6651791279575311,-0.10836418987350578,417.0044815834529,474.56615470667606,484.40178451886914,jog
8.614357262103505,-0.1509985709111591,-0.9197041058694535,8.215607204926629,-0.4632611181791889,-0.2573509132623736,-0.7836445389513034,524.4196283893664,579.8670121201545,479.71136829316396,jog
8.664440734557596,-1.6602900570673107,-1.1417485609544642,7.728496386876809,-0.06732244164127964,-1.7209843009540131,-0.8740929861296596,526.8203477661809,455.7165721502747,540.604550405366,jog
8.714524207011687,-1.8228385705209886,-1.1822174836109527,8.099584072128385,0.24134150636255933,0.39319787226308345,-1.0231409473092026,473.06711611961646,566.5725627006061,468.09301327028703,jog
8.764607679465776,-1.0598876920409341,-0.6725518116325739,9.787718393694488,-0.4651805421958601,0.1282311578168975,-0.6126869072022483,553.5341712118612,530.2741647678058,468.1925858176587,jog
8.814691151919867,0.36231794678493523,0.18525235020912784,11.483661801687678,-0.09181471528141479,0.8474621572198234,-1.1411603412777862,529.022752690136,514.5178775490244,476.9453867337759,jog
8.864774624373958,1.1086380592320213,1.545550411759508,11.977833048373139,1.2760818624589878,-0.24741543394559365,0.08688589571026029,508.89758666097714,510.1283154006831,497.82984800790473,jog
8.914858096828047,1.7223649117380981,1.6257165657851114,11.110920624042793,-0.012385313608249782,-0.048854908067756025,0.4278887262072206,507.29418175887747,539.874030216287,447.3297798793837,jog
8.964941569282137,0.9678298379722116,0.35981398197734166,9.609294038099765,-0.11686286954349256,0.12614173651879346,-0.36993582592193797,516.6504317971911,478.8075235171361,480.82765950918883,jog
9.015025041736227,-0.4569483647207262,-0.6576552353393015,7.978787949318751,0.1116555516655675,-0.26374127358137517,1.3270665823554684,440.82555737224715,531.1436346287869,541.5500887403143,jog
9.065108514190317,-1.4641466725746262,-0.4810866422131433,7.806767880482186,-1.077854530869488,0.5041764259388406,-0.9116457162091546,523.3668076250683,477.0505156857143,547.5333530340571,jog
9.115191986644408,-1.9266932766517049,-1.4493062917866293,7.957923694147957,-0.16394893500848476,0.1375833740205997,-0.16849584728789313,500.1394134003361,501.2901783190685,550.9676544845483,jog
9.165275459098497,-0.9483450431255551,-0.2179111538463649,10.03400178633512,-0.8033430917734965,-0.8147940246080693,-0.11174177514333287,455.30281735699486,481.3415079066602,478.29749004141235,jog
9.215358931552588,0.1982113889186537,0.576070584828196,11.819299552747486,-0.7224096391338334,-0.2218533526010518,0.9034042605395529,446.6254544757382,457.0589935698749,495.6379328240951,jog
9.265442404006677,1.6564421524940913,1.4109219949621827,11.58224989151086,0.36157202511554803,-0.5177195193984676,1.1454826037743175,505.60288328379585,565.3752874011237,503.4163946921305,jog
9.315525876460768,1.8555641107074414,0.9230118244920298,11.27011046940329,0.6151219080847278,-1.0750108926126134,-0.6296146973240481,468.69479881426105,490.7664946456192,440.2796508573553,jog
9.365609348914859,1.0318488672656683,-0.12929173270306793,9.722612421854137,-0.313181772427486,-0.44189539608446576,0.2153840154643744,504.3312792466274,476.7522936381091,522.4810005788725,jog
9.415692821368948,-0.29117086799810155,-0.4379415803707375,7.949603538321727,-0.5823491991064556,-0.7391482587163611,-0.7912305897549742,520.1667004383323,496.4873244808348,517.5281398671533,jog
9.465776293823039,-1.8488459569925084,-0.7669579352924607,7.770194113641976,0.0041119184787433045,0.09860841569375682,0.21863316507686115,505.70901405535056,490.16756381822216,455.6656510343179,jog
9.51585976627713,-1.922937963044991,-1.0919143012717312,8.088134542046578,-0.39472494886618587,0.12310428239083615,0.19096696223401738,551.7139138891179,452.90746548353,439.51792714437715,jog
9.565943238731219,-1.166611464111745,-0.10786623372509768,9.50067406682096,0.11974593345161563,0.11620177501691925,-0.8388731037426342,501.8646831028034,513.2340036087164,488.3961298229929,jog
9.61602671118531,0.4109595404641684,0.8034695843716619,11.268996158095678,-0.394480472509981,0.5200343708360119,-1.2579971730980615,506.10009048440395,601.5723276736672,502.15977399585125,jog
9.666110183639399,1.5323411239586466,1.1961893537890533,12.403964107623676,-1.2937521168698805,0.15840490633190044,0.29870184415877343,496.23948247098525,575.433538852127,542.0994502661581,jog
9.71619365609349,1.747440305318974,0.8272708281226817,11.32509687065756,-0.05538496049615739,-0.6144317416963994,0.06838700055862111,536.5967684389921,494.1065535186895,474.15250962432765,jog
9.76627712854758,0.4122453967679203,0.35394222842471174,9.204238372247527,0.6999481877109054,1.3573772543622693,0.7767555242787976,574.9021839850307,481.58687652479546,436.9890256145063,jog
9.81636060100167,-0.4507889441470559,-0.7229998934096691,8.495912167285017,-0.69380162201859,0.4094398865967036,0.21022496578111524,545.0685847867229,491.03394990346266,566.1233828629297,jog
9.86644407345576,-1.7060650793622876,-1.1455257385350397,7.382186384677777,-0.7841232220030112,0.00587182316950893,-0.7099654871464871,504.0851703666412,503.3645815075586,526.6699954030596,jog
9.91652754590985,-2.1229982143180397,-0.9261935682641624,8.466472350166901,0.6377159816254786,-1.081611293820047,-0.024019351423273005,563.743026669206,446.71947235020946,532.638604180505,jog
9.96661101836394,-0.6085527810245023,-0.1346403260122693,9.994104576155445,1.2319249751347603,0.7091547207501803,-0.2169058776139694,441.2131908517946,409.4116523110375,444.1164384378826,jog
10.01669449081803,0.5095933589835694,0.23888064683667165,11.454533244942658,-0.08624458502862258,-0.7797787451679705,-1.0126974741976513,484.4346263211805,488.3825359905272,445.6346728498342,jog
10.06677796327212,1.5848199732488737,1.1778512897421705,12.109157192957845,1.0648199700336562,0.22322506305730186,-0.35418468267509934,485.48636757420246,526.3026142770146,496.4471095182152,jog
10.11686143572621,1.6432830428546599,0.6074060921656443,10.912096658249258,0.12256796210831188,0.34541227698213334,-0.6012393118814142,482.04817377620975,472.1603087762062,528.4018003390836,jog
10.1669449081803,0.8236337009690364,0.30794775375895517,10.224920327935582,0.21847010874862308,0.13789443954533137,0.7257691959321885,468.8763995188921,504.743512023607,413.49595648788664,jog
10.21702838063439,-0.611110293971401,-0.6675763800207264,8.200014109601634,-1.5534563412627955,-0.03475801485921242,-0.8736639111325348,529.4619220275961,548.0571020538505,522.2834070767593,jog
10.267111853088482,-1.332977124863684,-1.1368581862711296,7.589906498384182,0.28051328195492237,0.10179121796935492,1.6376292927052818,459.4931062221374,506.11627188178545,538.2952092927743,jog
10.31719532554257,-1.2690352481107448,-1.451239489502749,8.32563761046978,-0.3616952585640459,0.10012168880785133,0.27814919711182146,524.8191193962043,498.13817125896674,468.0587717457552,jog
10.367278797996661,-0.9861125378803539,0.15412170017618576,10.377597618608199,0.76966283474571,-0.7482882900908835,-1.5912781026790268,574.5831712996973,490.92071923996184,534.6080300565127,jog
10.417362270450752,0.5986911296698079,0.26418415662150446,11.382343130224868,0.4386369510337997,-0.731927262942763,0.5114388878599229,451.2788269382264,494.90743177172317,539.6201539071459,jog
10.467445742904841,1.7862441836960605,1.118006443219039,11.93953346760853,0.8912314987097304,-0.1313103367227344,0.1136617093900666,447.5994405140791,497.1286696203952,547.0530299550486,jog
10.517529215358932,1.748201918821601,1.1096104108205258,11.300449689939251,0.05465170777461737,-0.5740155231203293,-0.7298539989278027,568.5099745500676,517.5328304770435,575.3345788078225,jog
10.567612687813021,0.8937781105115743,0.36708426946134615,9.83616349505486,-0.19558244738990696,-0.2962268780727413,0.07719917771177694,511.84283592548763,527.3063482779357,453.7653796937567,jog
10.617696160267112,-0.5835608038130241,-0.7425580270473695,8.392595769995769,-0.9877808597796576,-0.07253000060172793,1.0066607687271643,502.0162448343757,512.8854297079598,469.4284188097685,jog
10.667779632721203,-2.056050972870792,-1.1510904658785184,7.6992569676897125,1.2293579456616595,0.85235327809509,-0.3729546112924178,504.7223793997114,461.88657054001465,535.7569959055328,jog
10.717863105175292,-1.7864394384162692,-0.9349858514642353,8.236914652259678,-0.8292523215573115,-0.3401033009559475,1.0512699944385993,508.2179870644187,401.287988672936,519.321623440051,jog
10.767946577629383,-0.8656679045818932,-0.26732366333347424,9.793995144380336,-1.9372323274887042,-0.6571824587775549,0.843496243865197,503.37034647269115,587.8531131938745,530.6559817480951,jog
10.818030050083472,0.414036068166288,1.0208680042455072,11.14946011960225,-0.5519031010521219,0.6896710604131534,-1.2033947887675018,535.2277902349125,484.3943790047738,467.10287223460995,jog
10.868113522537563,1.991496525002454,1.5712177647750591,12.145879727658606,0.14786363226385668,-0.3582619380629578,-0.013710567148939519,445.4291939307745,574.4567965018013,503.0089392612183,jog
10.918196994991654,2.039357399338862,1.1061210121200336,11.471783753451728,0.187115599709633,-0.5888959726771831,0.08834200024588065,483.7212366942923,501.68803019395494,504.3701258920861,jog
10.968280467445743,0.8601704869162003,0.39614212889631023,9.32309985267466,-0.2442962162798791,-0.7708755649170304,-0.2372882256377707,472.56911460722057,506.0411720851921,477.0588119762501,jog
11.018363939899833,-0.14683069110529445,-0.5674074413956645,7.771536819334495,-0.3428745469782301,-0.3640334137088936,-0.26479459240326575,413.3154520845119,516.4420479945483,557.6745813436806,jog
11.068447412353924,-1.5264212869245153,-0.864528548168001,7.677887057528009,0.15233341112121068,0.6950196476892556,0.6448217559226944,503.18831984582454,458.4647291401775,485.5203230497366,jog
11.118530884808013,-1.7028723766390021,-0.8164423619722077,8.515872302606619,-0.7638376965487063,2.002658089615098,0.6768782704454849,446.1053790528155,499.296219920882,545.4929279302087,jog
11.168614357262104,-0.9457055782613453,-0.385966473357619,10.098931901294852,-0.7417202429388123,0.1540206694461211,-1.198210019211822,509.14923790859626,509.24267960059643,489.33305901057474,jog
11.218697829716193,0.7210239434679566,0.34883820652525266,11.623277968347168,-0.8173945183351652,-1.043003777874878,0.29095148173132407,476.71861806759523,485.2326713995608,494.1220144160798,jog
11.268781302170284,1.5445120439746816,1.1399168949228973,11.913907885964644,-0.7468759018131178,-0.005713753428860753,-0.3258140997158649,434.54453324499957,460.0914201751118,552.7717885595762,jog
11.318864774624375,1.414682138598242,1.0443340172838258,11.3445645787097,0.3934729817715512,0.12979826553268384,-0.014546270788870113,421.50274404448703,581.6668124177854,482.14242154122934,jog
11.368948247078464,0.8913835056024269,0.06321854137142621,9.765332585839863,0.18002968799097455,-0.12530755101970595,-0.31051262261463497,436.6855736302511,553.6399240530365,549.9252542459465,jog
11.419031719532555,-0.18040385589044722,-0.8237485354816332,8.557761113273894,1.6290470145107405,0.29053874862477097,-0.776959473999594,495.43596688839045,524.7769107940733,596.5358866936159,jog
11.469115191986644,-1.824746075889064,-1.2010595469994683,7.800223091301223,0.8514335001428164,1.0382845315801494,-0.905743613118,543.7669750975159,491.02830273695673,459.6690941549766,jog
11.519198664440735,-1.5576936510416282,-0.8732674515969825,8.379902658836023,0.044485257025591814,-0.07646677371915186,0.02497835941656838,461.30820621408543,566.1944287914116,506.83521800308347,jog
11.569282136894826,-0.7391856457901519,-0.40471492231219214,10.17102319238435,-1.0384465132760035,-0.30226559924037844,-0.4644502320471948,535.7028443187862,662.5724569508095,467.64090723997816,jog
11.619365609348915,0.34680838022578275,0.7526942344613892,11.912268826816385,1.0897425314956612,0.9654839149059192,-0.0050722278317759965,478.3588801987418,516.8359558946106,432.0781305674145,jog
11.669449081803005,1.8211382846662991,1.154076792865096,11.622214460925806,-0.2767061635074706,-1.2944053826212876,-1.4235371501556466,513.2087395048836,444.0052053325277,474.8125531705564,jog
11.719532554257096,1.365334324022309,0.691025811300696,10.785479697284345,-0.3025102889051958,0.33047273295009727,-0.26202757979703306,486.52176018410574,540.2759864945932,487.9354229690801,jog
11.769616026711185,1.1308960200605906,-0.4318078785424052,9.63819446674035,-0.1396211693334076,-0.3582890211527667,0.7903775143487213,490.92143595898915,439.10487200110714,441.7481970368859,jog
11.819699499165276,-0.36447047923075554,-0.6961040239298688,8.136960762461742,-0.9931344468396414,0.31522915503575183,-0.3170892737240508,462.4787556849055,477.6191851982695,464.0687087163321,jog
11.869782971619365,-1.4359864949065027,-1.2193555157460187,7.745099179412441,-0.7941345798750803,0.025729940826741363,-0.1837835258250033,513.3071304003314,482.8048414260713,493.77083038949917,jog
11.919866444073456,-1.4297649159543733,-0.8563763122586072,8.501311897979429,0.7465345921307829,-0.6377023675628699,-1.360082443792038,468.6870270938673,435.5398703350594,493.2721980202894,jog
11.969949916527547,-0.7475318377605611,-0.2574797970773456,9.90845200956948,-0.6774695270211745,0.23536547358120535,0.4647542250864198,448.20441103273527,478.8482149042808,441.3158633488803,jog
12.020033388981636,0.4241745749424896,0.8535762551255921,11.601171341258034,0.8059284843161324,0.06325563138601012,0.4134578522001695,539.8922288043078,482.1161511637123,412.2765897221901,jog
12.070116861435727,1.8983537670834445,0.911506614570786,12.39561621254997,0.4059159233326187,-0.11062988316111198,-0.49922261119616324,462.40007972561705,483.6084370729556,470.45477615761075,jog
12.120200333889816,2.0865342574087684,0.4542556304231802,10.908820079584427,-1.367422955374412,1.311335000111928,0.46397506756663925,508.0558971859279,541.1988748873206,515.933527567308,jog
12.170283806343907,0.2666219670228728,0.5183747621134274,9.486753765954688,-0.06490393189278196,-0.08223679439904737,-0.25393222848465463,571.302921877904,518.2385268548081,488.60267658159665,jog
12.220367278797998,-0.792568004100497,-0.4681768389962561,7.769408168009779,-0.36654475734746195,0.02932932086838661,-0.1569251597900237,582.8500122555395,468.5144733183819,517.4537132807989,jog
12.270450751252087,-1.4681417125159135,-1.5515875871971014,7.573643678726037,-0.3541448765878032,-0.6703687436255553,-0.7979364292944741,440.3292132127755,496.41136083580386,521.8072309300211,jog
12.320534223706177,-1.78249340311837,-1.0398391705052792,8.407441913308475,0.3982477022806657,0.4351851486884823,-0.8656823537648954,507.6669053096205,418.0026613045029,487.22726948811925,jog
12.370617696160267,-0.7243612127642536,-0.2886707231868942,10.215143227436384,-1.4190706920569458,0.31578185438878487,0.32233755246425616,478.48118694866827,526.6738085234986,526.8404131609813,jog
12.420701168614357,0.45955130672784056,0.5379116525839945,11.481273910696956,0.3523770939779338,-0.2627994617078692,-0.05671848748065033,452.47943579841376,492.5674413708328,504.7875535450741,jog
12.470784641068448,1.6422946953837114,0.6503959870131855,12.153017806919514,-0.823964274720385,-0.5388300446232345,-0.32572287608051254,420.6865725856965,563.9629415487848,508.2505264049107,jog
12.520868113522537,1.7527616051904107,0.8240095667553273,10.90508200435332,0.5344124483254945,-0.8512719331838822,0.24240566481331433,541.6791692829869,438.36256883267197,534.9913704450613,jog
12.570951585976628,0.1050886276212495,0.5122246557451688,9.607553325460971,-0.539932841038265,-1.1914045278067755,-0.4586610836858225,454.860468518158,534.4829921838367,494.6778819629099,jog
12.621035058430719,-0.7557980181903792,-1.1208592666407422,8.143444971053743,-0.45084353345998235,-0.8914355894829236,-0.6029572815639346,495.54062323200407,548.9481173879717,529.9552503556498,jog
12.671118530884808,-1.361233162345481,-1.369537475383417,7.670560216123577,0.19320068034267618,0.7133943671864486,0.7374109146157393,446.90150524191125,493.90926793506446,484.32423873028387,jog
12.721202003338899,-1.519553299787822,-0.7378374432925723,8.584127899148728,-1.1004471412828507,0.7422136620372211,-0.19993711031991648,514.3429719187723,478.7665831219267,510.0644806475379,jog
12.771285475792988,-1.1961153137461722,0.02590234456004817,10.263192574013566,0.5901546842180663,0.7036960969970311,-0.6460824887245751,527.1714283134178,468.2724386913445,507.8373296658847,jog
12.821368948247079,0.7777278428225647,0.47656693713338216,11.474518503128554,-0.5108936914468211,0.4327615232998359,0.44965934651652084,523.5549704403779,500.3131231466618,527.728955235198,jog
12.87145242070117,1.3637355338160588,1.1580581684462563,12.350706979018057,-0.3485439183867285,-0.452484976623191,-0.4709391350023954,512.8968542830282,470.34544205702457,540.5217203590441,jog
12.921535893155259,2.0467961319335393,0.9657781963873313,10.869528160194074,0.9177256744278853,-0.6821892754529811,0.3893861015232175,481.38551444266665,442.13990638293785,576.6128681642462,jog
12.97161936560935,0.5995669462485587,0.355243221675382,9.713821518005604,-0.9179594492935188,-0.3078376535098509,0.18651226007720814,463.0129096344104,504.0561370498703,557.7149859264347,jog
13.021702838063439,-1.115067647815966,-0.7423357818680842,8.000827465108989,0.20260608796359394,1.3514141745922443,0.1931427275771498,472.8962842152329,482.76611687195964,562.2559267492916,jog
13.07178631051753,-1.406400980114193,-1.6233738854904862,7.964905557386273,-0.2364091608233331,-0.4010589361794452,-0.7573223459712297,530.137663153731,544.7924657916992,534.2595226184476,jog
13.12186978297162,-1.7795533840358133,-1.428952035846206,8.27628557819898,1.1626543217033134,0.5415507938159808,-0.35130350409343253,465.77679391514647,478.4226585215031,530.4782503429772,jog
13.17195325542571,-1.1559269669440861,-0.1680884428137977,10.2181124971663,-0.5229189586086368,-0.3339674030583737,-1.159363242796343,454.7207527887625,437.15461984878806,462.53360224103665,jog
13.2220367278798,0.44800008885958204,0.1945671566169136,11.559367406611155,-0.39799603817315343,-0.4603086175912672,0.2301016683394166,502.18144490053743,498.89831643421263,497.0522571553696,jog
13.272120200333891,1.4311733751394922,1.3754706546276085,12.142868038155495,-0.19852103719147243,-0.6117859209668921,0.012111120981828694,468.54117623633744,468.87653832900696,471.5618402276172,jog
13.32220367278798,2.2473743711657885,0.8899307944190971,10.846289528480453,-0.7262605149330005,-0.7743337982454361,1.060788125598412,485.3509849851718,502.42017120573513,523.9973215321761,jog
13.37228714524207,0.8936732287678798,0.12452197967556575,9.71729676903283,-0.09815618522732758,-1.2141865464430845,0.6314173394898408,501.028936808302,588.2473539719361,492.98350930436027,jog
13.42237061769616,-0.7257718159628382,-0.41888753734884243,7.924309302668088,-0.1128972082058329,0.6391153200985779,-0.3187870804324192,411.38402008788063,570.7937919413276,487.98910042088426,jog
13.47245409015025,-1.8869625803583847,-1.0638365207536733,7.5937578901936496,-0.3829305686051199,0.2123002108177118,-0.48395847768961797,496.80118919353686,514.6676589594067,453.1325687287348,jog
13.522537562604342,-1.4351288309346162,-0.7261287949145709,8.059119606836461,0.667937766737039,0.9429692650149737,0.1751796473289548,386.0210489104594,517.0287115545704,557.83402888537,jog
13.57262103505843,-0.6034793668201923,-0.4633310641802449,10.08079129301094,-0.3634794486990702,0.8948071613883152,-0.09025481800794628,527.4877326341995,517.0449176089927,488.1827910094091,jog
13.622704507512521,0.5216472780630266,0.6266003097259851,11.43903598778855,1.6540963790554237,0.012517847439048447,-0.4099122333938966,454.6193974328222,502.22385117835114,462.90429925913025,jog
13.67278797996661,1.9588258499453324,1.0025383284770018,11.948980778889103,1.2008720713216674,0.18390426658029654,0.004700097221119561,533.3159449947608,429.81327629057944,547.8253807724924,jog
13.722871452420701,1.9417190598030816,1.7219999026029167,11.216320077890535,-0.27642125195439826,-1.4963324447822017,-0.03565992157535935,475.77479441544716,467.7962492979932,517.7162401018007,jog
13.772954924874792,0.6630134476609317,-0.018178886724795562,9.715721181982335,0.08820393769179002,0.9539498379457472,0.5467591306096362,539.8649776223218,486.3328315422778,501.03600762596,jog
13.823038397328881,-0.4664653027434254,-0.7714494846235407,7.752278429151825,-0.8628686652482565,-0.35962950888530204,-0.5518589249104198,485.5088255887237,467.3071879728659,522.0687374102386,jog
13.873121869782972,-1.8296973415686817,-1.6718266583155097,7.834331890226605,-0.6386754805589896,-0.6619003325970872,-0.00891163843541053,520.747376501912,499.60663976716546,529.3381836621285,jog
13.923205342237061,-1.7496988383403729,-0.7207860553193548,8.345137507596588,-0.843932676363458,0.07154347038017209,0.30839842595958966,539.6059952321343,478.20421830227315,495.6516378947558,jog
13.973288814691152,-0.627656704221276,-0.05098285648815053,9.907810904618612,0.23821958805628865,-0.708500214462705,-0.9156117294001681,512.1106047681893,414.01558986196636,525.0797873491017,jog
14.023372287145243,0.6211036351959269,0.527813083741879,11.247785994368618,0.18215777671316247,0.5343389085505248,-0.6718494083916042,456.61979780536996,519.0416019397255,522.9919964484291,jog
14.073455759599332,1.5242244559243017,1.3719279394575277,11.94780619654374,0.01755989311170386,1.6434941896283823,-0.07271084758584197,498.3268203920374,568.0193502951818,386.19903785725637,jog
14.123539232053423,1.7034872315060587,0.3961605536407311,10.92584118491122,-0.029171637219355416,0.12929185712959804,-0.43156161688180494,479.9475281190661,506.55214839933245,537.7446098562343,jog
14.173622704507514,0.7514532064717925,0.3059100773063478,9.28283431814333,0.12157521487848441,1.0098835439682434,0.1521004582416327,457.32869304785817,537.9159759078582,476.57441259908654,jog
14.223706176961603,-0.9346098154034048,-0.713218333462347,7.455746935011824,1.0139948330065602,-0.14533403823317118,1.7409338079103134,521.9141794427023,454.3288170467913,458.51063531448784,jog
14.273789649415694,-1.4416993312823512,-1.3866914205372936,7.680591760866134,0.27339982842379723,1.7245170876250366,1.6682157298604787,531.7609094551112,579.5205781199036,505.4949139542315,jog
14.323873121869783,-1.6034728165952945,-0.5770777157238489,8.486745086199072,-0.4036173686257761,1.0665492608264486,-0.1124539792815403,570.06423367247,514.93150750583,472.6784821398704,jog
14.373956594323873,-0.9311207771070928,0.21882733930254944,10.481739722511957,0.2871431572597017,1.2158234904898526,0.16710797892548057,497.5832728062359,498.84790176828693,507.3954370584833,jog
14.424040066777964,0.8695443808634418,0.6516030595450655,11.900561691259739,0.1737754830353281,-0.7001965698243703,1.14611840573789,460.2740143088718,474.44506044101917,527.696338122776,jog
14.474123539232053,1.6702933866234173,1.130345409039657,12.141684270802168,-0.6809678217264057,0.1042798490204104,0.3568858038096361,491.1064970114607,582.8552132570912,517.1697880662931,jog
14.524207011686144,1.9024880655166818,0.2374690672205544,10.907850581227372,-0.8997343513281695,-0.547736967132715,-0.8734270191102135,495.67700567556176,499.8446802435311,501.10196863465467,jog
14.574290484140233,0.47997948527685813,0.07555742018149203,9.367644588395802,-0.25109453041488267,1.2447158868356776,0.8394170465272587,480.84512126536913,393.02944610922475,428.65267826992823,jog
14.624373956594324,-0.6114193245603012,-0.37237716723537134,8.07566417333908,0.5932539386692433,0.6229224361416454,0.9383482740880089,536.9739031795306,450.0905671725386,504.3256140908351,jog
14.674457429048415,-1.745777922444645,-1.1407788616936931,7.490392539326919,0.30348653784835183,0.19306129418545556,0.21922141092367026,560.8817149819423,492.7729316014787,462.0304444778867,jog
14.724540901502504,-1.3147379095282479,-0.9859041781473505,8.912838747266164,0.6696622962720715,0.44442586443327936,0.013999264170397619,482.44879010533043,497.8605393818868,490.13337283351814,jog
14.774624373956595,-0.875964132462657,-0.14019497796436833,10.863929378383549,0.548635877537274,-0.971256751173686,-0.7231349013726397,479.8625595536233,528.1132406137805,464.8782573846425,jog
14.824707846410686,0.32976171427938156,0.6896703791304253,11.698356547049999,-0.18933866728424206,-0.1068961411908612,0.8469438839536765,465.75911497679556,492.08454931174344,531.1970476939713,jog
14.874791318864775,1.977912236434654,1.348147739012204,11.733469040403408,0.9389228499087775,0.4431903454473477,-0.10345605350277938,478.86988242410183,430.6948836698777,507.95099274440355,jog
14.924874791318866,1.735729506039583,0.9427648244341249,10.870237888553671,-0.4243233384802787,-0.3343366136271395,0.5133602683787017,481.7225055632303,571.9306247050073,562.55144235363,jog
14.974958263772955,0.650679709941925,-0.012378634869266117,9.26315492114415,-0.3134350694464792,0.5901629900853034,0.009240291912432416,476.4867251898824,455.1109295996808,491.94193633817207,jog
15.025041736227045,-1.0238664365871766,-0.5143852960146866,8.099924326255682,0.8824453678356424,-0.3631675179433679,1.1635913518081622,560.1122142817019,560.4621044075461,510.15174452593703,jog
15.075125208681136,-1.1751261975270713,-1.2578920249757406,7.7321500926264655,0.3162243812490204,-0.9790554464087602,-0.5776647256698739,542.0173204072763,475.77876192969586,502.74203950504767,jog
15.125208681135225,-1.3321362953643445,-1.3373197480119592,8.260320955474242,0.3005628645514931,1.3735269793599583,-0.818063702905071,489.2748676246704,479.612728748541,429.67866627507567,jog
15.175292153589316,-0.429500667289595,0.07417066614454255,10.158255631311855,-0.10016275949094074,0.5822529256254905,0.28481938834344567,481.84530296180407,506.5758153339917,436.01035463971425,jog
15.225375626043405,0.6687006230889595,0.5484719434589578,11.71886006570376,0.2372950508604575,-0.21128407165501467,1.2847927806672013,484.7946139373252,537.6189586385788,485.8088784348346,jog
15.275459098497496,1.7222701128680111,1.2561945810713377,12.219806923564695,0.7120834696304514,-1.306125707371563,1.0757484564888198,546.8358936200852,533.8963496158437,488.3899960225119,jog
15.325542570951587,1.905444316722027,1.0484789220284758,10.731135707476593,-0.29030330711955044,-0.10708295901215191,-0.5960176377182539,519.5013317781753,403.9203077938804,451.6482472239013,jog
15.375626043405676,0.48847887320994626,0.5394083097734815,9.160266199001729,1.547097112631299,-0.8573061644980642,-0.3234609811570399,632.8331283328337,525.0853711369106,508.2972771838949,jog
15.425709515859767,-0.6655151238848313,-0.502110666502344,7.967140549227207,1.5428616081436572,0.4426813483989061,-0.40893774499975716,513.9489215286726,534.6118350829715,560.0088356218008,jog
15.475792988313858,-1.859894614173877,-1.0791891528451547,7.604684037956446,-0.1969890089178339,1.059275392265526,0.35404992304445737,541.9263383577488,484.08080018832493,483.2317752761912,jog
15.525876460767947,-1.538690903992649,-0.6997047727542645,8.932456100035203,0.5639385399464356,1.589756181967031,0.03219547782475332,465.7543291025701,447.9882473909097,508.76072395279135,jog
15.575959933222038,-0.689287546549236,-0.427124869003001,10.214663390998568,-0.8925150515787567,-1.1140524958378986,-0.20480516368435742,463.02204404130646,475.6178227687235,514.8401662811314,jog
15.626043405676127,0.4591079257502065,0.8437459045432936,11.547287320259725,-0.4039349494533091,0.3707128468578954,0.5491566569047993,581.6010633770269,538.1963036781493,524.2858264555496,jog
15.676126878130217,1.7820670980758733,1.0961624481738,11.813367217902595,-0.07790903729033444,-1.159830531863068,0.5469516407235827,520.7488338344974,410.73241985819004,512.4189512460339,jog
15.726210350584308,1.4711031126144503,0.845856229395112,11.18653316137147,1.1326107114174662,-0.14012456292750083,-0.9761029414492786,481.40937687506425,476.9237050452084,464.84531126298316,jog
15.776293823038397,0.7711054385116768,-0.43810295773722174,9.321628215266925,-0.7663890708481729,0.26506324528191677,-0.17444516948212724,451.52062548000674,462.55161548041707,455.2272124702377,jog
15.826377295492488,-0.625493650089039,-0.755055889535736,7.894169490597233,-0.07257719206318955,-1.215723464541492,-0.5232116168220121,499.03474820958337,460.905157221213,513.8273849771125,jog
15.876460767946577,-1.821946384878914,-1.1825237293366815,7.6473825481519375,1.1386602100867822,0.9247306394467495,0.8140688822536928,503.5156793689488,480.57566339759825,446.1149335439203,jog
15.926544240400668,-1.8214806443415001,-1.13687190134495,9.078728715039835,-0.15255630683973387,0.07269876442828527,1.5185354233242887,471.5639997928276,552.6381460419359,569.77078690743,jog
15.976627712854759,-0.8206994548847183,-0.2984812104390754,10.034179656240472,-0.3668039138541515,-0.657811860563965,0.0553427180902607,483.4416533672673,497.0961214805397,502.440630678095,jog
16.026711185308848,0.9150638546441636,0.6597178595195421,11.697603966536954,1.0894314466178032,-1.4046465381473694,1.2536907423132595,504.61110408603423,461.05590858824417,522.5733111080176,jog
16.07679465776294,1.84463938233668,1.1320566615264345,11.500932905103205,1.1440782813895893,-1.1557489799507665,1.4370047102360806,525.358465903938,543.7057774072958,545.8926572529118,jog
16.12687813021703,1.4040419825272923,0.8000194003544179,10.500911532829662,1.293723776297569,0.7803357151465456,0.6673366797700448,523.5681403333845,557.4292434808774,459.56619648417575,jog
16.17696160267112,0.6728731400747655,-0.019947646817805156,9.476740044994456,-0.8642191018875147,1.3894858191765775,0.7492816533743561,507.5002206886183,452.6352647134828,515.5189956329482,jog
16.227045075125208,-0.530707906319696,-0.42917616095595496,7.61341530090984,0.7020983363164629,-0.929964549593737,-0.7964288892643312,524.6026562858834,590.1646494001469,488.3258738053699,jog
16.2771285475793,-1.4879613966605225,-1.1948585080205394,7.592571511968963,-0.7606401987197264,0.17709207107671068,0.1740497027489846,479.39687985286594,550.1992870418983,539.6759821922126,jog
16.32721202003339,-1.6065327891838677,-1.180871492799031,8.225927553305162,-0.00306154279994017,0.8529713036014819,-0.4625931181193598,508.0644608767428,472.05613574697065,423.34947090345725,jog
16.37729549248748,-1.0319623217395135,0.01761240952781093,10.350664920625483,0.682233214129188,0.44903477095759387,0.2174870263961129,479.2412499367745,433.6178187407554,497.65995093067784,jog
16.42737896494157,0.9365513041322678,0.9195755677350912,11.682224670279151,-0.02464663734307021,-0.8209905578135042,0.855884097992504,479.4134010732865,438.2356326106669,449.8947832966751,jog
16.47746243739566,1.4074720520841728,1.0757477767377392,11.946810944999926,-0.20772715936744712,-0.5966993765674308,-0.17200382723026222,475.0245407807139,530.8127375214845,595.9239411047204,jog
16.52754590984975,1.757437361605392,0.7673295668272939,10.59201678531149,-0.8766143783214763,0.19807181743084792,-1.3368100985688196,463.6182516288821,547.3061353021128,451.13836665195214,jog
16.57762938230384,0.5995557249014868,-0.17716074255176797,9.599175839488806,-0.7851366227066764,-0.08497910473450687,-0.8023158859596954,557.5121710121161,495.4487501684466,486.2865427641167,jog
16.62771285475793,-0.7092653046362727,-1.1409789191789408,7.725435579349663,-0.9932160141285534,0.2201868005435058,-0.039760870699494834,482.7708723523257,465.31767172658516,556.1941334589135,jog
16.67779632721202,-1.3423844515771532,-1.0076749686657251,7.662693558639148,1.236336300578644,1.432840694416304,0.4820686712542607,502.99772489294753,510.76104193360226,542.3460013015869,jog
16.72787979966611,-1.6096747934068816,-0.7296618903663685,9.02982019585357,-0.6172755051504043,-0.52725882868446,0.4730493622957002,457.24720631638195,497.28508097897736,465.3492957434084,jog
16.7779632721202,-0.8551325853287063,-0.03925536052935845,10.163728595712941,0.9073767523723184,0.2806675033116335,0.049461476144282514,510.08625139187967,480.91723514253255,514.5845184156796,jog
16.82804674457429,0.7918584049289817,0.38273360665028744,12.036511587382282,-1.2817559097220221,-0.24043502444836878,-0.8149796510374575,478.0411996780008,488.82491349205833,418.9195324518606,jog
16.87813021702838,1.7653379387021526,1.2367668649887533,11.872474947067804,1.5959763545130377,0.6253994847467249,0.1031529904573695,462.2009705942315,448.75438678431544,453.09111900681063,jog
16.928213689482472,1.6474930453559045,0.893021478778135,10.988820665551371,0.6411906182352803,-0.6080734218248727,-0.8827981980458017,503.54834667586647,538.6578152890672,485.9203173370783,jog
16.97829716193656,0.6011165778908696,0.29442235896618024,9.302854665389548,-0.538887278808866,-0.3223354031018341,0.33543613296748404,480.634510678017,479.170187709922,545.0524388542707,jog
17.02838063439065,-0.5934764250488431,-0.8816685818679322,7.918839854356945,0.519376747942604,0.9051196094561241,-0.04493382631948212,488.015434294781,458.71089475003606,482.58186275460434,jog
17.07846410684474,-1.7642719786984038,-1.3876842374061993,7.56436272841352,0.3093943444907347,-0.7787966510040407,-0.1224186425440557,513.7687718824258,522.3605730784737,506.6577761801317,jog
17.128547579298832,-1.9263214774896604,-0.6772147174871208,8.625412965644276,-0.7014856769476369,0.0815494572690933,-0.29880981079584024,520.3931852626133,593.470315300839,551.3825069262809,jog
17.178631051752923,-0.4758083359348135,0.20249019673238466,10.35190815398811,0.3567138623064962,-0.4862460341194853,0.11518246743949226,548.372841750755,506.3603637465343,489.4250678723461,jog
17.22871452420701,0.33533177118505686,0.8181360753803908,11.323587252005911,0.2688594388080353,-0.14243948201073242,0.622695491515155,583.0785742733285,546.5150483823614,440.7357665498881,jog
17.2787979966611,1.6678666522802874,1.2013016490043957,11.355584119898516,-0.8428196006076409,0.2690879133334913,-0.5555723522470776,517.4771460016086,461.5959393432872,531.1237139704073,jog
17.328881469115192,1.9089900972715286,0.7876875536116739,10.96311512094093,1.6348501202807868,1.2115806514590277,1.1584942310715924,472.72968546355185,471.3545508757721,479.56362858127386,jog
17.378964941569283,-0.05253093606883075,-0.542919237988009,8.953079165535256,1.592543972356322,0.03446306247962223,0.49498314695917384,424.8241028202281,449.3716865085688,518.8905691074651,jog
17.429048414023374,-0.5597758389261913,-0.7143520812743325,7.939384445262724,0.35715445084079445,-0.8811419547623943,0.04668319038038535,538.923394117904,456.82987936365413,504.96990529599924,jog
17.479131886477465,-1.4465669459234023,-1.4628504238754612,7.8222610826121635,0.004609126726533716,0.650356611445779,0.06130106317378172,528.5895862409869,521.07983253629,419.60311632970576,jog
17.529215358931552,-1.2690983400014053,-0.6061305685171463,8.70702387191869,-0.11816805080946548,0.4143239135364643,1.123574131310776,514.4174976220486,503.6316206082459,461.1980144953106,jog
17.579298831385643,-0.7606547163877457,0.19143096631244985,10.438468984686667,0.3976672272963127,-0.41459852004371206,-0.17311921100077493,496.4766148193696,511.7325017445097,482.3804097055995,jog
17.629382303839733,0.348424868288728,0.8994488182842173,11.999962689629893,-0.33266547232660065,0.30306522727477575,0.4017381715104703,491.5489317657538,474.6831431758632,416.8609275393276,jog
17.679465776293824,1.9194960049716052,1.3910857027067922,11.785108548454438,-0.35407914266619844,-0.01384440939847757,-0.7395234187308732,479.54290774135086,488.03650338076625,571.2903861547775,jog
17.729549248747915,1.8716344327659682,0.7725146993163896,10.681806605865331,-0.8229720754680673,-0.03877524209756089,-2.0040601322202236,448.1854724479701,474.478321586229,496.5204247295032,jog
17.779632721202002,0.6258557306317643,0.48999729941733133,8.999693387970458,-1.2182445723856428,0.32064990615520034,-0.21765752984933545,470.9605901799381,475.2714415495502,476.1467253480646,jog
17.829716193656093,-0.5495388205919457,-1.0492580227480166,7.30534156075126,-0.3409211387164962,-0.44122392584808884,0.5917340013811813,469.8683560909938,509.6486520935734,452.53155924823795,jog
17.879799666110184,-2.200068341349865,-0.9937682754945256,7.762030656497867,0.47013371682722616,-0.922474394615411,0.5975519505850851,421.60669120437063,556.5222739511667,470.67431929670704,jog
17.929883138564275,-0.7237171785527542,-0.8956859343800632,8.400815747486844,0.14422946995582892,-0.5871036640244099,0.39479015105351056,459.0071107746322,526.0741220337665,474.31773065126487,jog
17.979966611018366,-0.7203108059559385,-0.1462269575465058,10.538726560234394,0.2741631979380557,1.928868066882007,0.16117549433617934,529.8095739798075,493.467698410309,525.5241818514739,jog
18.030050083472453,0.7372343509755088,0.6017069629545466,11.597732246169958,0.23354960421256132,-1.4423329461648247,-0.7247732101809798,537.7417567059282,469.840754716982,473.97943453580905,jog
18.080133555926544,2.0338470747067436,0.8722992895742652,11.925026238173226,-1.1447124568651965,-0.23965157308024615,-0.39223672357600453,571.9609916974307,503.76963253341745,549.6677023226146,jog
18.130217028380635,1.3875055986032874,1.0576838265651938,11.022925705858412,-1.1112238930588685,0.7360284983064438,1.9355115334298196,527.3590647872959,574.5218537482031,477.99287404001745,jog
18.180300500834726,0.6926621261950031,-0.05296099024681403,8.939480236542373,0.1329267883823445,0.9043217662051674,0.5896087994405744,508.6366157574477,545.8378785841029,504.21102695633635,jog
18.230383973288816,-0.9151343361587955,-0.6516275300703884,8.030518463276849,0.6119574656891067,0.6874392428425707,-0.22310647668884973,537.4244396795572,480.28803360172003,467.2879424773023,jog
18.280467445742904,-1.3751310773667367,-1.1930287069425713,7.694698121309466,0.11349701950172189,0.22261797494730334,-0.08451039610614586,515.6898992181457,408.5317862427017,524.5547155926029,jog
18.330550918196995,-1.5177476989694925,-1.1786092655508063,8.896299407671954,-1.157184301064021,-0.6592064040258618,-1.9081756240852294,486.5439609901953,519.9152202899957,438.8999043678965,jog
18.380634390651085,-0.9769339273318183,0.20808381870472023,10.630426057134306,0.12126860379341649,-0.23770741508164095,-0.23660741549165357,537.4332267452834,539.9281600128646,495.98029429368785,jog
18.430717863105176,0.5095362918567872,0.9934689810443937,11.652116393732857,0.8552140858911801,1.5025790071222511,1.0826842666667522,508.0499628852572,445.10180555137066,572.7147880454881,jog
18.480801335559267,1.6177657844013273,0.7279660837175441,11.87599256983743,-0.29302559493687963,1.1199445583354315,0.3644277497567797,423.166021417721,541.0975995217306,590.8826473378821,jog
18.530884808013354,1.7262042530284374,0.6231966638514652,10.999646939091523,0.16052079344818782,-1.1508983317920858,0.4134053520747933,531.292545904456,478.5352905028645,538.9341939930224,jog
18.580968280467445,0.19717336523838574,-0.1453226029122551,9.036709722043705,-0.4718472131074296,-0.13444731912759256,-0.638007028875926,470.07499963717777,501.64901250427937,493.7266877591675,jog
18.631051752921536,-1.350520315845874,-0.39506032009062936,7.744752346019873,1.0264957931859144,-0.3959220508460781,-0.33515037280477344,455.8948833426583,469.7556628265664,469.22835755432124,jog
18.681135225375627,-1.4621486086150273,-1.296487987170689,7.383166637408051,1.2648751425829328,-0.02414571813792254,-0.588744272771474,525.2762213431741,504.6950236924579,502.94264144297614,jog
18.731218697829718,-1.5208990948771213,-1.163891787339303,8.449619791738835,-0.0736999510958978,-1.3308692733766387,0.9744048279007045,507.19903259409375,459.2619460498947,501.9028729134474,jog
18.781302170283805,-0.41344647504632553,-0.023129634142605576,10.67236555874461,-0.9417699728415292,-0.4941030160719903,0.05964868082956342,453.74666400429277,499.4581740683825,459.41794777219013,jog
18.831385642737896,1.0013786633865103,0.8178848181779921,11.582456614789749,0.33923639107896425,-1.0189048699041867,1.1577156899025765,502.56927572068025,576.2873835749796,515.854611870743,jog
18.881469115191987,2.420484735588141,1.346249233141263,11.828680891984419,0.4285554300683444,0.3333346272417915,1.2588731226960432,492.4125012615176,499.31041790069423,452.20240451145156,jog
18.931552587646078,1.0269861790844428,0.8170857001386072,10.709930098036693,-0.48589437788219253,0.1901097202372553,-0.677579165886402,431.15231480158064,473.664252967419,496.15095345087605,jog
18.98163606010017,0.28257969567249497,-0.5222088614495572,9.353295539147604,0.4340339751923076,0.3112741066847578,0.18349645367956782,499.18455719523905,436.01866501322365,490.4394756079287,jog
19.03171953255426,-0.6954545603958663,-0.6971146768371168,7.769781536148443,1.2041298260871551,0.11192761382710234,-0.703773834315984,510.39022676220435,500.73287517557105,538.4898710187773,jog
19.081803005008346,-1.4992671601134115,-1.393499396524399,7.636966909425523,0.10990984518197847,-0.7331914551160209,0.9566945079381175,434.19578479512046,423.8861754669713,534.9726170541036,jog
19.131886477462437,-1.1972460621378356,-0.8569655952166517,8.932876168153133,0.17814564799957117,0.007237867085813515,-0.5547457710801068,504.30316098998077,568.2868999913782,573.5164560636656,jog
19.181969949916528,-1.0062863981596295,0.23392355861676464,10.628566104694707,-1.1354658585403072,0.40482192789745997,-1.3049733786283395,516.0318331882497,521.8049812358502,493.7956776112354,jog
19.23205342237062,0.6839948526980735,0.8252655801587558,11.789212896480528,0.710491608426282,0.6945231870251846,0.3740806427932546,467.5810218594451,488.2609932817001,540.1980982867999,jog
19.28213689482471,1.6858549084187717,1.317915793274133,11.790332528429417,0.5030088785461899,0.0939884832564735,0.30206811732305333,479.8141896995673,496.6449796692543,523.5709706124549,jog
19.332220367278797,1.6697679370846383,0.5630403746101977,10.54698605534731,0.06756578683695227,-0.06540161300421067,-0.04497601032241015,520.9221568913077,447.3912051435549,491.067759346826,jog
19.382303839732888,0.4138880457151832,-0.2983778804962486,9.013164633815972,1.3490649767600504,-1.274130761392326,0.8456815811169307,565.9967847731045,482.802095237341,494.8182083251731,jog
19.43238731218698,-1.1720028277617263,-1.1475505292716164,7.692991189451573,0.3926427932757448,-1.3174930482117813,0.06264127046565068,543.1699813819316,429.15506179774843,463.6353329120995,jog
19.48247078464107,-1.95750274578608,-1.2252094163465281,7.309211525399704,2.031230327740041,0.7753474456677979,-0.04061241850892693,432.6990292518049,483.2674933363176,539.7114355263883,jog
19.53255425709516,-1.2058654236268564,-0.976333677048365,8.58852909729241,-0.26132945319985046,0.7389054422758985,0.5948668990621543,534.6441534067802,525.7894555912212,470.4140876917016,jog
19.582637729549248,-0.11779420403227531,-0.019116010841669404,10.333254685216279,0.9346986026866683,-1.3934580686139217,1.2252810514734693,504.54594895099433,482.0681470298529,484.35207598798377,jog
19.63272120200334,0.9680594378037847,0.5907113589593298,12.080342654388348,-0.8000543841102766,0.19496282604478796,-0.8439238569451059,598.0045569963771,424.84618093121077,437.064789126025,jog
19.68280467445743,1.8196404843879408,0.8464840116716195,11.756281317711249,-0.16891554361321148,0.2756927762260303,0.06298461254800983,466.9609689027518,539.7251000983862,482.96549916736114,jog
19.73288814691152,1.377698237432479,0.5025093043704718,10.758115073638686,1.3596869170650439,-0.2186298009094126,-0.03496758318182461,415.3257030160992,497.147322621132,545.2094478399439,jog
19.78297161936561,0.35303766371112116,0.18941472941343995,9.043853691168309,0.2759206901487418,0.8087424995734519,0.45231970404199245,575.6232848567447,528.5017426822074,473.10050936979405,jog
19.8330550918197,-0.718898363248777,-0.9677563578704533,7.82923875494549,0.21483635066296358,1.0565282001267782,0.15655562212560664,465.6598764324841,520.2068486417793,419.5780912379879,jog
19.88313856427379,-1.4269963049904193,-1.6200248729751374,7.786467081926457,0.5218429278637055,-0.17102297475681025,-0.2933119985924527,446.9703687332404,492.7685200390877,429.8689057990555,jog
19.93322203672788,-1.0812839813242463,-0.7849154313556077,8.651772775233974,-0.05569999096103163,0.6376910124895158,-0.2194682532347031,461.1666914732419,567.1299506172912,517.4876341764685,jog
19.98330550918197,0.052922406414055004,-0.47045267800915785,10.3873289574763,0.9296750922825476,0.7041643192042847,-0.9012237447316188,604.8863585693904,495.62685661341857,554.4814537067608,jog
20.03338898163606,0.49746414600198313,0.6933629677188189,11.571730820173864,0.4592424648181805,0.5538550372973543,0.5825717528154832,539.9857673299432,493.46494854310197,506.27148983091416,jog
20.08347245409015,2.366803537528824,1.329793752649017,12.374067801168339,0.5928502329417275,-1.146456534481739,-0.42338162467736384,510.9346729793561,564.4715355093305,446.92191763879254,jog
20.13355592654424,1.20440178850125,1.0345299148507632,10.248930596296082,-0.9408007519453273,0.13968722921838897,-0.04761141187824426,462.25194256463703,524.0758457329116,485.42169013888423,jog
20.18363939899833,0.7005140659200827,0.24603821911363977,8.958666590322531,-0.05824081413241532,1.2858496836745998,0.37304686304888857,488.02948844555016,557.0288415625669,518.6667336047174,jog
20.23372287145242,-1.1317505666289813,-1.1325585278569794,7.644968321339466,0.5506590359276416,0.8335805985200629,-0.2960220618645239,477.76174955166204,473.0116574754157,502.7503284413506,jog
20.283806343906512,-1.488569314824829,-1.0315962129337268,7.433894408317469,0.6449164194007168,0.45310942336270527,0.09045150058140719,536.6211388299324,486.3313107767467,582.4452222478973,jog
20.3338898163606,-1.1284604087780485,-0.6502574234277059,8.876961748003856,1.4339764097630858,-0.04620841269852768,0.5998094657229157,498.319138829366,495.31984724126374,442.0173591275656,jog
20.38397328881469,-0.043761730596304005,0.3745044517928896,10.471599915246562,0.20247891517447364,0.2839627854262251,0.23078995472626002,517.865594780662,462.83512547868276,482.63381452631774,jog
20.43405676126878,1.197819646247018,0.9465827412622463,11.972422253901277,0.8431315117866914,-0.44753946480472806,-1.6149947085747576,436.4949709884215,514.5999988713169,552.8451970214984,jog
20.484140233722872,2.1936420929199416,0.8121683726079267,11.67854242322863,-0.46632417492101064,-0.17439255908260634,-0.9461314218031983,502.78655060098515,422.6329574077506,465.5228077075359,jog
20.534223706176963,1.2780589356443215,0.6138372808850214,10.782635615868577,0.8916490351673273,0.0965173476563589,-0.6456018711437115,553.2154892434945,518.5207983477023,547.3920182176206,jog
20.584307178631054,0.43436601768771416,-0.09761533528907382,9.246948810002037,0.8872540646007585,0.3819771315430161,-1.3656028414916193,476.9175012920895,557.6675079112922,560.5783652773038,jog
20.63439065108514,-1.0303905809699514,-1.252647710006651,7.834999777382207,-0.1026641213479339,0.27445737555739874,0.6408222581652123,509.32468902296625,513.5606575236094,490.77424013911,jog
20.684474123539232,-1.742352534881064,-1.2573028440181828,8.015995099002799,2.0662144978442734,0.3715624657882532,-0.10683436316353788,462.2824593964997,476.73752613058696,429.8391771295074,jog
20.734557595993323,-1.3964974136180743,-0.738999798348847,9.289318096130772,0.3838162303316982,1.0870295320402426,-0.3291027275169741,453.17536338591606,484.973432556723,526.0263069915244,jog
20.784641068447414,-0.8906503196375526,0.37024499485195517,10.604069883318104,-0.6808211813487394,-0.6315855461668636,-0.6014055392196846,511.70074788257,507.3195058466677,443.5787761484954,jog
20.834724540901504,0.7772025258427461,1.3224194801471376,11.713206188653633,-1.5537907427386752,-0.06665456674126082,-0.23567239815158178,507.61112811404075,500.6147425346486,448.1693227366303,jog
20.884808013355592,1.9498546691034622,0.890253620200494,11.640439163533543,-0.18130473942959685,-0.3141125876247957,0.11443759638753155,512.9642094130568,508.06061311638217,499.14806665313415,jog
20.934891485809683,1.8268360848041665,0.6464520181996756,10.980096397170046,0.7477858021554245,1.243311169617286,-0.21422933091876376,508.78256492424595,542.2963031409244,463.39083537005234,jog
20.984974958263773,0.6175399518331625,-0.5366521641554705,9.005566369360794,0.11302805390238733,0.1329091624999728,1.2230397523338703,546.506704345926,464.02730859193235,541.7350115947391,jog
21.035058430717864,-0.4591038351363692,-0.8792656547074178,8.04392380573509,-1.8882967026436073,-0.6356373420599667,0.11526548907492473,450.6439978235807,491.18266545739976,528.7244358424729,jog
21.085141903171955,-1.8774205393071939,-0.8261064145315782,8.124567428978235,0.01911591269408712,-0.12125917775827526,0.4095179845640719,503.79519313326057,432.0644929332643,485.0057243815276,jog
21.135225375626042,-1.6191892154574812,-0.6808772368578848,9.07290334763278,-0.41896283702148396,-0.6733530922060109,-0.26346593524015793,498.0158478480163,492.10960819555487,490.23337504269546,jog
21.185308848080133,-0.7445668797122365,0.015276082525531448,10.73502357531101,-0.07292226851455895,0.9766910660300777,-0.19766457437387142,584.1984279811278,486.70919842261344,444.47537845798666,jog
21.235392320534224,0.843053878828516,0.8247506133591394,11.559934738451037,0.17236709143480078,0.6160864022739595,-0.6310661536191993,513.737182942461,449.71182293456275,485.53964764914843,jog
21.285475792988315,1.734489576041756,1.410006046833816,12.121906787140741,0.4287843950041798,0.22291303321877676,0.6720194604617798,529.9375723773907,520.079629300008,507.25412385187667,jog
21.335559265442406,1.2022500067654283,0.3906894764975584,10.889879618873836,0.1534028419580755,0.4201852463827633,-0.8200204636217181,503.9527666921544,509.7901659589912,477.4599178006992,jog
21.385642737896493,0.5142080157176067,0.07134102157362912,8.838780563530493,-0.518595553634767,0.2369523577495664,1.450513444175088,503.4269768361999,471.7518242049433,512.1276967855247,jog
21.435726210350584,-0.7378022161517013,-0.9684816465668638,7.817339898236558,0.000296315213842188,-0.8796483797754266,1.7955169933186905,468.9807531490377,540.10660286868,517.916924381025,jog
21.485809682804675,-1.4808944190240858,-0.9199913702485079,7.564742946378876,-0.48698983828589426,0.48195344258186723,-1.0195406260395992,425.7226012809421,491.4517370446786,471.0798234144837,jog
21.535893155258766,-2.0058891505674517,-0.7780914124567087,9.418989412500427,1.0438729972567682,-1.0610223346859533,0.0730002930362588,489.34765760351155,532.2417185997244,476.5821764920847,jog
21.585976627712856,-0.27468361379477774,-0.34234217151629853,10.616020689383399,0.5119898923513221,-0.206929008744577,0.229841744616751,537.7376263215541,536.7622572712141,519.4555264584528,jog
21.636060100166944,0.8280286602130057,1.397125875083408,11.796701688847024,0.23329725896276804,-1.556963314601806,0.09283193671283024,526.7579170200003,461.3543571320472,501.85780685870816,jog
21.686143572621035,1.569469031755233,1.4690868503122376,12.182322784496517,1.3774417716411744,0.009937593054560809,0.6034043303266751,512.1857804395864,546.5220792881291,464.64551331604576,jog
21.736227045075125,1.2240600914774202,0.44793231838725517,10.891762729384643,-0.05909907780956597,-0.34590027605312557,0.35993935760459406,614.7337013923868,450.9921401608367,579.198120290319,jog
21.786310517529216,0.8965661992393466,-0.5147547448178775,8.560951596949785,0.16334393396231714,-0.5842928067702047,-0.01703207505259082,495.92399112146023,463.4324769581823,468.95437043234216,jog
21.836393989983307,-0.9562341306552666,-0.44903059721434385,8.18608814805649,0.8613541641030922,-1.599025521146494,0.22122472544170366,534.4631616363391,445.82856946765907,523.0765887216079,jog
21.886477462437398,-1.7747857844077264,-1.176299443115471,7.856475603883126,-0.797324177369997,-0.13960436555355027,0.21930734644804542,441.09565731489363,533.7016024125008,538.1978671679294,jog
21.936560934891485,-1.6718048649542854,-0.7287247604425298,8.886652505762635,-0.5135720038228775,-0.44113883385977176,0.5883178565706041,481.2447087768527,517.4597330071605,499.04363259928834,jog
21.986644407345576,-0.4111029569528379,0.3008476371624804,10.106698984620431,0.46766792998457835,0.14529226629084027,-0.4299492848078989,433.83293823249244,547.5397691257626,460.77499006900524,jog
22.036727879799667,1.1032273866699964,0.8207468296756875,11.918845161700377,0.741890180039203,0.47508015946309934,-0.7128158130125086,515.3680875974891,491.2648513967284,537.9658992780638,jog
22.086811352253758,2.1302436699349236,1.0446325079557217,11.867552141682022,0.9615182338006981,0.8463291577680969,0.0280281335290389,530.4040238774573,567.2763609262704,500.95882974378355,jog
22.13689482470785,1.000684910066259,0.8937375579640339,10.321941861743259,-0.08847723148618004,-0.6368414937769608,0.5417647521997146,571.1472887011087,548.9781990444986,541.1992213250302,jog
22.186978297161936,0.019302910443863397,-0.2170754432274054,9.1679525065304,-0.14962505607633494,0.545303618247579,-0.7224181106518047,498.889943343783,561.8939105140926,547.8209588224931,jog
22.237061769616027,-1.171738427160589,-1.3253825596626823,7.668276660572187,1.1354099536141915,-0.17471877314869436,-0.2969682825657996,493.18716204214786,550.6564666556184,497.3180107133508,jog
22.287145242070117,-1.8671476603427142,-1.0431917469240914,7.723976368823321,-0.4097779333997054,-1.2000273470246512,-0.42206988939195467,521.270833533151,530.6782306094747,438.8676702084289,jog
22.33722871452421,-1.6814257979319156,-0.7861501229368135,8.971005290711645,0.7365716690954339,0.29185185567814176,1.3361147472355608,432.6828174149489,510.98803378891853,441.2613943840618,jog
22.3873121869783,-0.29598842828354366,-0.26335249418273865,10.500453182950732,0.4304400371505872,-0.9784005226858187,-0.019997543522550242,450.2165852009785,505.8817482386761,481.411349982171,jog
22.437395659432386,0.9070068601793335,0.5692084705542182,11.611319225300964,0.41546785693426264,-0.5280085273721475,-1.1253485754776316,494.93385306009935,488.5957963069459,466.67891191883933,jog
22.487479131886477,2.193081617027486,1.6363853814274072,11.87204989380698,0.45555300199634974,-0.44081982754089916,-0.5117940875209678,438.8690798798726,553.9636448832085,462.5510068835601,jog
22.537562604340568,1.75942273533302,0.6379440537282708,10.87574905607782,-0.942000475400841,-0.8201390211080075,0.2287455809346995,506.33483438883815,493.292047321744,511.0195915263919,jog
22.58764607679466,0.7133697074894224,-0.39361571825048086,9.114547083169448,-0.7226091438957735,0.5484918461124113,0.9870081044499037,507.09280691039214,485.2957021403355,504.20955203743085,jog
22.63772954924875,-0.863596224625036,-1.0064683992313337,8.099457515708915,0.7733919919924024,0.23421865851382132,-0.6490842060503648,559.6323696495346,464.44101462164696,488.02048650267164,jog
22.687813021702837,-1.5556350055382813,-1.3113867814110833,7.575980130446804,-0.6514778263516035,0.6960757077859263,-0.5627134912538457,558.5431795740662,450.09585520815614,587.6116083650923,jog
22.737896494156928,-1.3049737707709566,-1.0641179694464922,9.020417013282934,1.746955259869677,-0.6425290836980476,-0.2678369857110896,543.5272247399026,475.5544346320555,493.57552619031924,jog
22.78797996661102,-0.4765060536970267,0.19469060721786974,10.699103801485778,0.5127539599591541,0.15391332523081747,-0.24209774086750052,491.5461889337387,540.3107332032472,549.6314831140478,jog
22.83806343906511,1.0101985134586926,1.0403405912696417,11.84493930652143,0.7351646175814377,0.36945503090587406,0.9625309134031195,535.8772530747872,530.0648085494518,483.5900733947457,jog
22.8881469115192,1.8290645560996583,1.6573447885700472,12.257458445432999,0.6987740250968516,0.7395108695443545,-0.7819214339187865,517.5453076043298,517.6589318163526,445.5319549801524,jog
22.938230383973288,1.4702888238853722,0.5541928223900422,10.098871973770256,-0.00568093621986706,1.3212109286285807,-0.5365564094451718,458.2347681252048,524.7751478926345,519.3907418110439,jog
22.98831385642738,-0.04374831866541734,-0.4193604185972548,8.812042279333173,-1.0987762930050577,-0.5546526619055404,0.3043336148859417,515.834496299889,454.6049532519798,473.69631076751654,jog
23.03839732888147,-1.3858314970858674,-0.6929878777494611,7.506785252485075,-1.790212222374862,-0.4251526461320132,-0.40885588616052376,506.05435562271435,455.68848038207807,531.2489732492272,jog
23.08848080133556,-1.7912843244726235,-1.3333749689624699,7.102629045409088,-0.0778616510988866,-0.04157204557321107,0.8410079033938799,492.07871384286307,521.2938777333121,510.85226558482873,jog
23.13856427378965,-1.4207395788839472,-0.7600087098547421,9.011280920007573,-1.2973442646155204,0.4810717101538415,-0.32475992730221465,483.91294750083625,542.6852703258585,502.05361302319545,jog
23.18864774624374,-0.12524639520277508,0.31275189437810846,10.732541941318214,0.49724328368087634,-0.1748909800642024,0.18337245603725122,408.692374563542,463.9592456798199,562.5871272533334,jog
23.23873121869783,1.5237548235110494,0.8785115482665105,12.151278396202077,-0.5758396892100813,0.07615108931658646,0.387031150006952,492.0086448798049,545.8172415060765,492.7595835607019,jog
23.28881469115192,2.060277546661518,1.1948005229643945,11.41344367511236,0.1885916473078822,1.2490048778508474,0.60425003208282,482.3497775880984,443.1755693300017,539.1350773512902,jog
23.33889816360601,1.57132688162718,0.6379770687792954,10.379165792950129,-0.4629375637983081,-0.006761390086414522,0.12246066332446064,482.9470831596771,478.1493237015338,444.2701715271229,jog
23.3889816360601,0.26067708819721475,0.3437835143507077,9.090615409826198,0.4427216038322595,-0.3768036486146645,-0.8383766870445107,616.3716572439394,488.8416922125822,515.588835723253,jog
23.439065108514193,-0.6619171747299069,-1.0498402119946224,7.337544106931736,-0.19380671964264018,0.2603365826426812,-1.97341684570644,416.9461869184979,429.6922847236939,541.3172922361695,jog
23.48914858096828,-1.959766084186537,-1.022696942320059,8.183791997273007,-0.33078449769955787,-0.1932508169686548,0.13473236587027765,563.8106735785926,518.5021285373102,469.61145710886046,jog
23.53923205342237,-1.6953299630973193,-1.0147003053828065,9.352992095350444,0.8915450356227992,-0.6690667670981184,-0.6664805683544445,509.54986911531375,565.0181492079307,511.18227520703556,jog
23.58931552587646,-0.44462470513195956,0.33456663065624426,10.840057964215207,-0.15837748208538308,0.7144100442329713,0.37868043358110676,543.7031233679146,427.5178654584029,439.1756056052679,jog
23.639398998330552,1.042299527646622,0.6379229152720147,12.065439372720126,0.4325912603375719,0.269373044548002,0.713294515860509,456.7134135547449,533.2174599088431,467.07604966763915,jog
23.689482470784643,2.1595393442026136,0.7244317137916654,12.24210362990775,0.7241067786757791,0.0038424888086419505,-0.47218903106997334,461.4535411476198,477.87607943831557,512.5511029418441,jog
23.73956594323873,1.080205513306678,0.7279112965619825,10.650408887843716,1.0620866610357746,-1.1029797631231997,-0.1610654951179662,490.59552748341446,515.076517707227,564.5439661027227,jog
23.78964941569282,0.21161634154088116,-0.5322304877869495,9.073242188976101,0.2789844130193893,-0.44701636279767704,-0.27809504559113923,549.1737509847552,524.183787175854,496.2780696423798,jog
23.839732888146912,-0.7502432243325654,-0.6896690540556574,7.7196010136041755,-0.8639821264642621,-0.3349271940649876,-0.43882029520104754,501.7796260959733,522.4806701357971,480.7291656057167,jog
23.889816360601003,-1.9515005756515953,-1.5881592138284262,7.64789974441824,-1.1290678872711064,1.1826969067884894,-0.545714381618172,565.4192075281959,521.9830292674668,524.7420669883392,jog
23.939899833055094,-1.2352555638520748,-0.5050574158825512,8.936313318095102,-0.8059360181571598,0.6909927879790043,-0.2697048905616524,541.0300118729106,424.0043261304759,488.74927865359894,jog
23.98998330550918,-0.22024909180700397,0.5598558282446802,10.505476317738863,-0.5894831655886621,-0.4467509622453675,0.11454761814569939,544.2514034780668,510.8725054977797,529.4286397189911,jog
24.040066777963272,0.9725515521126892,0.7144979118992727,11.782653761783038,0.16265365650047192,0.8797388857207578,0.12786232277141638,571.1951014891882,471.73962277787064,464.1200774776879,jog
24.090150250417363,1.7464947448873596,1.6652293601343011,11.801487287549659,0.77905664265304,0.5294012977491813,-0.2507893505169248,555.0778737461586,389.0263663120556,488.6664803496755,jog
24.140233722871454,1.0030717301982914,0.5377084064954583,10.160108131262449,0.23570500189342258,0.5259612085294544,0.015782948568895408,543.1545257636324,501.68568669799356,451.0624228292188,jog
24.190317195325544,0.3639717121381332,-0.38384240099414,8.593170989258722,-0.2428121207348868,-0.035597204017758066,-0.5043085766024091,512.5998054991841,518.1753347994947,449.54561706977296,jog
24.24040066777963,-1.298516634555691,-0.5740377911366366,7.607449623266306,0.9452482583248245,-0.6200257727156481,0.3652002236946559,576.1866981122473,519.5309008865702,484.44695720388233,jog
24.290484140233723,-1.9328635622595993,-0.9914442961248027,7.564762600190575,-0.5865192840943149,-1.7606198923104501,-0.5766380514842712,435.8478535730589,497.7841058245249,485.87152528840863,jog
24.340567612687813,-1.4207290968735815,-0.5143893346752924,9.241197520228845,0.5901740347999467,0.35712876536831234,-1.1936013647622374,470.42940899626836,514.8232879934842,494.6108553209833,jog
24.390651085141904,0.40050754276066197,-0.0846663847532185,10.531221871823556,0.02218757894355045,-0.37536364827583146,0.18280315710331077,480.70485939267905,546.4308948544251,501.21115943981346,jog
24.440734557595995,1.3174728053498364,1.23463002927162,11.766145466233029,-1.0435488981543435,-0.32077428290692955,-0.6435453853471612,477.4371938309678,459.74299937599375,547.8270729445808,jog
24.490818030050082,1.8974429568484605,1.6031897698415862,11.893393901904783,1.0820995337083037,-1.250828184422059,-1.2863919884635036,451.727949197712,516.9015652786741,491.82473581665914,jog
24.540901502504173,1.4899010297181932,0.635304800134247,10.598585857211217,-0.6251154979317958,0.4602756104121166,0.9980595846883662,522.3829041041453,499.13389089306503,506.30525377446344,jog
24.590984974958264,0.1506757129580552,0.0765790365138729,9.260478446105118,-1.4725007723215726,0.2843631196829647,-0.257816731700807,438.224263575898,564.3599746800141,432.6890380441802,jog
24.641068447412355,-1.0153074277121559,-0.9643950913612007,7.5880311587763405,0.631970578251839,-0.6060414407401387,1.7867285805493887,487.8096290944309,504.5948890022681,560.9819070838929,jog
24.691151919866446,-1.799754606339289,-1.397871556226591,7.92351143180107,-1.3199792120990477,0.0893636188378434,-0.28753755151643967,443.7671781997293,472.39982959058807,452.7805244969269,jog
24.741235392320533,-1.7917794156446218,-0.27321576109056805,9.063241590000633,-0.3572589848489081,-0.373297608053504,0.1975582101568268,446.16638241595274,532.3788517365612,526.5985757122652,jog
24.791318864774624,-0.3807222620038423,0.11901626715187762,11.072283482675644,0.35135557930992184,-0.14115824104210306,1.2637525458790768,466.33948087850223,492.3024514114671,441.7674390616,jog
24.841402337228715,0.9398909284839808,1.1569533569367243,12.138440269322064,-0.36545181910309693,1.049655990189535,-0.27578599015803645,543.9965979472328,498.68684045619995,449.8352639210852,jog
24.891485809682806,1.4767001948542398,1.0311883345370958,11.348111170375228,-0.3483944495945801,0.8807570776814138,0.5690753730971446,480.9474864595346,537.7917074690833,478.18566979717895,jog
24.941569282136896,1.074075754060203,0.9094978395669364,10.138068481244773,-0.31077862484501734,-0.40890793098348427,0.12495569930589069,539.4336033550252,511.94332910744527,552.7583219172631,jog
24.991652754590987,-0.10253951901442665,-0.04554764196624525,8.668087002227905,-0.820319972678697,-0.1276425775368748,-0.3916571118056357,461.8768753015639,534.9607071148718,544.491095689689,jog
25.041736227045075,-1.4854800756104156,-1.3055012461249544,7.424851117874343,-1.1613594189154413,-0.11922489687748987,0.33199988050231355,494.8332032662915,459.80301196702754,490.8064039851949,jog
25.091819699499165,-1.4063037771221474,-1.0642938602607943,8.393414896329597,-0.24490940747558582,0.13792497397341785,0.4098148185328092,501.2864694935821,459.9890533098097,468.1815357791503,jog
25.141903171953256,-1.4002084262233756,-0.21603229346628655,9.097825425308091,0.35883149931371955,0.14230200727215053,-0.6349516767911146,493.3718416350599,432.8829568256587,544.2413856652398,jog
25.191986644407347,-0.21389366483563516,0.537528322631387,10.558867058997176,0.18642075543881742,-0.4691904776089086,-0.4519750861196635,493.02270779674797,524.8223816552508,494.2042086411455,jog
25.242070116861438,1.4489757231360976,0.7050417504085529,11.94725244859635,-0.575710372984486,-0.45451729455492507,-0.5558961411555553,491.82274490187666,515.9537126065152,570.3151515064457,jog
25.292153589315525,1.8720490056684138,0.8794949462958526,11.090244705194992,-0.7368543686287994,1.309279268107662,-1.1791515715009502,415.63088756696123,572.9372424208967,543.9531387691977,jog
25.342237061769616,1.4142055736309025,0.7666012300566638,10.942791108501407,1.237959279714276,-0.5291923764860411,0.2911295464715078,511.8103367367187,514.2740323329208,462.7413026770639,jog
25.392320534223707,0.33786226380355866,-0.2752601501505237,8.964414852595002,-0.25450812889840263,-0.7639785874651932,-0.34246105178265507,534.6264875871776,501.4270806728427,452.76568704312933,jog
25.442404006677798,-1.2904617243034926,-1.0355116406422982,7.847980079993167,1.3303477175965681,0.962855476757639,-0.1780681625787501,510.8932564706807,478.28920600755356,499.73432221773305,jog
25.49248747913189,-2.034138178653815,-0.9145625584663513,7.570560092823196,-0.534326079278264,0.7633613873475389,0.635767710050278,519.0748490008067,474.10662852945484,514.9230512780821,jog
25.542570951585976,-1.5255662390677696,-0.8457798729411576,9.230996024764853,0.07541400829388091,-0.7799281863658365,0.9591197983573698,488.8608126028449,499.24919102627416,470.1517914469605,jog
25.592654424040067,-0.005234112505348276,0.351028128969714,10.527462407580956,-1.0376415462096202,-0.4170505700584312,-0.22520672239504136,458.41182778815516,520.403657730354,524.2288619515873,jog
25.642737896494157,1.1628364293922602,0.723493343041151,11.571460016681266,-0.18447175005869526,-0.5643623508957972,0.09982126279318526,457.00944285823425,515.7912418948491,497.87445222165815,jog
25.69282136894825,1.9985244291904585,0.8976204967930768,11.895592652450848,0.14654765587906834,0.26059330950327814,0.43558873011861526,589.9724975353595,510.6257410214575,469.61440441465976,jog
25.74290484140234,1.555591494294833,0.4934676135758865,10.530036090913125,-0.962896669897074,1.2769569055543637,-0.579837011040458,545.3697040098314,486.22568428791163,546.9287037524829,jog
25.792988313856426,0.14637225904932644,-0.23321983446672184,8.99948446826625,0.590059957073653,-0.10594108665116667,-0.48157611406632017,567.4928862052433,494.9647382817283,475.5598056708395,jog
25.843071786310517,-1.2209694892051264,-1.3675281032656799,7.874174883452965,-1.3548045904665438,-0.35887768603061976,0.38870060351169367,557.2600720153678,528.9147259182557,514.4048316055106,jog
25.893155258764608,-2.09924845142933,-1.3362694910799442,7.597010742312473,-0.36698159705160766,-0.13654349659731752,-0.5917041242641279,582.2474628420989,537.2020638737719,482.44081922642044,jog
25.9432387312187,-1.6539223232946934,-0.7193706339897563,8.861373604657372,0.05055558254394932,0.9929257923341592,-0.6398275633956741,444.9861237879659,453.71073402294996,454.958266448374,jog
25.99332220367279,-0.04662977441723801,0.2440031647080115,10.857382748696093,0.5637577969218617,0.9904606071093729,0.6086204120205869,461.82546860300926,515.8027503977698,513.7916050223449,jog
26.043405676126877,0.9970560692995688,1.3841262091011501,11.848951035802818,-0.5301474665928719,0.32867735840425827,0.3524286298475015,506.5124702793469,511.5401758645364,500.44455866629926,jog
26.093489148580968,1.8798593206457055,0.9978668805588347,11.20323210549871,-0.31731786801232903,1.1329342273329683,0.3888227263143493,514.5238759200993,527.1833179743671,488.27508654000593,jog
26.14357262103506,1.6774975920269222,0.5775023276850346,10.23928883492548,-0.520294382444182,-0.16902694561648426,-0.017691830302137432,501.96369512783,485.4840964785643,504.73221583090645,jog
26.19365609348915,-0.1608431101927778,0.3172297621874852,8.803256990748679,0.16311328449177798,0.38927771429348296,0.9966264679841503,481.73030275231093,502.7118923267809,582.7218591004029,jog
26.24373956594324,-1.219405466813818,-1.3617186432141808,7.5311806006737525,-0.10978587719165281,0.8608085870646182,-0.7012118507496586,572.2323196863982,493.35870537611316,477.53410676679835,jog
26.293823038397328,-1.7920801210548427,-0.8113615706364412,8.140219574287899,0.5058181892168546,-0.3919260121865055,0.6180846517372975,503.80890284491375,470.35096407645074,474.38868369409596,jog
26.34390651085142,-1.2001502184001318,-0.6743857077560975,9.39649219409922,-0.261770863513793,-0.9107657669714799,-1.057732259770723,558.0060864089845,498.06438241673214,511.612130234916,jog
26.39398998330551,-0.2737192038601778,-0.0757385852158795,10.475658127685662,0.1906623892323752,-0.6967984311243431,-0.9111985568654096,499.6378406266099,460.05292412929197,537.2698727407918,jog
26.4440734557596,1.115586933700058,1.2219334738250818,12.251599046968153,-0.5950700328103928,-0.6960596423693691,0.99201573974548,476.4335908760541,608.3935405582322,513.8934055267262,jog
26.49415692821369,1.57248327725519,1.0809726063725011,11.602389138770032,0.6265335383482563,-0.09632878044576279,-0.0676814038346054,493.9875802411798,529.7181586121379,509.7701594219587,jog
26.544240400667782,1.3579698357444276,0.21939867302785016,9.837890060797179,-0.5249108155067742,0.7092751060241742,-0.8227806732351295,486.6774800536232,501.290006848478,538.9781265239948,jog
26.59432387312187,0.025621970302222546,-0.30875763629095765,8.463244567090564,-0.16532290766776833,0.5826550646188494,-0.24619058899568733,465.9537522616251,412.7952642097139,458.95762402913846,jog
26.64440734557596,-1.1949893152602695,-1.147257087995403,7.7611285217144665,0.8465450432748031,-0.3767499430675165,-1.4788567772700365,366.45976199672873,453.74251949474547,554.6026794607569,jog
26.69449081803005,-1.8403425409361456,-1.0822212999325826,7.522628339382862,-1.5688628005812164,1.0430456200866884,0.7545095498993131,469.4403152991134,481.6964118173556,459.933842103496,jog
26.74457429048414,-1.298225909803103,-0.8173669173445708,9.33099483258751,1.0668131296279515,0.21334983590432857,-0.8191208591111606,530.0091615468265,507.1387398881527,481.1937866591695,jog
26.794657762938233,-0.5350738638085649,0.09228603083748618,11.549691989198015,-0.2189319547983421,-0.36505725440786785,-0.5727333732704577,491.4343782275011,469.1687976658674,459.191407941829,jog
26.84474123539232,1.7183011471207807,1.4521142493009618,12.44744738986404,-0.9768729799698341,0.4663406978959693,0.551092789813094,486.420930289821,540.4691297312451,485.32517446275983,jog
26.89482470784641,1.934311068362791,0.6730206240355332,12.031397558658286,-0.04973829809949518,-1.014249942764771,-0.5467380487901399,499.50350746615226,507.77638609309724,455.45813666742913,jog
26.9449081803005,1.1736862552354697,0.6654229632781377,10.307849789014686,1.105291293219171,0.0009244816072677159,0.6990907701513215,486.40627007572857,488.7381074269191,560.6274978453706,jog
26.994991652754592,0.11096164169037849,0.008313383688559883,8.598615250762421,-0.05332654037906293,-0.15742007895941132,0.7251216405638734,521.2144619337142,467.36625181597515,539.9797574404786,jog
27.045075125208683,-0.8913337756845281,-1.49096456715725,7.974273665511595,-0.1674886247408406,-0.7617323250332687,-0.8856909648457124,519.3212222189158,537.9679070687226,468.3493964832268,jog
27.09515859766277,-2.1328803637605906,-1.1512996170176044,7.760364523698402,0.85738927727568,-1.1419124419021671,0.04284116752978291,489.2556760671507,485.0379555544646,565.3269422667775,jog
27.14524207011686,-1.2832173981945982,-1.0955381046487545,9.460946586867596,0.6123569392649408,-0.7194508720845476,-0.316761506238713,547.7348499577574,502.03235565207046,528.5858822512314,jog
27.195325542570952,0.2857005531881971,0.23365015688716978,11.179765806155563,0.9192712387832599,0.5608401751274525,-0.3179479026378095,397.40982281003573,525.1251396716447,534.1069335989747,jog
27.245409015025043,1.3221528652528314,0.8044450369432998,11.822990364541694,1.6703872715106018,0.4727616637712987,0.5131392558538262,510.53735994190134,521.4843562477453,489.09143023520085,jog
27.295492487479134,2.042068739446129,1.3907218813574356,11.676638681974667,-0.2353803861129446,-0.5693241751495484,0.5211468120222448,507.4646488288989,473.3816212671206,503.39892821245655,jog
27.34557595993322,1.8660621912398851,0.8436791510150907,9.908619073221619,0.2581918559446824,0.32433169274102364,-0.043072881459603925,579.023624926716,489.63404538364097,455.1412521897784,jog
27.395659432387312,0.16032718174110472,-0.32183871165052774,8.623105305602781,-0.2260587237667772,0.3044201546948998,0.9395246844795218,483.8083463780508,546.9965803616851,474.22546942204036,jog
27.445742904841403,-1.2164410119401352,-1.1715010907210146,7.944502993952466,-1.1523490919339283,0.2897248152581782,-0.6845497689380723,510.7829247817481,508.2526216747632,553.3424594367808,jog
27.495826377295494,-1.5276308672883734,-1.334393111490742,7.988389171097951,0.5012832966256103,1.0692542265681004,0.9189970058052578,429.8701332003584,516.3989559367692,487.5515366207875,jog
27.545909849749584,-1.3444985939267866,-0.545067363617332,9.069234383906611,-0.42875087833819403,0.39387150771289187,-0.32148071228635827,511.41990740803834,490.36938241236834,555.1731063909399,jog
27.59599332220367,-0.11031940244558537,0.4292652756066941,10.742542246979895,-1.25920354005921,0.05890829203829302,-0.7039732976524126,540.7965195302894,520.7379549853584,554.9931744470457,jog
27.646076794657763,1.4949896733502128,0.9669524231504936,11.799441371336775,0.9217956408019914,0.521863027323564,-0.7885235297601657,502.22198696288734,517.8341555637229,525.7961886470011,jog
27.696160267111853,1.8393695471803408,1.272643380383611,12.007879425542875,-0.13635556378526245,-1.198644894143989,-0.8042951420516999,435.0891796970941,478.133857388319,536.9029097447715,jog
27.746243739565944,1.221056166397655,0.340314327031583,10.15969915559262,-0.9954107855797139,-0.41625189182416805,0.38276961763198203,457.6241549346984,490.2874222356718,463.21470414337466,jog
27.796327212020035,0.2890794279647421,-0.39255980564494974,8.814144300000867,-0.563139379943662,-0.01779372691165913,-0.5309704065923275,470.3942759112692,517.2594100279665,453.58571188312106,jog
27.846410684474122,-0.7912745304930524,-1.1845922571933207,7.875863296610518,0.1085155365124049,0.7948360750135403,-0.8025056553166761,519.8006419918307,532.167485233597,457.15713304358684,jog
27.896494156928213,-1.4471284102174202,-1.0353039151568526,8.008707767102422,0.553847011192806,-0.03944838577569454,0.18754599996300622,534.7790431227642,553.0033047988068,437.14578043944294,jog
27.946577629382304,-0.9559119847022863,-0.32118694219196425,9.273425463712657,0.9977793445182961,-0.5773196735689485,-0.17867900415172466,482.0531757161957,543.6918957621367,449.36832906729046,jog
27.996661101836395,0.40180202869544374,-0.3379867052304223,10.695898940190316,-1.0295754407348436,-0.46307294983757213,1.2449674947617444,528.5684846034418,511.75484288146816,480.4189535419855,jog
28.046744574290486,1.33931598357637,1.0244088769967707,11.74876696875959,0.24707323541781567,0.6822654419939167,-1.8525084337302777,438.13671688996027,472.82401882924086,534.3341928163372,jog
28.096828046744577,2.1641210442969845,0.7066700732503508,11.950339770290224,0.3111212479052305,-0.5900044559213502,-0.8036052413965327,542.7122216158608,470.477856156875,515.032698497193,jog
28.146911519198664,1.5230821190113843,0.4373219146593653,10.505542548870805,0.4012926199331321,-0.1344664690280684,-0.24092856599890694,503.6019678335086,501.8980071901727,535.2986882059171,jog
28.196994991652755,0.16012878413572929,-0.5237444997324958,8.134768508391394,0.4046183417207921,-0.022378939248788438,0.5821702073719536,481.80531741608075,519.846588102119,498.98678965987375,jog
28.247078464106846,-1.1210294972223984,-0.9983113848634959,7.442100112950447,-0.3713869100919087,0.21623059045887133,-0.19517992803247325,519.7914335228404,500.6661288420224,553.1343013281454,jog
28.297161936560936,-1.821368840470341,-0.9828123834870319,7.824178174667837,0.2189512240296302,0.06353997140144259,-0.04830887687227724,436.06265946406154,540.6360458158634,497.620338486604,jog
28.347245409015027,-1.4373197317264632,-0.7592816273257037,9.477361624842683,-0.932034269005906,-0.23467388635091752,0.14900377196582779,547.7006217913777,445.8278050688928,613.0988311749147,jog
28.397328881469114,0.06373639076672886,0.04505719679967235,10.677891067645431,-0.7191874156245217,-0.8781483100945809,-0.1737904606123104,557.7806225273009,443.25150362560794,557.0164366010165,jog
28.447412353923205,1.1838107154481872,1.2258700714418522,11.89949457692752,-0.2602987981366932,-0.7786067346545426,-1.1360574242708112,501.9448746539136,481.0118809308552,548.9864980814991,jog
28.497495826377296,1.8601990703415756,0.9955961148999823,11.405022248702785,0.3463663733792449,-0.1805491108263,0.05324508981352168,479.4157390130804,472.0138635180719,511.58369322655716,jog
28.547579298831387,1.7251776592193768,0.827109910979676,10.321033149085281,0.5488191188900322,-0.3787650044188357,-0.07894752506763422,516.8239850002108,523.8640929377808,505.9135989768758,jog
28.597662771285478,-0.12404943943941264,-0.2153991149074031,8.8194226797988,-1.0477312045094156,-0.5026644836958196,-0.12423583358726004,434.007396979677,462.21564237117093,478.45318936332507,jog
28.647746243739565,-1.7403403968737365,-1.7139593247827443,7.561286447919358,-0.71346663925767,0.07073511124210313,0.9341419998979558,477.79861457331265,549.6860844967043,498.79045269146917,jog
28.697829716193656,-1.7959475150354691,-0.8389195877893261,7.996920250301932,0.616879427810256,-0.14754662535644575,0.8746350129037294,520.8204522925025,444.85769515854344,459.1370043013377,jog
28.747913188647747,-1.370789575352525,-0.38841120516539707,9.402459245795297,0.0010320490052312357,0.3589213118043538,-0.7485980196484261,532.0358493606535,489.3953628103697,468.57663161754806,jog
28.797996661101838,0.17740310926232544,0.5588550030092877,10.91432390410268,-1.5073364772855125,0.7227284564693423,0.8896922707589369,457.10309614142625,481.4364842944697,505.3661781425941,jog
28.84808013355593,1.4988994855994218,0.9798556125415057,11.956222628606346,-0.22273061053355514,0.5657431030843706,1.2945544622919138,479.81400997741775,473.216641800711,500.13216474094617,jog
28.898163606010016,1.5243295672241663,1.1771844932901672,11.9721165731188,0.7386191458102266,-0.26587352412709697,0.03081239063026659,493.18203572399483,460.21951196103583,568.8884374270455,jog
28.948247078464107,1.3165863218187632,0.6714937584216507,9.907028599445082,-0.4239282352716396,1.11798650255036,0.553627920231046,532.4239701484369,437.19269817530255,479.9772339979654,jog
28.998330550918197,-0.09074100968818019,-0.830025755591836,8.704400471007775,-0.49326046245391975,8.947499737639585e-05,0.8897318193416257,525.4529274722717,500.31875968936606,451.0412003560538,jog
29.04841402337229,-1.4287751485504536,-1.6583828281159738,7.47854769361659,0.3540054348661863,0.06620556923273166,0.7170612908383152,479.7508764505022,459.3829776980463,486.2067713278263,jog
29.09849749582638,-1.5238024123096565,-1.5301191841460773,8.073967865343795,-0.380955789223858,-0.7667570383353711,-0.35159575044782704,557.3106800809892,525.2841879781395,529.794970718632,jog
29.148580968280466,-1.8815665348474482,-0.7020453966111873,9.58760456696865,-0.494460542330015,-0.09916327949558552,0.8573680917336325,485.1677957577768,538.3244263979076,521.7607044654503,jog
29.198664440734557,0.09508940128046041,0.2446860583365273,11.073639845770277,0.5574424279470559,0.5324505633123114,0.3953301930740179,510.2280764417779,560.7119663536818,561.0131957821982,jog
29.248747913188648,1.1864801472105273,0.7228332402493671,12.7739688104002,1.0518305813899134,0.07191898978090058,0.5878741154426304,540.8444310784076,566.5432322322795,501.21568647290155,jog
29.29883138564274,1.6366393658199578,1.0230749119643294,11.704271524378301,-0.6515699744000252,0.4313063372323384,-1.0203943962756146,537.888274843256,520.6400549898609,415.68349100430595,jog
29.34891485809683,1.197524916607494,0.6562111956749579,10.291354358848173,0.6938450800383696,0.15910547271995495,-0.27396093247924963,509.0763434400134,431.9638450770105,541.0775166202536,jog
29.398998330550917,0.007700958072238487,-0.3025872563892884,8.7616054252403,0.35543752333168205,-0.11772680705100436,0.23403622979472147,468.43835763016483,459.2393538607697,504.4074804812778,jog
29.449081803005008,-0.9836696488081844,-0.9312301929301847,7.613198604798209,-0.6933450631973276,0.13675006763292638,0.35252808046074413,423.0225472951804,507.9600074597185,477.5294231703585,jog
29.4991652754591,-1.7511522367698311,-1.2665467316020191,8.247031933765022,0.5492784790764597,0.6574472910242696,-0.26508754421247815,489.3927699083496,505.14789176011504,520.8171198787861,jog
29.54924874791319,-1.403582581754953,-0.6990316152675813,9.629354784343295,-0.7103047831987804,-0.07915772660651643,0.31270837072706337,478.1797771142633,481.9690420774045,539.8284003117844,jog
29.59933222036728,0.19863267139942886,0.20356730973862652,10.720625433636235,-0.19584162821883377,0.1239157067220799,0.13841880972542914,500.8834979216018,473.29919250303993,466.30929676561385,jog
29.64941569282137,1.2499043235537812,0.7049871602344759,12.218983379955336,-0.13488490895595778,-0.6588020487657085,1.0476964242405669,538.6146405686643,529.4054800590454,442.31803775427113,jog
29.69949916527546,2.032703539667871,1.0655344827471338,11.637597320970706,0.36083186883417856,0.6303753339506896,-1.0092491870554152,507.9643091812787,520.0233639541889,439.574209004011,jog
29.74958263772955,0.9687292873962102,0.5100577269139736,9.955519029263327,0.47878024773953853,0.2867928105360152,-0.49365948302835916,511.2402957108653,483.68096405136964,504.20409165171714,jog
29.79966611018364,-0.17295153260621893,-0.0754202580332149,8.489140253556736,0.10211931967208941,-0.779136999197675,-0.8416032231309539,477.37259657183876,477.8418639317102,492.1078682735862,jog
29.84974958263773,-1.3850283276980402,-1.0239729628228906,7.993934668463829,-1.2220700091317742,-0.5290245092852345,0.7945922776327067,447.2111200414206,513.4864701008933,468.03807221477217,jog
29.899833055091822,-1.9786293371002184,-1.4391317474284349,8.078204953390694,1.0074239893612227,0.25057045378259507,-0.12710759452076548,454.91425537629476,566.9203705536646,500.36653000334564,jog
29.94991652754591,-1.362490630833462,-0.6993234280960636,9.169066147946394,0.9533362147140615,-0.5024877178798806,-0.2351472711014488,434.913902466592,548.9697984821597,532.5795487415095,jog
30.0,0.135465289497755,0.1636109501704171,11.119105939017198,0.4475476193502646,-0.044760780820118716,-0.200082372349128,506.82510008929137,501.79397923330987,526.8672090104806,jog
