timestamp,ax,ay,az,gx,gy,gz,mx,my,mz,label
0.0,0.4095670666891911,0.6379267193434368,10.59164188600131,-0.44326738236737273,-0.3603583131163416,0.39373423945365665,491.6747133822653,575.9715139586424,486.13378346747373,jog
0.05008347245409015,1.2971140259992993,1.4052205827594404,11.973515611910894,1.3995889475102614,-0.2988651085851238,0.12454209047139626,457.713540071934,531.2803307759157,526.378361387936,jog
0.1001669449081803,2.034118226252331,1.4661992811098716,11.690761884537867,-0.06447172656562566,0.02678683977153072,0.07202935670520617,489.78918382458875,481.6508921472705,473.81361920379726,jog
0.15025041736227046,0.8378071546866342,-0.004213998106535666,10.289014583996671,-0.3858363972575291,0.5974560372915328,0.14718246208103578,552.5413558910204,501.1249585542822,473.74900444641673,jog
0.2003338898163606,0.04594366542056667,-0.49786660470990324,8.592073727398086,0.596063982586737,0.45953059120579937,-0.2000162519226548,449.2845512287447,475.9476060085421,542.5489804222293,jog
0.25041736227045075,-0.9740112838286434,-1.5276349682502133,7.838156686412016,-1.000215737895693,-0.3538213864722195,-0.6176720511435498,470.73791965578124,446.2163892441138,517.4112638847391,jog
0.3005008347245409,-1.8027632806095026,-1.266032118855081,7.774029872292666,-0.40368530285988474,-0.3039444603023452,0.6154696751142964,569.2834104100174,454.0336886831239,478.5898043485402,jog
0.35058430717863104,-1.0126221968291533,-0.6245040438989238,9.35108853627081,0.03944369256422985,0.34676937423057436,-0.6076890156002149,497.12248092929764,471.4202119374495,502.79470069223413,jog
0.4006677796327212,0.46893976864381975,-0.06342872391141363,11.194556122980934,-0.0324508175007183,-0.999223493179111,0.8416228047405295,471.17936215108955,485.6401646496451,559.9235023819815,jog
0.4507512520868114,1.1878195553037212,1.1063988191989913,11.95472549751271,1.06432185363916,-0.2574805906066683,-0.9735644862945484,515.616743149042,559.283572018363,511.50796010899074,jog
0.5008347245409015,1.8221566509621807,0.9074496229961899,11.114457976682214,-1.142371884466387,0.27977802927258777,0.9387487914861057,471.4485061228251,526.7243236835563,500.34851780396355,jog
0.5509181969949917,1.308900707323843,0.2940198830457028,9.910358853932006,0.7852455270846567,0.34619677307498575,-0.06764380574642469,486.6879184495485,539.5199321268761,579.9976468780538,jog
0.6010016694490818,0.1058989881135063,-0.16157491636638072,8.564645018903441,0.43841131485126345,0.5090003346207309,0.16412585575754282,506.62667822636735,451.9060840499107,459.0650221019313,jog
0.651085141903172,-1.549172615260465,-1.4560245744146996,8.131584523167597,0.49958855204509484,0.5278258528651196,0.6529464077476265,501.923881408867,526.85829079498,511.8657943724135,jog
0.7011686143572621,-1.6744268516058078,-1.1760874644023203,7.986269640110701,-0.23701908451905823,1.3344875227681148,0.3203825081996577,518.8796885609571,525.474272367076,447.37071426536613,jog
0.7512520868113522,-0.8859150082592466,-0.4569651773120785,9.681405117515483,0.5440350569146136,-0.634185062359412,0.38290725130405,446.84704485050077,559.8311286388916,430.5632873176812,jog
0.8013355592654424,-0.0634346006194402,0.7752576831189857,11.045116391925662,0.3319133278961782,-0.2331642246823941,-0.23894977165937933,525.8609613499036,509.63929934962937,447.7521502144267,jog
0.8514190317195326,1.5403339991538658,0.7843094027526882,11.793231182319113,-0.11512711792247263,-0.014017783804093475,-0.1606636105198175,599.6948019372811,518.6109054794946,503.8871217688679,jog
0.9015025041736228,1.9956350246587387,0.7623867391192323,11.982052921688132,-0.5381341424852764,-0.13437579408997807,-0.9175990599564374,507.4786260176264,491.3086816305371,492.4844956478134,jog
0.9515859766277128,1.2062620089791771,0.2823089229635013,9.855085152733931,0.241308627154372,0.27877737175050865,0.2909726281635672,530.5067294667019,528.6369792121435,533.3185176273731,jog
1.001669449081803,0.07229775281278518,-0.15930093726598898,8.612709380785196,-0.8773913877042692,0.9905484957139665,-0.8954873617042882,468.86152723022735,528.1472380545882,549.0976959594017,jog
1.0517529215358932,-2.06474893007997,-0.7165103205508077,8.098939623934914,0.09719081553254787,-0.3072173581120854,0.8710643936882922,493.79384398756,473.9631338852913,501.81489793841075,jog
1.1018363939899833,-1.5556873756962712,-0.47475024793850135,7.934458353749519,0.6213735991757566,1.2281065800535051,0.2543927768439641,455.1313288338288,473.0198376300952,435.6260824912135,jog
1.1519198664440735,-0.9568959951309313,-0.8687517982238433,9.555273769729286,-0.7841092726877095,-0.23579910638073595,-0.6171903580284576,474.0963344071626,473.2618871796714,636.7579934009094,jog
1.2020033388981637,0.1576885486782154,-0.13220277119375973,10.876813247716088,1.8603083348689047,0.38163397028141877,-0.002238659752544112,443.69583193734064,443.22805454597056,568.5559697575853,jog
1.2520868113522539,1.1200422708778515,1.262424326517583,11.967102659287763,-0.334656467730963,0.2057659753219354,-0.10119001145096905,525.6589988078584,554.2749073170048,513.8634513922026,jog
1.302170283806344,1.175962683077195,1.0288885095697549,11.58043540999574,-0.08908132098599128,-0.10756673269127388,-0.12562971549113322,480.7579497640468,559.2869964961329,496.82723184715906,jog
1.352253756260434,1.4957364836870968,0.6807335408545203,10.615973397307194,-0.33340012334238206,-0.9649095006126409,-0.2796418704984488,410.9441582588443,508.6456489351954,507.17610366081163,jog
1.4023372287145242,-0.016239876676647794,-0.031884992525697764,8.556162136946336,-0.956364297911443,0.9276470859463071,-0.019594263006641698,609.7746299833861,538.5139824250693,526.526868142389,jog
1.4524207011686143,-1.680920900652286,-0.5244327530904436,7.686804447648737,0.8375499203644432,-0.05441227727971143,0.596940148049366,460.1835559777716,515.7545714550666,531.4091531117391,jog
1.5025041736227045,-1.8098768757265193,-1.3615043101452824,7.8353173608806586,-0.8772209104102078,1.0618793078484265,0.31102980286026494,550.7230087180368,493.23250033124253,551.1883965170025,jog
1.5525876460767947,-0.6782487975749876,-0.1407764140930166,9.343646703531494,0.14130899214754225,-1.5657444843747585,-0.587699981320724,479.5362508669255,492.3553657037637,484.2021398706735,jog
1.6026711185308848,-0.19987249073811425,0.03371145090554922,11.223323209266463,-0.8295530295212538,0.7654826341218984,0.4537147224926952,443.47746909250367,554.9544302512959,538.1452794512256,jog
1.652754590984975,1.2282979802836527,1.359378297027723,12.184162117602071,-0.6518646015636839,0.7499970659729788,0.06352262927164276,544.2415620512963,459.5200730586572,550.2841084918635,jog
1.7028380634390652,2.1345314661847645,0.9872100571740623,11.424224613189025,0.2794451362404285,-0.42929348353946256,-0.015873631792557602,441.1008705015522,533.562181142235,499.4388257683239,jog
1.7529215358931554,1.0533369166362614,0.40066018641255524,9.897990660536546,0.8260493430407118,0.1927636223536952,-0.5157410075404464,511.04479336449464,489.52744974824134,462.1844249007975,jog
1.8030050083472455,0.09604884684984379,-0.3509371568898597,8.745575478508695,-0.439778907447872,1.4282455475940972,0.45193502648438105,509.26521896396486,436.22813836790414,522.6444146768581,jog
1.8530884808013357,-1.598413321755681,-1.344114963505183,7.969355247138659,-0.02800576000119246,-0.9067572626612096,-0.08826812595723052,483.0015666072134,406.99515783121024,516.9961589388917,jog
1.9031719532554257,-2.0489313394622988,-1.0791793192603156,7.915504917312551,0.5202639034374514,-1.5067146267450895,-0.6752696712775965,564.9433116349336,454.91721492410664,476.4450009118265,jog
1.9532554257095158,-0.9108491419722347,-0.7523703674728994,9.621901730238237,1.4019518201698122,0.371390351886226,0.9405699844908334,475.0702827792243,536.1493253764387,540.8959731386656,jog
2.003338898163606,0.2638524558568421,0.44429580050251877,10.612821359464627,0.8094867630533163,-0.6505101295517012,-0.4453018699601924,444.3941486081355,557.3489284308872,500.2211324238825,jog
2.0534223706176964,1.4464773311858252,0.73119551534949,12.027456497885451,0.38031918243698065,1.2485842544822283,-1.469822111366565,478.0653959572019,560.6864565762729,489.70852090859694,jog
2.1035058430717863,1.9766260708506356,0.8444745527487256,11.72983363080112,-0.6089806646051423,0.25648659917663763,0.1563333427347203,533.4639123584266,453.9692622907607,547.2112817222886,jog
2.1535893155258763,1.5912788686649184,0.9925741786904745,9.78011913619122,-0.45337109287923505,0.33121801650638016,-0.40438942908368014,519.3145032946375,615.731635502628,510.8022001889281,jog
2.2036727879799667,-0.6712382324060975,-0.8742318739158448,8.540044467130825,-0.3503809383956378,-0.39548511946711756,-0.865836976959216,502.8807407839823,489.34530765652545,494.88349194323706,jog
2.2537562604340566,-1.7485365779512294,-0.7539270549168973,7.381605179579411,-0.3070533805806167,-0.19167822247372052,0.9959545222680917,510.7019185758864,468.2570841431696,529.772501606294,jog
2.303839732888147,-2.3099020474907,-1.5850545674071108,7.889544253206158,0.5483336809701258,-0.07942449161584984,0.615422579890755,478.8776035185176,494.22854966236423,501.6207345545822,jog
2.353923205342237,-1.4477317731737582,-0.26429118613512526,10.057746339349924,1.0281076968621075,-1.6597518096714097,1.5613286277018863,521.4970222076713,461.772602021361,476.3917634050939,jog
2.4040066777963274,0.5369657765834733,0.5489136626131754,11.611981920477001,0.29423006750291153,0.892960676583417,0.8976708165488261,488.56532133841154,557.758724714268,544.1553865086066,jog
2.4540901502504173,1.7489947127470762,1.3602910573574598,11.802430633018282,-0.49375787649015135,-0.2441995495041054,0.4645808215745229,463.02785746974024,426.52567397649955,505.42392600446607,jog
2.5041736227045077,1.952721694374854,0.7248984038404833,11.41688192526851,-0.6299641103962057,0.19400294443574226,-0.08171354150185321,467.480588791893,441.25195875267514,451.03220181002575,jog
2.5542570951585977,1.2931192341726812,0.5918549729906866,9.814682286598073,0.10474731365375364,-0.35069484711006216,-0.8299808501937356,516.0183518436578,518.3564209494125,502.24436550376413,jog
2.604340567612688,0.009655950219908019,-0.546771632849514,8.279535057099835,-1.9852599213384736,-0.5574554819054557,0.7082420735002647,506.5310428875001,494.4925883657965,502.6278649581524,jog
2.654424040066778,-1.4335741773041732,-1.0900680200782176,7.848650051544157,-0.7958712320844248,2.190435511750917,0.16126599441482756,482.51531329772627,444.4357163857887,519.14579129943,jog
2.704507512520868,-1.7822984175557124,-1.3130943548800977,7.871353255509752,-0.6309315176652545,1.0789109171929263,-0.8188408440262444,523.5683721055412,470.6047668430265,579.375208501401,jog
2.7545909849749584,-0.8167667991204111,-0.772359714205842,10.019128988325058,-0.251058868342604,0.7948711077137852,-0.9634134987111079,485.25599971988845,512.1796696453645,528.1691416739542,jog
2.8046744574290483,-0.15122378193919775,0.5555159178820939,10.991538883455112,-0.1642297780738226,-0.36066492283351254,0.6244916448870858,499.1463469109965,443.1230583373422,536.7080757591959,jog
2.8547579298831387,1.8719680423050844,1.4440638654651572,11.944032986985933,-0.3387029361277253,-0.31301938900364334,0.09953349302486734,575.9443796909513,506.9569447918412,538.6521922745958,jog
2.9048414023372287,2.0778075406331684,1.2563711247543663,11.613914257386604,-0.3447459359087891,-0.3784687636453062,0.022858647860285214,461.06526285862356,468.50025539522517,580.4005145907637,jog
2.954924874791319,1.3093053127921788,0.36710514648353193,9.873301186829147,-1.1822021290511722,0.17872614908181345,-0.3290466595093653,551.9328461718474,556.3206055729389,406.41345162684485,jog
3.005008347245409,0.2130417044541993,-0.5806091351200409,8.282030784731878,0.5703861511692897,-0.3399555853604023,-0.6689127842688077,505.43982846177596,453.2155807264285,507.47920433775846,jog
3.0550918196994994,-1.5421212283767751,-0.9900343082793175,8.227634153772716,-0.4839822890111972,1.0651565977697204,0.8401320681791646,488.7216331663298,420.36461759224824,524.5874791578406,jog
3.1051752921535893,-1.949318194006679,-1.4046071151240427,8.138269522441076,0.3504436519811065,1.119330313189332,0.6890571307408407,533.6386490548845,485.9326176307914,503.1067593129509,jog
3.1552587646076797,-1.018808222698047,-0.36757756863603586,9.947382674050083,-1.2549237205265753,-0.5885314829071233,0.3371991781063518,475.758061535695,578.4562354765199,482.0671001500498,jog
3.2053422370617697,0.1175038907610917,0.9253063319585424,11.008924169086308,0.4698033989116076,-1.3002475406415712,1.0929997124714832,511.97611332026656,464.3174518958483,492.15863284903173,jog
3.2554257095158596,1.752772731326419,1.0053435995116382,11.723498589018941,0.40643272442876477,-1.0856667022783524,0.4322244266308694,463.8778858083544,418.4722167620987,514.8893720575585,jog
3.30550918196995,1.937788148466593,0.8288287161251315,11.876258623699734,-0.14307408343547928,-0.10475362829378436,-1.2796301687929978,559.9526636424234,490.0299151136784,442.04359246316983,jog
3.35559265442404,1.1137069611359278,0.25257980843100614,10.085225041377852,-1.1477457022265671,-0.23367927383286008,-0.28084473374599317,531.6679040685249,577.3820380913037,465.011414060074,jog
3.4056761268781304,-0.23758372009773543,-0.3361358990135789,8.39156013398672,-0.058744749518163795,-1.2394890795699711,-0.30077796548977137,487.019260045381,517.5644024690404,546.502263857884,jog
3.4557595993322203,-1.5171341862854677,-0.7924355262901568,7.676872118696867,-0.11538573272429345,-0.7721215751084602,-0.3866308012907854,548.7614535639254,501.2157373354696,487.902213726268,jog
3.5058430717863107,-1.6879210764573003,-1.1213258268031978,8.121093907126102,-0.004539064262126331,-0.1685406127820001,0.8213479269091417,500.03198386641753,485.63810921098866,453.0181898893548,jog
3.5559265442404007,-1.0848447816321407,0.030748212248676576,9.95410638148514,0.0734277347643384,0.5678735066384101,-0.511885738989859,414.1052938728955,498.3901713184212,466.6422818718156,jog
3.606010016694491,0.15084766449374104,1.1422990364414747,11.623900032779735,-1.4778480490245478,-0.7585856261183408,0.1579675087787073,514.7335141959859,466.42315911524673,445.34909608703805,jog
3.656093489148581,1.5205963121053008,1.2535966331141972,12.120207855467338,1.0582813315284927,-0.2773919792271895,0.8860476889218241,505.5936124571273,478.0339142752739,458.3402854034848,jog
3.7061769616026714,1.6035595930297986,1.3362920593230576,11.714696668033552,-0.09709174698766047,0.43423188822626585,0.027049722860509672,501.74979151458933,528.703857096901,547.2826197556373,jog
3.7562604340567614,1.5724919207732921,0.22620937171548589,10.21230705474847,-0.533065169830347,-0.2863076927455159,-0.31348607217576313,495.4777962784213,461.48040476724026,544.0951025526024,jog
3.8063439065108513,-0.2750016267925209,-0.4573338645893588,8.367739748225809,0.7611461072703907,0.5375314621562175,0.1559657824456108,566.2499720811942,551.200778325176,541.074568115441,jog
3.8564273789649417,-1.4473366496702693,-1.0777540127238479,7.494210656682763,-0.10543060117840965,0.0876723454497405,0.04445019035840785,492.7047509664223,487.5785266520956,501.899487563024,jog
3.9065108514190316,-1.6576682095142914,-1.3106942821857162,7.879228463709077,1.0954727044495143,-0.6148304241714931,-1.3089446626734866,570.5732100776378,548.7131308444425,524.4531932378661,jog
3.956594323873122,-1.7007410304945596,-0.3975741561327308,9.359583507146809,-0.15403260393345009,-1.0964899066895992,1.018666907665078,565.7834322006348,454.0697299793855,494.8093074844965,jog
4.006677796327212,0.041536397788559554,0.10878171447140844,11.331113680825734,0.36779796369725254,-0.6688448989140486,0.19076564037447094,509.60120092472636,456.0395338675516,517.5141757617208,jog
4.056761268781302,1.2132123952998615,0.7345954480606458,12.069347871711749,-0.6654830593182884,-0.9113926627030206,1.512888663024859,491.25284060199107,494.38772811270087,520.5660298079686,jog
4.106844741235393,1.5372396179487104,1.0670638833473785,11.199030188418538,-0.8656714454843998,0.7042730699889747,-0.43720910494903165,523.5645371760021,500.16308965537047,520.4871140444648,jog
4.156928213689483,0.9768809222291349,0.7240694600450308,9.504805257301491,0.0837514649686694,0.5399048785963015,0.42334001797625476,561.7658594551151,531.9025681911648,461.05701186190413,jog
4.207011686143573,-0.7052451252193445,-0.09668376327607159,8.192522226325712,0.3782664347755484,0.3981587496129983,1.0297719730844388,546.2360885164254,530.2500900155208,520.7585214431766,jog
4.257095158597663,-1.2663475955295889,-0.771900190345665,7.245902962568164,-0.12433541457347813,-1.0025721792570037,0.0553892149537135,556.1235237011027,496.6189578096041,433.45123133224934,jog
4.307178631051753,-2.0956006165090626,-1.2701315293423514,8.150701916703232,-0.4993174277872245,-0.5160564225096597,0.5213119708147044,524.06977985304,493.0317922880123,502.05300000224327,jog
4.357262103505843,-0.9729982619936589,-0.7812196818075383,9.390106325405474,0.3837664661738036,-0.9715509550973739,-0.11195706903279744,537.3319492255872,509.23463130514926,509.4532511340814,jog
4.407345575959933,-0.030576725747172906,0.8218267086080444,11.22194142825981,0.3233326759374043,-0.2171569590297522,-0.2813396250765215,473.2076646901664,459.5469120627144,500.36087469828146,jog
4.457429048414023,1.468155529777762,0.8764476262396765,12.030115814618176,0.1207160997901707,-0.23565538850936232,0.5455392831250718,538.5797021245357,548.9806479421487,529.5669585898823,jog
4.507512520868113,2.0314939636399556,0.5937523049098732,11.328500737623228,-0.3232431498760851,1.4604146175136616,-1.1178063315211793,387.9976755711016,451.8044140833254,467.6591617708679,jog
4.557595993322204,1.178213483297949,0.3107248960540505,10.458321203479294,0.10807939602307483,0.060074432741525664,-0.766249318305629,489.87841256833616,539.4843629103106,549.5176035649429,jog
4.607679465776294,-0.014872982898829351,-0.7254865447817018,8.501215213281908,-0.1726972093737227,0.8250060111597414,0.5413387068600465,523.7506535140328,490.1117355382229,525.9990654065624,jog
4.657762938230384,-1.4954338448208233,-1.1517737349372537,7.208525402629931,0.028892665870750917,-0.41950727895732487,-0.31068581527223843,485.127234478913,475.9696549885183,482.11683308869624,jog
4.707846410684474,-1.5750743935077718,-1.0469498193747813,7.990925728629562,0.4595155203349295,-0.693136175346858,-1.1608655918533295,505.8007138470726,527.5387521105008,571.5238407633068,jog
4.757929883138565,-0.8353824478827255,-0.15889138628742072,9.729807821600135,-1.3417095943199768,-0.5544787640697778,-1.0619630471741281,498.1226950594282,460.21871271157755,524.15724950544,jog
4.808013355592655,0.9059652308537408,0.16618299797369673,11.313277634998514,-0.3134311925567789,-0.8335762134579688,-0.3301264449505494,542.8443138065754,522.8680369868945,443.03337336840724,jog
4.858096828046745,1.7483774446886546,0.8487104262157326,11.899298539164008,0.4243854400383316,0.062050396399735565,-0.7820379270556652,435.0003568023769,495.6757627464966,466.49649802517774,jog
4.908180300500835,1.983409955854372,1.1436797479200862,11.27024927082624,0.7527775600009551,-0.10778606061875207,1.27649710982525,473.73013250529897,537.3584283151783,456.86497314651433,jog
4.958263772954925,1.2624719625735978,0.8002195373812315,10.110003914521714,0.421721702631592,1.0032359495890217,0.3007497442309587,480.5819620060697,480.1752488864873,529.8718953906948,jog
5.008347245409015,-0.7767036872264483,-0.5636648996192979,8.537245121108906,1.30880856376695,0.0847935122826768,0.6125275251476284,507.56323310506485,441.26829181101664,464.67483179294794,jog
5.058430717863105,-1.3321203794192025,-0.8925975127507464,7.550438669097401,-0.4603442289059546,-0.18499869285092982,0.9345130429136514,515.4328719079982,516.6882693619367,523.1657123522662,jog
5.108514190317195,-1.9106084912777461,-1.2885316869699688,7.896904865034702,-0.934245282838378,-0.6165547996069808,-1.1589509547124683,550.6994664434275,478.5632829405725,583.813425825221,jog
5.158597662771285,-1.1724823038276686,-0.41780926555492764,9.535122018207124,-0.8448648949448871,-0.30321111559251224,-0.7222290095023428,509.7674566942565,458.7563162115166,497.1653888563309,jog
5.208681135225376,0.11487297980539925,0.28303740935477134,11.04631274756694,-0.8468598275588037,-0.05986353812161613,0.5962203467715482,540.8936501362014,509.57627777302815,492.3481570839295,jog
5.258764607679466,1.6919857894508805,1.065759443445874,11.758666666452692,0.7600673043886849,0.41376518723819766,0.6329596928118005,461.81097802232995,502.4403003438803,449.72584355043,jog
5.308848080133556,1.8864192178493955,1.470202179387643,11.355724736674876,0.2573562655543733,0.25857362462223543,-0.566267478104789,493.4835376441198,492.364586011689,493.94758253499964,jog
5.358931552587646,0.7551387941510985,0.4946419637337648,9.950355869301108,-1.1003902845475617,-0.3211965902382673,0.2611967979685764,478.2370692154801,527.8368698951433,440.03356011049374,jog
5.409015025041736,-0.34094137664176283,-0.34170423893983043,8.116571585626989,0.43394246358170374,-0.08833655298527278,1.4022028243489073,478.14514648226606,419.95208017306044,542.4535547024162,jog
5.459098497495827,-1.2514572981559322,-1.1683394032627301,7.883771108491524,-1.4288397401715751,1.5909712989831526,0.1824746400104662,485.93979402259276,555.2256983452631,452.40578022707984,jog
5.509181969949917,-2.129474638920755,-1.1426503109551194,8.23860416337955,0.7000029587523582,-1.0182308085418104,0.17748664285763535,532.5380630029249,502.5148250641673,478.4936256769835,jog
5.559265442404007,-0.8992831945285152,-0.2967509374930672,9.778740173064318,1.5107654819835934,0.03312485330152758,-0.8873894503278114,489.7293572542601,540.5841875929332,454.14427996317437,jog
5.609348914858097,0.05143174008728803,0.7315835195804548,11.872541241005484,-0.15786352996287858,-0.11249293520054637,0.300657863137983,438.946319986721,505.02411957470963,576.9331199301782,jog
5.6594323873121875,1.3615853994936988,1.219745023755172,12.257415494343569,0.767082235703428,0.05105138708257439,0.778224001780498,545.2975762850132,578.4122770212767,464.80389308922736,jog
5.709515859766277,1.9709755272125475,0.886207080975258,11.333892852788999,-0.313794444635213,-0.5944651209675323,1.1150458603006643,503.58512684519246,490.4849811573957,427.47054447798143,jog
5.759599332220367,0.8693829861966176,0.4301997079184649,9.778306549544666,0.2650568900713418,-0.4303691939338272,-0.30594609415298946,513.432135544656,528.2764771323124,524.943562128646,jog
5.809682804674457,-0.1790275583453821,-0.8364720204883123,8.19962961792336,-0.7259122665611746,0.39158566822088325,0.3095408179004803,534.5085059973122,526.2589304609749,467.5576460353047,jog
5.859766277128548,-0.9319505706086119,-1.2949565170915531,7.667833444909494,-0.7580698380052665,-0.22982819339717447,-0.5929050322865718,521.7822353005294,516.3036327288305,528.4614739265899,jog
5.909849749582638,-1.2908771467780134,-1.3905638779483702,7.80440987339058,0.8495456493659629,-0.27669394088167903,-0.40638759128417246,452.15200446002905,499.99817675499196,441.57162427505114,jog
5.959933222036728,-0.7125503331478198,-0.5356454886900806,9.532790413626087,-0.8480061556570171,0.32357395713293763,-0.27333953267361144,570.6255873542788,553.5377215432233,580.0483270946642,jog
6.010016694490818,-0.050404898375523755,0.5881440381959591,11.447826778347881,0.2531639434580674,1.2238466644218027,-0.5950853925947446,476.5477208942275,514.4151397600187,459.658607223908,jog
6.060100166944908,1.368202027844597,0.6457598630429573,11.932559475070883,-0.5476427253422054,0.3279563911458345,0.7780172175079852,542.2201992865045,473.6749191326297,493.5580375029889,jog
6.110183639398999,1.5946291183260914,1.6139070665400244,11.582832216048041,-1.2233359687154173,0.7287672028447246,-0.7547338453358962,438.78727462628694,465.02120379355136,531.8347260073373,jog
6.160267111853089,0.96032921890163,0.17964876864580173,10.045161385018355,-0.4156368548982192,0.506572665020308,-0.3770455048825494,480.70609913862967,538.8233299224146,513.1914292498145,jog
6.210350584307179,-0.05795412660903873,-1.085658333318952,8.305611472720374,-0.17489109798160948,0.28712510995509694,0.10608229202400139,501.23706437656347,491.0822718073799,441.91271316707747,jog
6.260434056761269,-1.3431992444813117,-1.0998310456289964,7.741661054849864,0.6692653774924877,-0.17615007836741164,0.018161609078958942,482.72465399689565,607.5330812820088,506.0939119157983,jog
6.3105175292153595,-1.6868516265391336,-1.5261479751427989,8.063517816960474,0.2655738531394752,-0.0031478799373909614,-0.9815628857392598,475.2166734295004,518.4390405967229,480.08364678096206,jog
6.360601001669449,-1.0267629723033374,0.2239768693447955,9.75460171773294,-1.1012776597264489,0.25641141186718847,-0.9476420338185636,437.58715872309403,447.6178205076905,541.7143019526841,jog
6.410684474123539,1.0158507160581034,0.4235998725359088,11.380558593148505,1.3455009444885078,1.4899422998249723,-0.33934725364680773,507.3161868405652,624.772572913409,510.4569294350052,jog
6.460767946577629,1.8096812696233897,1.0880742966710686,11.728880272522806,0.033350296831198264,-0.320711718667169,-0.31126237998241774,474.892856428772,505.4226347659225,510.3718129761169,jog
6.510851419031719,1.6139885333154853,0.6753665837005498,11.030334117021749,0.18651654674212667,0.021495293756775113,-0.1766834619807656,460.3655677072894,486.4578608864422,439.73917961464775,jog
6.56093489148581,0.9938036753195773,0.18373344956119986,9.341066287378132,-0.8774572452645554,0.24926259904772047,-0.007693879669872953,463.4846419618392,476.9408238545225,488.94865701752684,jog
6.6110183639399,0.03765873949196902,-0.27494716007806586,8.320778818054396,-0.6106429088718721,0.4153695171242621,0.420848601469945,535.5922246295671,458.50836589423415,460.22280553106674,jog
6.66110183639399,-1.4083671625340148,-1.0868909402264209,7.500867141454291,0.9481677076075445,0.9943522677050582,0.841361742673936,441.69304222085316,517.1754222534922,551.9255050904757,jog
6.71118530884808,-2.098880716547998,-1.069453184297719,8.054652341107614,0.41712919832993073,0.10303599329020467,0.666841719282623,517.1040935570593,439.9685241278846,499.1911617248065,jog
6.761268781302171,-1.2228550505521272,-0.21611038382956754,9.781792632218496,-1.1696778527038618,-0.07947638132565883,0.333067069980848,574.4991785248768,495.2581847917578,558.4847720701885,jog
6.811352253756261,0.4048769965193551,0.7622275413064274,11.349840856952456,0.18833554066356523,0.39242968184599564,-0.6108561527051926,517.2587548329091,509.8664284176438,475.6255084298531,jog
6.861435726210351,1.2862681943766396,1.0289827100721565,11.86454885851808,0.8016629176425375,-0.6112324000950837,0.08196049280747769,534.2046429579304,540.6973639576136,528.5960853885521,jog
6.911519198664441,1.6970769476894607,1.1291440546107239,11.166162640297635,1.2541658610263173,0.5167426610695838,-0.2905966098055381,512.2297502945485,464.4138647828498,426.6031258436743,jog
6.961602671118531,0.6805765043276268,0.2608179704971358,9.483029079277307,-0.5677158009452813,-0.48104075579373107,-0.28754215425899304,531.2050120828653,526.2453129172005,521.8854123606125,jog
7.011686143572621,0.09266137618423638,-0.5724877595089544,8.449776918512471,-0.16612560964340586,-0.039243452106009304,-0.00683907802453715,470.52882973996736,491.4077821554452,544.5369551015059,jog
7.061769616026711,-1.8468173072857361,-1.5815587144435634,7.303835408810988,-0.09889191011496369,0.21875572959259315,-0.3263530326269341,546.8255289715527,511.82470101309747,528.9593487429216,jog
7.111853088480801,-1.9103830475666816,-0.9799801751996857,8.662973149626225,-0.18829786276089666,0.22699845150420705,0.31870421630173,549.4589163657115,551.2102250729658,479.4142298937512,jog
7.161936560934891,-0.7935516678102894,-0.4689448655724187,9.714803153932792,-0.20470862310000457,0.09342209879641432,-0.46630919652704544,476.277961357859,473.706772499071,520.4735205734836,jog
7.212020033388982,-0.015519405109966966,0.5108538579250582,11.683711151463422,0.7433321976750654,0.14474695398255585,1.5077738417932345,509.1762038252357,472.71509927652835,433.6268862242298,jog
7.262103505843072,1.3378874421381028,0.983647104018017,12.431236740615365,0.3521531727948097,0.9353282340663637,0.6555410323851283,511.70351377357684,512.8215401226224,544.8624209225894,jog
7.312186978297162,1.6552896172556815,1.416635989290676,11.63293654400861,-0.3505497475476768,-0.8487170945747421,-1.4255302603130413,465.59898152635594,529.4130001469223,503.2854915813046,jog
7.362270450751252,0.8879312442228233,0.5412003360913284,9.64794810177086,0.001309364765479342,-0.15958602495451482,-1.0454722642816108,486.9670983057027,530.7122662176848,579.9786601112337,jog
7.412353923205343,-0.09221900553373907,0.10684271660290612,8.315042969754677,0.18639665364294755,0.09065008178819221,-0.6294115952053873,475.299730889782,470.2975626151996,513.0751124872835,jog
7.462437395659433,-1.5449490682966727,-1.2548728859955438,7.100812263029844,-0.9078415096595522,0.25211116929966954,0.4007167896600241,486.24496485779275,531.7433757698237,527.9011996274179,jog
7.512520868113523,-1.918546686537883,-0.7899147477628061,8.512871661513856,0.5834373923742561,-0.6531683402330474,-0.4570683779020581,438.98877175792256,486.147916802632,516.3640037878523,jog
7.562604340567613,-1.0912800138350425,-0.03332598365904549,9.647996824445622,-1.5222433599999234,-0.4382821855835336,0.9786740109551968,503.2351388272303,483.6872522068202,471.4374692917626,jog
7.612687813021703,0.2321344259372397,0.7922201255858945,11.574717794715482,-1.123596904512973,-0.5922636324799851,1.3167954050362003,522.4423149365902,488.19203496980055,471.79950129562434,jog
7.6627712854757934,1.4576250862658848,0.8160195007591209,12.223085747696302,-0.8627568226200916,0.4191198232895875,0.8983977515650565,555.3177019173972,499.57325265820924,533.083343965189,jog
7.712854757929883,1.9246209198804731,0.9211249427895041,11.95461814720489,-2.156790642523401,0.8830370791041561,0.006575678275863201,594.0413085232002,528.5995386528818,567.9229808408097,jog
7.762938230383973,0.9610335686335717,0.06839586876224157,9.892348795905676,0.8345334072977867,-0.805327236604652,1.2694465243674526,508.06973153296894,455.9626131667668,522.1459207090608,jog
7.813021702838063,-0.5269581125538509,-0.8390245308499542,8.45806307261782,0.48106941226459815,0.2803983872524514,-0.10031569861580722,502.6672183728418,519.3800846933492,428.8546797581931,jog
7.863105175292154,-1.609898168126762,-1.0028698829544218,7.375602155675124,0.16909277571606218,0.97114809545949,0.6246966472383828,418.70034491712033,570.7725877549343,393.9015925496513,jog
7.913188647746244,-1.28226583403446,-0.5636788879572188,8.342945934536218,0.15031621679109855,0.40357220747619943,0.7846086253066852,513.1944263282439,531.6518796730052,489.23822120729284,jog
7.963272120200334,-1.2503537633314694,-0.3597072087742596,9.799418604460667,0.7271640900918117,-0.7673641587679035,-0.9481336628909085,501.1111949724654,508.71173825503615,506.7032406228221,jog
8.013355592654424,0.42139898884175325,0.7935103491348976,11.420528039133902,0.056742081636288806,-0.7107129130359552,0.10923428505053032,458.1453048850814,527.3695141204269,579.0349050256723,jog
8.063439065108515,1.383607286638379,1.1369524940353954,12.246996315290161,-0.7667439048265401,-0.10632117086667535,0.561186976286958,412.2540179849287,530.5618650852979,498.3377649324846,jog
8.113522537562604,1.8308527159564072,0.9717948131644112,11.359668407951355,1.0152308325213737,-0.20662738820964746,-0.5249654640026056,534.5059566177435,491.41141971347395,541.9297182222665,jog
8.163606010016695,0.6381663612258559,0.5085974724016613,9.678252385573646,1.3428989456214266,-0.8506918200475823,-1.3787758297434283,480.66482909954937,490.8234066170803,543.8221532669922,jog
8.213689482470786,-0.5379676613251703,-0.6070421176241279,8.70410124785375,-0.7095407419971591,-0.5224495656497744,0.8040340792118205,561.6359503642423,481.59196587245265,562.8545602439783,jog
8.263772954924875,-1.982494251134795,-1.393786408744182,7.991516964571944,0.14746452099363258,0.8492697606546652,0.5468655371191122,507.12456755411915,498.32291348672703,562.4150519038221,jog
8.313856427378965,-2.4061705210625925,-1.2382086053013455,8.228282769471605,-0.5390140969222271,0.18274298530016916,-0.021673504334907355,488.7804177704567,554.2384292595092,517.7169956397931,jog
8.363939899833055,-1.0832356654025372,-0.47654274196800533,9.616707701453706,0.7523081387996333,-0.845959175065351,-0.4079322233576527,571.770076635853,466.1105085765246,504.44627428135607,jog
8.414023372287145,0.3082453742307635,0.7360520770358547,11.29726188929083,-1.3750415815818293,0.30589172129449305,0.3843508170797668,500.2904737244524,484.468319931287,552.3765033242407,jog
8.464106844741236,1.5118477734091085,1.433390687093722,11.895159513568823,-1.2060560900864634,0.40319754518436157,-0.18916858803191847,468.3380563524721,511.41051142708744,457.2053638999016,jog
8.514190317195325,1.7921721417622385,1.1019971338112389,11.440952605036427,-0.08363819856419084,0.09369676413941135,-0.4055434940796334,511.84833984882977,519.8819359786153,521.5535487794141,jog
8.564273789649416,1.0733787137778363,0.6111406062233522,9.73366091415999,0.26903244848698193,-0.4611942081031494,-0.23462686457923612,453.939977828149,529.8161254264298,519.8460489564623,jog
8.614357262103505,-0.6309136697578801,-0.44768925254183417,8.027838968712086,-0.3415936870114308,0.7512552306008183,0.4910899889963594,440.3224961242762,528.227097022377,494.0508034723787,jog
8.664440734557596,-1.716021437585598,-1.4014681789428027,7.56592947194663,-0.09949046023061392,-0.08825573866817564,-0.6844670965224401,403.43614320720263,496.88779054530806,581.0342487331294,jog
8.714524207011687,-1.9272417729052609,-0.9691952767559455,8.574486283349769,0.6211100235489603,-0.7970707073640025,0.3121201355465364,489.12721841222026,508.2984279572262,530.404177379498,jog
8.764607679465776,-1.123053376065374,-0.672566030257606,9.780776466773869,-0.7292193899197568,0.3402610895829971,-0.5966020905849205,449.9765717082222,423.5801430813732,568.813403166826,jog
8.814691151919867,0.872472395236273,0.8979385794292132,11.166053402262,-0.23827116918670949,0.7289931171820383,-0.2995306818921336,504.74155641186445,522.8786094495625,496.04309256884164,jog
8.864774624373958,1.803595808321121,1.2537841346948535,11.813908097792567,0.340771942986739,0.5290448083215977,0.06891215981025639,521.6101304559658,501.02179445149136,446.5790189532267,jog
8.914858096828047,1.5698127328688576,1.259609476903501,11.289139751168568,-0.5810554930718523,-0.9141886265717967,0.0987629933820783,524.5251628077266,504.5630798620162,451.113414680208,jog
8.964941569282137,0.7925175055478216,0.6411333571732505,9.310095226427256,0.19518663394880223,-0.40247859782021694,-0.9332981053314345,459.93680584552914,538.7882656814655,521.6299922898709,jog
9.015025041736227,-0.3931252415816626,-0.8819475615224479,8.318400824523255,-0.691983772841023,1.1403391791966966,-0.15405036050376367,459.276135956658,469.46909797633583,561.3762473578774,jog
9.065108514190317,-1.313750068119278,-1.4071420066351503,7.732700238413582,0.4535652694895337,0.40854704116457313,-1.0574203414682386,494.1267026816916,519.0797817646903,515.2919017423928,jog
9.115191986644408,-1.6233663194089731,-1.0254046747332735,8.212465107099327,0.5427063164756043,0.02787878760923088,-0.14448393169585944,471.07347783021464,492.79956275663545,526.4004361780886,jog
9.165275459098497,-0.7984875049886039,0.05903235756370645,9.631987303249343,-0.6184962879381118,0.31785959447063844,0.637538941566497,476.7350898944155,474.2680367879255,455.0284091106329,jog
9.215358931552588,0.44172051959763786,0.2609075708478261,11.559832707382173,0.9788827024646679,0.35010805930514605,-0.2641900013579012,497.27043312020845,443.52040221913745,511.5288427330939,jog
9.265442404006677,1.6325903747210637,1.7469306411083432,11.925405331063889,-0.9475084312627648,0.6832896305250469,0.8682472110933904,485.89179145731526,487.7064166345712,501.36709319383573,jog
9.315525876460768,1.7284708625401977,1.000060754714465,11.801426957831476,-0.4440954586581279,0.3095651059329421,-0.029444747329042373,466.31472345033006,522.5566428213378,492.84428336418665,jog
9.365609348914859,0.9203454971538344,0.0961562882059572,9.73343729548333,-0.7033019071703672,1.3723459099720965,-1.4200626047090077,523.9246046764326,446.1915731733502,527.4856279519746,jog
9.415692821368948,-0.5272486035554466,-0.18178318956866663,8.620257678748692,0.502895114332118,-1.1933702943317506,0.3494571206912645,433.4943373351452,463.56975336656615,494.5648164305545,jog
9.465776293823039,-1.0901132763326844,-1.078244910822172,7.620514224082663,0.1749915622012564,-0.10969933394042142,0.23869819018996113,476.4725876961778,540.4027628414627,500.1967114157142,jog
9.51585976627713,-1.7599813314961557,-0.6207825994732343,8.816978828706935,0.03889177924177832,-0.16637622733420135,0.5334437996866018,544.7402008961606,492.3953031605256,444.44861668523464,jog
9.565943238731219,-0.512129933108201,-0.25962370075844127,10.108671249833721,-0.3388973606333216,0.6022778542943267,-0.3683812182440038,545.7773873155924,465.9439771495861,466.69907574182463,jog
9.61602671118531,0.4305721828312949,0.8098699536465377,11.275506466828842,0.2392446992584685,-0.12314082894989002,-1.2051124473361905,520.4842775755741,542.6841037481781,480.45007177837357,jog
9.666110183639399,1.646652316988615,1.0618873807629694,12.16119987581603,-0.40442326989039,0.547292829501737,-0.8260612745418873,573.032451853913,500.055573080984,491.2389097101518,jog
9.71619365609349,1.6552716211691314,0.9276114292968425,11.474835848932852,-0.6350691132524751,0.9455682517591414,-0.017818768840499443,517.9282650417375,516.0782750462033,503.8940366632068,jog
9.76627712854758,0.9144074300113891,0.485971303813691,9.817889029073472,0.3957339698012622,-0.8629941619840593,-0.8052923623895757,477.43417517734724,529.2606926909901,443.3361023897825,jog
9.81636060100167,0.14920169030387515,-0.47264986768262257,8.177499356691301,0.47510172460318334,0.32361909575115105,0.2279296347621995,541.1077874077009,521.4648089163951,518.9963886530333,jog
9.86644407345576,-1.295675249552779,-1.4331132022356519,7.65866958743674,0.8443020739906127,0.5411184022653295,0.9045796848901662,468.2425579481042,530.2268967313281,408.8028442257946,jog
9.91652754590985,-1.760787850803171,-1.0429877038195494,8.351037700696267,0.1189653850242545,-1.2747563865617904,0.1014528192380888,449.0409317660842,528.3025820316016,481.8622777728105,jog
9.96661101836394,-1.1176187878810675,0.16869374673652,10.079618605887537,-0.1547598776170385,0.7545082835241783,1.3509127213689431,572.383711573879,455.48166245397243,521.0657847531814,jog
10.01669449081803,0.8586206919422441,0.43484106258010186,10.843465951663783,-0.034993597959127855,1.4720839820231848,0.346254891884356,508.8502066262139,520.1653167917184,507.575698381199,jog
10.06677796327212,1.8668174418670853,1.3076303289094797,11.967269574695468,1.9431537700496508,0.09004530696111479,-0.5910089695924222,524.7301077018064,511.03251042113504,413.3984049718876,jog
10.11686143572621,2.028083501356045,1.1043575163633748,11.21395435261249,0.062077393147819494,-0.3538364109435174,0.8514588379803051,553.0071700094408,438.989245189672,512.0125154317161,jog
10.1669449081803,0.7928173584979767,0.2731973709914032,9.686149829882568,0.1731618403194673,-1.0660603847076016,-0.2888983379380538,517.5676616821984,509.16151768109364,496.3790197147969,jog
10.21702838063439,-0.1311393295128901,-0.5497535454729499,8.091254130862762,0.17775934451462017,-0.25447994043493466,-0.27660281401264253,523.9439275093426,480.0313336261359,533.6851501321935,jog
10.267111853088482,-1.4269951484022474,-1.3536621884245834,7.990624063463188,-0.7670484745589559,0.1546640310130173,0.020089864101970587,453.0350792885809,478.49530411125687,535.137207202177,jog
10.31719532554257,-1.4575218968500288,-0.878612927231174,8.118813833885808,-0.303631640494243,0.5887496145260275,0.6267502435196027,491.9568465166739,472.8635329586916,552.935745676192,jog
10.367278797996661,-0.901947568853882,-0.26229560900983273,10.271752393076458,-0.015930426186932686,0.37660533014833253,-1.737042184461939,481.44646057104404,516.6074417544634,471.2459416129027,jog
10.417362270450752,0.22849179683966137,0.8512561421311444,11.50318956455781,-1.1292462692292724,-1.7401847181680994,-0.2598631022901893,497.78514206824093,451.4966334892946,457.6315959955931,jog
10.467445742904841,1.2875477879566046,1.1845933609724866,11.943152581708368,-0.05857320067363223,0.007360724577798291,0.1428543997190378,474.7597203563602,495.49668364457796,559.3886220801966,jog
10.517529215358932,1.3798193403549406,1.2856895239112636,11.097376250962155,-0.6944616148913525,0.0953055824690283,0.5702101340727583,577.6478635819813,530.5374316510458,504.3312933611121,jog
10.567612687813021,0.9537991591988023,0.8449381105144431,9.496368925308175,-0.04119412400254198,0.29787886460547475,0.12159648534095614,462.01609072701314,522.0296413510401,543.9092560295297,jog
10.617696160267112,-0.9901483146550667,-0.6783109076257798,8.218808517966362,-0.46728786983109366,-0.17938096591918537,-0.308519776939669,587.9644576717983,469.9872965656973,426.7843515282195,jog
10.667779632721203,-1.8705163716944033,-1.0087064818553653,7.825148817715918,-0.17277021706346285,0.2253932764484815,-0.7033125051836587,551.092228387267,543.9484573432958,537.2653225487777,jog
10.717863105175292,-2.029905108741035,-1.33555680406011,8.590066031670323,-0.5309116381807397,-0.05887447571319099,0.6842262090668052,469.28240396839846,459.77785457334494,525.0505694176024,jog
10.767946577629383,-1.014562444989777,-0.11134200529658123,10.145625053538796,-1.3779396587456747,-0.8917935308983325,-1.1033046346896018,513.6587415893194,459.6252102601845,515.1284258171484,jog
10.818030050083472,0.3039219707551079,0.6778098439906666,11.468603647422725,-0.14481475368561506,1.0824370242780366,0.6332667865869588,547.8255891608547,447.84324957294643,518.6269796484509,jog
10.868113522537563,1.8389884934496563,0.6637134567450271,12.173876439474434,-0.3394815618002704,-0.11787501147498128,-0.1293611723795339,519.4150619865511,427.254487070584,547.4775169992058,jog
10.918196994991654,1.1269562715448789,1.0292431665163018,10.977325461758971,-0.7389090468903904,0.39618231287593136,-0.23695619557388328,494.94537019739016,430.16385799949285,465.10617252412436,jog
10.968280467445743,0.6707668817190126,0.31092732523669375,9.67236956645799,-0.38741083405822874,-0.09309080748034713,0.02559523569603177,520.7388069346896,473.08513831052676,499.35267459651527,jog
11.018363939899833,-0.4231989133660365,-0.6878231340951135,8.25017521573931,0.8527372401477271,0.0554587374009886,1.2690223426476444,541.2046604662008,497.83612107506866,508.28038188574965,jog
11.068447412353924,-1.862749682659528,-1.1482357257345432,7.341398751615587,0.1654295019711447,-0.29657742699947653,0.5096232304579834,512.6042978466237,528.9384925233678,529.794637053655,jog
11.118530884808013,-1.2989493982072373,-0.6843576822520052,8.419555502024746,0.4643136169556533,0.9225103704922442,0.20643874639638402,527.9726304660791,467.3820014955541,551.4269445612812,jog
11.168614357262104,-0.924302658706067,-0.15922336240840418,10.37512631153759,-0.8780631291524432,-0.4256428322138044,-0.3650811538800945,545.4778938511942,482.73876685764634,482.90747090562735,jog
11.218697829716193,0.5269666096266231,0.6370579967009091,11.888197626669903,-1.3671250396953682,-0.20671893894142274,-0.3800664283885123,535.2862655010873,540.4394879740504,559.7549573153007,jog
11.268781302170284,1.2162135119584043,1.1261900855204752,12.145671428924139,-0.9419594594271432,0.9323740815040336,0.40072537649639733,524.5974150841473,477.63452305973726,542.5870733051452,jog
11.318864774624375,1.6641210878903236,1.139643747641607,11.040192637503996,-0.1039742386605232,-1.0409162056786212,-0.7755234879947814,462.7232867877758,374.14292884456756,459.70749483054414,jog
11.368948247078464,0.6025731193072303,0.05790403077728923,9.124182687515727,-0.5221020074540837,1.0724964582904377,-0.12586535262138185,537.2004802752664,495.77954720248863,524.2686492624223,jog
11.419031719532555,-1.0547039402071459,-0.7091619703697238,7.794304735009719,-0.10585270541518196,0.16301969743185682,-0.6349327815595767,463.89724153945656,518.4711150913067,500.8954672316929,jog
11.469115191986644,-1.0930920251712641,-1.0207633925921737,7.686091792068909,-1.1026756928498074,1.9703891993185896,0.24308554590649178,473.35541411676724,588.9270458316552,505.6408876959607,jog
11.519198664440735,-1.6292177677566209,-1.113634638732182,8.530469921606718,-0.18757996449751707,-0.9494590294359209,-0.4360446057742666,564.4761438845012,561.470948379745,474.29872019470787,jog
11.569282136894826,-0.8733660868823632,-0.13878235350397305,10.371864881919317,1.398867987078288,0.26143079514953277,-0.5150982868183477,457.0241249380414,525.3238997769281,484.5656766470066,jog
11.619365609348915,0.433257838972882,0.5237749840021497,11.778780812692242,0.623362093438391,0.9445259903040679,-0.6465280317932617,562.7087487290931,442.26368413853515,565.3980834553207,jog
11.669449081803005,1.467482277844935,0.9589983083426465,11.983051933313696,0.991084364620747,-0.4250472982918651,-0.11106057388690914,509.2579738032058,475.10627466404975,501.51989829059545,jog
11.719532554257096,1.330515354101227,0.9040085713074364,11.017760717293056,-0.39723581729875757,-0.8335430192579484,0.3666091625427001,546.8192209451609,447.0583862415964,461.7719747693462,jog
11.769616026711185,0.8531287367742993,0.556630829821066,9.265047575043374,-0.3650012305966728,0.13655658101845378,0.5062841870483625,498.14397820442474,497.0133847440866,507.7428251853375,jog
11.819699499165276,-0.8204074548566487,-0.7496867635712245,8.073917933031522,-1.0284568671655527,-0.5218984044943522,0.1067864698393593,588.842722386815,526.2761383051072,580.716935163876,jog
11.869782971619365,-1.3071549717750295,-1.5648950292815464,7.772841819803218,-0.1595378140679235,1.2495378674398352,-1.359514863342219,533.2068434161505,501.7228258283155,448.45291048621044,jog
11.919866444073456,-1.5667589573076066,-0.9318828391044844,8.536308253202272,-0.43260872552310387,0.5061370607049172,-0.557721696314128,473.7313859058881,505.3490763589522,465.5864388556575,jog
11.969949916527547,-0.5066434265132802,-0.19839826007894407,9.874675646507951,-0.6655658330612259,0.5666409925517105,-0.15367969724703714,491.9516858182965,535.5871057341423,571.2142969067947,jog
12.020033388981636,0.7496197195551317,0.8857692448875387,11.10089205476557,-1.225477583386042,0.5905951188330452,-0.50955929052691,461.26021415087854,448.20330278724987,508.428117414396,jog
12.070116861435727,1.6533770989895105,0.6969429068028279,12.215945242620977,-0.006473416204508793,-0.618337741372724,-0.07461530918132524,478.5086969156836,497.18768102648403,556.8732900896899,jog
12.120200333889816,1.215749570046854,0.9924535016559155,11.658196579324665,-0.1577580094427687,-1.9868948087183607,0.9132613189997728,469.3418775680095,431.6594283725495,514.5922837159742,jog
12.170283806343907,0.7374854055715353,0.11299894142977462,9.220224412734469,0.4689999446958793,-0.32166370426517826,-1.1573737712058638,492.9266326539056,470.51103170752316,504.4332930121912,jog
12.220367278797998,-0.7724168609431739,-0.7712822246620259,7.915399142860896,-0.5665526369898422,0.16074426673351386,-0.9823715999953205,514.3654681924934,474.2162475406044,474.7621105332955,jog
12.270450751252087,-1.4413441376284928,-1.5613141513762567,7.455817572976992,0.11641075654764088,-0.534326470875617,1.1376469226153707,503.65355144522186,463.81582729831837,515.3412322954498,jog
12.320534223706177,-1.7163110132028,-0.8200375759456615,8.813497462703781,0.20474691830709102,0.4597371936061524,0.7990539436938981,573.0439615209859,526.2790438810812,468.5507375859755,jog
12.370617696160267,-0.7343353080655808,0.06400750454426515,9.792219104855734,0.9463027258973532,-0.5408514225680587,-0.11168902548848106,468.8964733317566,533.63860473636,482.37715842461137,jog
12.420701168614357,0.16869837491873385,0.8503091986535274,12.052299291718935,-1.4299966742233385,-0.07036083394290985,0.7375153526297649,549.0852737464422,429.56826809658816,464.0343427855074,jog
12.470784641068448,1.5155576850503742,1.2783694696088848,11.663101763546806,0.5540530624066715,0.07081589110565252,0.8783763971692959,496.7920089829605,505.45006787706455,533.4938661141741,jog
12.520868113522537,1.26119858560936,0.7621135524838321,10.925784554264911,-0.583170119604165,-0.15965708706059029,0.4285473400080894,473.81028957017804,529.1809680631026,438.5321357844023,jog
12.570951585976628,0.6481327757935103,0.23416277353985177,9.848417261704773,-0.38778873837788574,-0.3507081755100888,0.45200321344695615,491.1361090861019,521.0316962428745,454.04615757197234,jog
12.621035058430719,-1.1408899888841246,-1.0108274142490237,8.282361002602135,-0.7463638915399783,0.4392637828353877,-1.025972636409863,537.9088064239456,392.8067903909109,548.9235243608557,jog
12.671118530884808,-1.5424204039241316,-1.575578412045391,7.3561932984492255,0.32203796312661337,1.4442509641091714,-0.8768890357162777,520.0055170690988,485.6919782581845,495.74006210963654,jog
12.721202003338899,-1.4797768841272299,-0.9922537952756112,8.095427621643077,0.5626846206070851,0.14983142035508284,0.8433638456113098,558.9852828383796,483.1058796019909,472.6366299791103,jog
12.771285475792988,-0.8288150685990174,-0.2844545729230003,10.104415289305424,0.6466775389016918,0.35169199888789837,0.33565000793576705,484.12259977308446,468.9657331098086,497.77063603148054,jog
12.821368948247079,0.5773651932798943,0.3033980204398745,11.75592331756932,-0.14236038961787373,0.9573347467715295,-0.4452477359491429,420.3147698144365,507.3781830582337,505.8078864951029,jog
12.87145242070117,1.812519726768157,1.0430008402836137,12.111213446427694,0.11018591170550684,-0.42520134635123297,0.36692502726583304,492.60956440675943,479.0459021773824,507.31573746263916,jog
12.921535893155259,1.7508947017470173,0.6362408072670869,11.309313354469435,0.3891849839144055,-1.074597063782633,0.9489412900182811,424.74025255123195,508.5506701437273,507.6222670281197,jog
12.97161936560935,0.3225948665887551,0.2220555184064279,9.623980939017306,0.831957939720858,-0.9189720378681738,-0.9939055631524082,549.407744880597,495.8932967287514,424.1376813172022,jog
13.021702838063439,-0.39244907106307647,-0.42782172858652495,7.39680501490156,-0.007840537865560862,0.7692835662390185,-1.0935101686008415,469.59702150114776,491.5959994349398,492.70587664533343,jog
13.07178631051753,-1.2660602786813988,-1.543460040640197,7.913913947612195,-0.051656626736977206,-0.08910122657386516,-1.3980337106393668,581.6393069039307,510.1044039555768,548.1027504632198,jog
13.12186978297162,-1.4127378553822942,-1.364310654175105,8.412783229826516,1.1018149716368584,0.43094175563928294,-0.15114724058057213,581.0536858475124,485.9458347904899,473.827737596121,jog
13.17195325542571,-0.5014768160801368,-0.18408107850898017,9.952068291669791,-0.4289934845901704,-1.7603560771123352,-0.5897202827520446,511.55832503271336,544.7367693667501,541.9327688779122,jog
13.2220367278798,0.9331779000418517,0.6588949634239372,11.784493657198007,0.6113061153590952,-0.4791944622130565,0.04218223181832271,555.7558148020952,519.9323178465278,434.20876468808206,jog
13.272120200333891,1.5288395878352268,1.3395774245772976,12.161386089468781,0.8183818847903306,0.8623439595201806,1.0448024326000147,505.91981670442647,503.8469993660048,530.3983512265152,jog
13.32220367278798,1.4244369507679564,0.8639628179893373,11.14065626583684,0.17543954649731328,0.48803249411839267,0.14698556409657249,565.9247674234924,434.4705267320996,538.361938732113,jog
13.37228714524207,0.8116828536718023,0.6806855650477537,9.68387532153313,-0.21423839987250745,-0.1623716461039575,-0.865638611192741,500.9022868219,538.2886723372997,489.5012834945931,jog
13.42237061769616,-0.5246887797643104,-0.4661920922778458,7.621806162075135,0.36108302354442495,-0.5710298891944834,0.05443687043567409,476.91121448321104,512.6758789433375,548.7681988054283,jog
13.47245409015025,-1.1537010106496504,-1.7791775445644198,7.8428308661474135,0.2597719292767391,0.9105807213179904,0.561615672746367,536.9486729450807,512.5002985871367,544.7432483599588,jog
13.522537562604342,-1.6938901121558303,-0.7295233446987128,8.877525308982063,0.3305171559858865,0.555474355610413,1.7615856860597447,451.7023710553327,567.9346254490628,469.7660866402897,jog
13.57262103505843,-1.0417078249254241,-0.195825574684323,10.119947219557599,-1.1603787346765588,0.030949907188593508,-0.5104740049333745,489.76269447185354,490.66048726180844,477.81848722031424,jog
13.622704507512521,0.5769552702566674,0.43519207292826484,11.773099853496575,-0.4802282976788912,0.024977203930102373,-0.01814691221887155,539.896900014506,501.97597699589437,543.886814584743,jog
13.67278797996661,1.491855204902633,1.3511668449333882,12.138686558803844,1.0344225484459908,1.4591562420127,0.35339580011677685,524.9646552994411,530.6632117746484,530.9234463289275,jog
13.722871452420701,1.6081206312868979,1.1700410740863936,10.86390298943907,-0.0002059197945644792,-0.3827913890203637,0.033355751389572086,525.7430526907306,498.29078189321484,513.8232627848543,jog
13.772954924874792,0.418285564021925,-0.017405815668338848,9.41567971196161,-0.6355747138735216,0.45177991819537244,-1.149679465214432,469.8203689761493,543.5838552765942,494.06118738690645,jog
13.823038397328881,-0.9431255757422994,-0.79892010165344,7.839579462968823,-0.33116481107128753,1.197434391262098,0.3445799420698416,510.6071839575078,447.58231827138314,469.20534613466293,jog
13.873121869782972,-1.9199642342779561,-1.3668165573893671,8.274924234330044,-0.5329003771426355,-0.799414698224389,0.6609447029085903,457.52462277775504,451.73818953939247,523.2062086291049,jog
13.923205342237061,-1.8139851626562558,-1.2305733393290648,8.551712093358535,0.10987480986637341,0.8001640532226856,1.493870399161283,488.1607532134371,543.0812535376101,508.7286121920889,jog
13.973288814691152,-1.0101702817139484,0.10812931065735343,10.305112506667394,0.49486669153246643,-0.4587535041616032,1.1615703725982423,553.5958641965882,500.1261108096221,549.3386371636509,jog
14.023372287145243,1.0641178266777762,1.1931474731916438,11.574252654121546,-1.3234884637268751,0.3205872459314199,0.582457000955301,537.1397544411983,567.4126380155932,484.972814649665,jog
14.073455759599332,1.8461801283110244,1.4433977885648819,11.953864303117362,1.041242272460434,-0.3433660178381854,-1.3496268322287217,543.4199082825489,483.5325380875746,472.6121796816773,jog
14.123539232053423,1.659476161916063,1.2330075370123033,11.071385811034531,-0.8769045992077789,-0.9240103113720775,-0.10922322660122527,497.5853367475231,492.06827571730724,483.88776915404173,jog
14.173622704507514,0.7821466765814379,0.21411425619004448,8.922352783339555,-0.655840477510131,0.47318210635306424,1.0041308415845396,514.0493033621045,491.97710518299067,477.23924439094685,jog
14.223706176961603,-0.5917405184998402,-0.8717013314954924,7.8100070704043025,-0.691890548884954,0.13349279943243508,-0.8645740501593029,513.0762302220753,542.7018841566498,473.3051995132257,jog
14.273789649415694,-1.7124658884288115,-1.1801826504605515,7.6718529427164865,-0.3546112987615342,-0.008416429966583379,0.16999273714901753,450.71701116497775,522.7910669723211,454.94871769803103,jog
14.323873121869783,-1.5524509042372474,-0.9231755709580083,8.254236078405134,-0.6989512348795722,-0.6899549710295072,-0.3998832487631567,476.3690541078434,504.4365418514296,449.79376684103744,jog
14.373956594323873,-0.3028035822651915,-0.33994290770748287,10.190086783858838,0.1793077569426972,-1.2080513632912486,0.12047757104618555,512.1313168692501,495.9019455483097,481.03252707245065,jog
14.424040066777964,1.0852278782696745,0.7451095184375796,11.48733927604348,-0.8577512290441336,0.7785820567154002,0.4165595639239224,544.948557927897,448.08169473404655,456.93331316419585,jog
14.474123539232053,1.2314039811190156,1.1842170326820145,11.710441214358402,-1.1959550212541488,0.13306696580120259,0.18310481873039539,461.7454550132245,534.2259275314508,509.05607772306575,jog
14.524207011686144,1.8847137003352046,0.8292266720283259,11.471471739458524,1.832482379426377,-0.3882778595652744,0.18455980895126942,532.5965121173091,459.46882893162865,524.2491468839405,jog
14.574290484140233,1.1224170242550886,-0.04851047202886387,9.21351943231906,0.3244868829147458,-0.7107863526272851,0.5657941682004537,442.2977922533259,498.8050834737457,474.8413063007107,jog
14.624373956594324,-0.4868301766669426,-0.6078481629507408,7.982478697859292,0.46360872833276834,-0.28955225499143006,-0.29535428043048384,456.69717987869313,436.0905941805589,544.2896017635334,jog
14.674457429048415,-1.6859343193170642,-0.5825146873439646,7.454132351930645,0.7586351693519284,-0.4965753021439599,0.1973153540530241,502.83418350995794,568.338018170693,503.8719362130319,jog
14.724540901502504,-1.5595148447155953,-0.728177868161751,8.266490177913717,-1.2336930003765312,-0.8486720351102139,0.42841091306449475,492.4296107206998,465.7150613215353,528.5015788905293,jog
14.774624373956595,-0.8298645863628831,0.027405661823085237,10.073479995599854,0.7720329012215656,0.5393768854649673,0.3770886809108235,515.9610724761168,500.45848970035394,526.4151954306393,jog
14.824707846410686,0.5524675136915711,0.6252906272752163,12.0600850534337,0.9716082037371567,-0.01648306261180564,-1.014138328451933,506.60864561284626,528.0901084328308,552.2142868338287,jog
14.874791318864775,1.695028618210969,0.9093302866164483,11.887463628031968,-1.2650820181962315,0.26856101474801053,-0.10760937446734485,513.550896805096,541.686677291368,470.71921071546495,jog
14.924874791318866,2.148714231563634,0.5570389908854654,10.988911486897853,1.1169253159967305,0.06329690731502172,0.4067870454687203,484.165040709304,530.7562705494546,455.57181283741016,jog
14.974958263772955,0.5524085367835242,0.18630896912003858,9.586050615161986,-0.0998121326429617,0.12162299922368619,0.2642025660346887,484.2736254575355,509.89943879784465,537.9035939185422,jog
15.025041736227045,-0.6569826923680232,-0.46345858026101855,8.271868319671167,0.5891840449295708,-0.5398311402550743,0.628955561253798,502.5078734198903,413.31109079382077,512.2601379941414,jog
15.075125208681136,-1.6606922387872656,-1.5358220644446419,7.308135517857844,-0.21640903896377242,0.23216872112514256,-0.4498353808311339,553.3744281046902,535.1701529038287,448.28917512401324,jog
15.125208681135225,-1.376756531461915,-0.46613953727977125,8.613779961023539,-1.086313959325191,0.3281339602612503,0.6092704001050786,501.7038487983635,498.7902239710328,436.1574358643128,jog
15.175292153589316,-0.9634913091034081,-0.4618439823400437,9.993603165530702,-0.20788430015325007,-0.6404468171296835,-0.5100701967598636,455.6216781228003,480.9009147069566,560.0801162386431,jog
15.225375626043405,0.53848368191005,0.4792709524421003,11.745637220386206,1.5992863386803706,-0.6845375457989106,-0.4901979500457346,563.1004897632963,492.345333278613,566.250609359795,jog
15.275459098497496,1.8121152982988988,1.4924511720989604,12.384706435285564,-0.9428060110901755,0.06787494405279616,-1.0320385512558348,523.5586368966358,419.8012830873498,491.55311540937277,jog
15.325542570951587,1.4969625069967114,0.8367081668264182,10.615460641998594,-0.01611009736213011,-0.3663844017229814,-1.1331288168073768,513.452318718253,418.255830878525,554.2683786424554,jog
15.375626043405676,0.8338431373955799,0.4850765152914479,9.298496144240564,-0.545585116847242,-0.42183872236377534,-0.7811999028927701,497.8418548370838,568.4304495382505,532.6487281442638,jog
15.425709515859767,-0.868696699291567,-1.0200547531744362,8.01047456932681,0.42455173667085666,0.47586994949546835,0.13597447369794766,470.05701776038063,515.5145028297272,533.7627548821398,jog
15.475792988313858,-1.517018071338406,-1.4142646020469762,7.994348249288584,-0.06860520368979008,1.522091491340341,-0.5409937252693111,492.5166690211966,428.5365896394328,476.7320396808535,jog
15.525876460767947,-1.2689457871671488,-0.8957047439438315,8.681477851734144,-0.23164162184981626,-0.29905769805032123,0.7685444362291199,490.17914216601423,587.251471503862,519.4359279697185,jog
15.575959933222038,-0.9665491075526105,-0.7354267386442561,10.339800811326663,0.5740421962309528,1.0263052229808627,-1.027309952322021,505.2608745334279,511.23773506501726,516.8719977704314,jog
15.626043405676127,0.9593041472338976,0.9527028414457326,11.718202804334592,-0.6355960723804858,0.3257274852399058,0.8999244106827817,505.2586997040755,406.90635880870184,510.05473058720145,jog
15.676126878130217,1.3094031323448743,1.641766520400528,11.825935287022627,-0.1558593808676818,0.6386582150194403,0.22400701884571017,506.85583870352497,465.6577237483816,548.7644374527409,jog
15.726210350584308,1.7986030709539285,1.2841748740781127,11.036369871762506,-0.8985681698840287,0.7249189579166314,-0.5937754353976678,502.0206171814991,520.1581722767148,532.0940957792412,jog
15.776293823038397,0.5386558364677244,0.10045585898519258,9.192927740851804,0.12257401792593614,0.20551231624273292,-1.283148397834347,531.2079787748121,492.2136202383761,503.0776515897852,jog
15.826377295492488,-0.6149093912060061,-0.8671263889464202,8.165727283378185,-0.13952440460772458,-1.691014232458556,-0.7792364466075853,450.3280115201125,559.6744742789933,514.1801917555748,jog
15.876460767946577,-1.8258755911769349,-1.4804118552822445,7.4520495502587005,0.1102708140721684,0.12917575458340627,0.24458318897162856,514.6556090036751,486.7312143450292,532.8124498166835,jog
15.926544240400668,-1.233440605407929,-1.351783068438627,8.647253660746177,-1.7512697349321926,0.4959002281761536,0.3309349935991211,461.5099857790648,526.0083990846103,531.7412712140558,jog
15.976627712854759,-1.0595315020024763,0.139418376867302,10.22297814580095,-0.14591958699994595,0.5401975732610802,0.4470056759849759,470.305711844218,544.0416117918193,538.0415357698733,jog
16.026711185308848,0.8303173342059547,0.7971665699069999,11.972361985268314,-0.8855564701871702,-0.7992864488789311,0.4394084879770259,461.749731405291,521.041553938053,581.3278958325366,jog
16.07679465776294,1.8072461842301388,1.207453962577787,11.534826810479878,0.48287743481528855,-1.1292937684894007,-0.4470125144732385,587.6727961793111,513.5365426911155,549.5725074542356,jog
16.12687813021703,2.3851491782730525,1.2185782899292943,11.303274532811251,-0.8491481290204395,1.1166084923048598,-2.33405749690034,482.25510172983564,604.6577844913728,558.8795817608531,jog
16.17696160267112,0.6114849854671465,0.13441767205115868,9.27412211174342,0.18457679655120968,-0.31960342537888725,0.2612697007220158,532.8440320605368,561.0150394032056,468.0879661957145,jog
16.227045075125208,-0.6994205352893497,-0.6911501864272416,7.724630594714227,0.818197441994818,1.3712151824525654,0.97350956981329,598.7659145954412,539.3513959077234,475.7133138918026,jog
16.2771285475793,-1.7933256494480094,-1.1296876877493462,7.66184345983383,0.8618584237403653,1.6163434171551945,0.4996127255153627,437.10069064193135,542.4580030654602,461.2935901470015,jog
16.32721202003339,-1.98693797028471,-1.2388253444724524,8.351532460728196,0.08593533958600812,0.1959532145437104,0.14320559909678288,549.9944535909584,539.9491716922109,521.4122558657907,jog
16.37729549248748,-0.8776729599906177,-0.3585329680132599,10.36436229933712,1.007497762052283,-0.43605161835270434,0.8038395328597112,486.659608184853,533.7012446982334,526.9475460725381,jog
16.42737896494157,0.7374898703913272,1.0347551247923055,11.350828504755352,-0.20891020029106314,1.5032749250009196,-0.0927972411500352,478.7689500653894,540.5448091933961,489.603126864971,jog
16.47746243739566,1.7843529777570497,1.0517995740786024,11.808359892671202,-0.19925370062914594,-0.27206001023805576,1.4652229676041613,486.4508868779838,474.68245039814633,431.1463098919187,jog
16.52754590984975,1.7238570912762028,0.8458451659929744,10.961009522713825,0.8013072955079382,1.3436077805137963,-0.46422762562404557,529.8909914350766,525.0036118829872,484.5110243273508,jog
16.57762938230384,0.31306912522086133,0.12438100717788914,9.597862800368715,-0.958962985973657,-0.4431179709197139,-0.548666939770905,478.9831574579615,575.687042063396,456.99263741168323,jog
16.62771285475793,-0.9027671205930099,-0.5550646750639627,7.501827014131545,-0.6733919692528112,-0.5368263315618107,-0.522618469500124,466.2945104784602,510.8826964638532,592.9523813469738,jog
16.67779632721202,-1.5233209436681663,-1.1153842924342259,7.600256887202959,-0.28822229868388616,-0.24769649365923765,0.7905296997145794,507.0072679715492,552.2513240032166,510.40476591230436,jog
16.72787979966611,-1.6299422190294988,-0.5125291934110738,8.995171635071655,0.9341490466079746,-0.16863920361563325,-0.4587146431331812,529.738445293,492.77503604214013,500.5766720266162,jog
16.7779632721202,-0.5851420741379182,-0.0186359045440172,10.361253178300414,-0.8686976868610914,-1.1772130197841368,0.01695185232086236,531.9077083940426,460.03905138460266,540.7205990882737,jog
16.82804674457429,0.9646353745654305,0.7262771703333772,12.252865457381215,0.3699165612081191,0.9375845226558353,-0.19018780725085724,511.85678315346036,542.8481867266971,505.3589100673464,jog
16.87813021702838,2.008215063641615,1.2144244841322256,11.816612733684673,-0.20316694738271507,-1.2262082363868505,-0.5439290524632723,581.2753390266704,493.0978938923681,539.0015098835297,jog
16.928213689482472,1.7087546520224235,0.6357477733910626,10.71719706520045,-0.9277618701613182,-0.9523641122164572,-0.25285845789777095,462.6810667976205,537.7779878379407,547.9516502157246,jog
16.97829716193656,0.5343162427774106,0.06573181845807301,8.768909893706152,-0.4453845860157382,-0.2652696323963057,0.8877684629132616,510.66975155889656,461.27193064135594,501.7066550147875,jog
17.02838063439065,-0.8082606574522777,-0.7718758476111218,7.564137816632804,-0.47089043871072306,-0.09557550420073764,0.9865961150495418,551.9970087124807,490.67929407748534,478.81816609410527,jog
17.07846410684474,-1.58605150779153,-1.2560057705699346,7.741496072466611,-0.9617850151544224,-0.1322730968120388,-0.06021352015368883,548.1805799754942,470.7221563724871,446.7500987312667,jog
17.128547579298832,-1.7901549368129246,-1.3747043187407004,8.9290529805802,0.4207805037055378,-0.9742045883444457,1.3615625546435173,535.0841851259117,514.2046323978857,440.7778665631397,jog
17.178631051752923,-0.6700872680788499,0.09561441830982331,10.669255951631639,0.18737342363514678,0.8895390946066654,-0.3445042916114534,551.1891494517189,508.35088323615867,506.28329342239317,jog
17.22871452420701,0.7816794112778531,1.2669585906496625,11.521985362508067,-0.5916926038059006,0.2385643521244184,1.1966803036385558,465.7715199361101,526.988888335475,523.7281797224712,jog
17.2787979966611,1.6354912446901508,0.993062592898063,11.984844746079576,-0.5369248739610631,-0.4074121748713828,1.5368722381668967,505.56196720688996,503.5869656809159,439.48741557132314,jog
17.328881469115192,1.358232853490631,1.1312037825650223,10.755734422814923,-0.4475952050941331,0.16188018690559966,0.005080609758867818,478.6539534831967,504.87725872852496,497.4037715622667,jog
17.378964941569283,0.7308414226006492,-0.4753615760636745,9.161919251191758,0.24314347892198285,1.1177700436000513,0.42488274340122667,480.8856242676066,475.8404534517224,509.5665188301907,jog
17.429048414023374,-0.28051088045259986,-0.22185163982195932,7.864688012134531,0.06361408907428942,0.25095049844200606,1.1821565110661756,541.5114938688733,574.1596958850521,495.68087472862123,jog
17.479131886477465,-1.4410167442614856,-1.0679455131000206,8.078582428582964,0.5309705193125716,1.3863741239795948,-0.5966465130705352,460.48345120534015,589.3242755944227,500.4043674236178,jog
17.529215358931552,-1.6862202288235877,-0.8445719348742811,8.365497834464172,0.02353053173547183,-0.49650305861330174,0.12195436474011344,480.62084956584846,554.7054091076626,484.7561135540057,jog
17.579298831385643,-0.26650794157694924,0.2505234429233646,10.203761629356046,2.4504912905647522,-0.8832441157534112,-0.7418259450541007,434.12645350217133,526.6422403958419,470.854361223783,jog
17.629382303839733,0.5119576529141325,0.6404588877459443,11.75912209395535,-1.601369995501226,-0.0031494824474493353,0.3586438599983123,558.9914987911039,479.56459309538286,511.4178005597343,jog
17.679465776293824,1.8158412791737204,1.106205419540216,11.892681239981343,1.3828608037036938,0.3369008221824379,0.15590331246058892,554.5975952652882,505.644338587764,495.01561982921777,jog
17.729549248747915,1.7749134706657719,0.5049399608917373,10.946026022311449,-0.103007773069971,-0.5150857422627083,-1.0149322607548998,502.8128953045991,539.0496343075276,497.578317605779,jog
17.779632721202002,0.8754329519428646,0.05843241544065577,9.45705422029492,0.377426839150741,-0.9371692765187295,-0.4493127940829191,470.4368766307107,512.4446597768818,505.6991967370283,jog
17.829716193656093,-1.2860004621729058,-0.9564570067721858,7.435917902270135,1.4269213692342002,-0.40531998616887643,0.6944017696007593,481.7569932012336,495.6365535232031,505.7285885238728,jog
17.879799666110184,-1.6934399718753679,-0.9211640845327043,7.7886858989594066,0.1766043820134371,0.12365901182479881,-0.722380725974867,543.6986336839673,520.929986813813,541.364571212112,jog
17.929883138564275,-1.6378330615728411,-0.6320848205573963,8.6137301333369,-0.6538173903487725,0.10540047875419505,1.4172764906634578,600.2572578718474,495.19645624152275,536.597972808305,jog
17.979966611018366,-0.8343361649359573,0.04189194311355711,10.4286454672467,-1.5280511294832064,0.17403426502444294,-0.5827604636837789,482.4442349406006,447.14141547591737,512.7394570454071,jog
18.030050083472453,0.6297850740854845,0.7853309219897429,11.9936043072171,-0.9840320271766548,1.2327375373273648,-0.8954462974980786,483.8710646616659,414.37522310527294,497.1680600264513,jog
18.080133555926544,1.1405122859327657,1.3418166677785843,11.856210884718793,0.5614617863444566,-0.6393865449345015,-0.1828976516004019,581.2560667941846,475.01195861181134,536.1810999981521,jog
18.130217028380635,1.7488210314676684,0.4386908316170746,11.47418861309362,-0.9703887609727292,0.15786314741325405,-0.4613457786726143,502.4396684107265,526.8908253425293,529.2740641006905,jog
18.180300500834726,0.3942280736198323,0.3960201559316735,9.41828872911112,-0.7191217809690975,-1.5776233717709762,-1.4564063624197672,542.3496496610583,466.6856888485786,522.8857592581198,jog
18.230383973288816,-1.0941705366580685,-0.3709079936171084,8.156318938777693,0.7203332594646858,-0.25370154867623973,-0.2649417804407228,543.3335385402788,525.273419251988,481.18425722514985,jog
18.280467445742904,-1.9186549669671136,-1.0730645156983554,7.899266955498587,-0.01379773117305437,-0.11985911422053601,-1.3984337484215932,475.18698316010756,538.9588317661627,455.3039474272938,jog
18.330550918196995,-1.632903567781645,-0.5878704311649281,8.816665084860311,0.8090347086184133,0.8973660121110906,0.7530490732055654,533.1473668727759,506.0931746191367,481.15457867135797,jog
18.380634390651085,-0.41500162949115404,0.2878059565444154,10.619560679264687,-1.0815619229975189,0.3789115804528977,0.7039608315882319,529.5992048357368,546.4735107018771,462.63713539025747,jog
18.430717863105176,0.8392276889012139,0.8026922216183663,11.619998106944012,0.508034184060343,0.1452143193652933,-0.2740081987668653,486.91441470758235,564.6729084632868,476.807075480703,jog
18.480801335559267,1.83174441581883,1.6998311678144404,11.44591462198606,0.10970118273112985,-1.1477998360452466,0.31561744186898716,474.60946786127937,510.59180118520726,476.03209603525625,jog
18.530884808013354,1.6174507775386193,0.7068818589493369,10.73821091469209,-0.10602991830061231,-1.056906324350182,1.0470952188905989,508.25550420553213,495.23442941135266,471.6784666597199,jog
18.580968280467445,0.20046016862364102,0.1335318180830839,9.339952515888037,0.7331000569763275,-0.48243406455522886,0.42467376337392093,487.673367616463,490.27022791661284,473.8882623714079,jog
18.631051752921536,-0.35222158204386467,-1.2431642838305035,7.898263799105073,0.30529662551807435,0.4948419015675228,-0.9500392053013101,494.5373713128955,530.0755119788114,554.3451015748774,jog
18.681135225375627,-1.7154501129165967,-1.2379432430802082,7.025850089405594,-0.8209630720898494,-0.5430628956982141,-0.2725665057025067,532.1608536742201,573.9514719772194,524.1476262981732,jog
18.731218697829718,-1.2059654107965723,-0.8673188396792528,8.868683793439338,-0.022092937418921092,1.0384267377041414,-0.41817965730283047,466.80500154768396,576.8811154019544,434.4340448410557,jog
18.781302170283805,-0.6345540930115103,-0.45856864276908466,9.953941637737126,0.32279313124001785,0.5893980508934819,-0.991067040350418,429.8054967968907,509.3588008191936,496.6717834705517,jog
18.831385642737896,1.016387418765903,0.41360661788036945,11.740579094865886,0.584549130971821,0.8125766655684957,-0.2049901510107123,577.7573400677853,525.7623738019013,516.9861463627055,jog
18.881469115191987,1.6462038317692071,1.1312984437523574,11.52272010938143,0.1783698986890101,0.6602668931390223,-0.23925680707305055,514.413877251458,526.8256304200164,588.0150473980124,jog
18.931552587646078,1.7122556790965036,0.9943956324653505,10.696991686697597,-0.24160425098139246,0.21438035358119684,1.0030333339946051,517.080428102515,530.8696023589832,547.214332349721,jog
18.98163606010017,0.8106532751696516,-0.09636712283671917,8.610997789781214,-0.7783706268802911,-0.31298501177805016,0.7870457461748233,559.9056511504,504.07915795096727,547.9909847290537,jog
19.03171953255426,-0.9854955278108652,-0.8148387599165843,7.916710269235646,1.1227899372738694,-0.34599775087472695,0.07217252658022962,456.4941509708536,463.9245168351368,479.78153754555433,jog
19.081803005008346,-1.7237055226432285,-1.098493987451773,7.86038115287836,0.42248657261465855,-1.7740163411906509,0.6826692753123946,567.8271998459363,550.8391995636063,483.87057990937024,jog
19.131886477462437,-2.347073325547543,-0.5735163387805249,8.756907869854148,-0.2314660379861511,0.6080750676806711,-0.004958259574431632,559.4883988666362,527.7784903945045,517.7142932320957,jog
19.181969949916528,-0.7048549939374973,-0.2034765825674743,10.241622429757998,0.3227348990202741,2.1654821945313025,-0.5141030379634655,495.3001620312196,464.15278796678433,511.81810307536625,jog
19.23205342237062,0.6048452300159481,0.6744433425301135,11.95213554468213,-0.13767193677066117,0.9441890188770738,1.4539308043864039,461.5940621637642,587.4421672357213,419.0857829129231,jog
19.28213689482471,1.6824092455418593,1.1176022533326968,11.737612943943404,-0.8218042259134966,-0.32726057526946206,-0.029121859958109036,485.1903274338459,452.6037507507085,530.5496237118691,jog
19.332220367278797,1.6567086831562592,1.0309023712534087,10.682603302459698,-0.4475410501020903,-0.154098027321322,-0.9039955374086261,539.9763998966154,472.5216765774799,528.8573348696982,jog
19.382303839732888,0.42033632987715813,0.14609560630560847,9.144950602038637,-0.28333121692165913,-0.6169482954530859,0.7864209711562616,512.9721884976049,515.6927784072008,485.0551460225899,jog
19.43238731218698,-0.61997342426334,-0.3396954475164462,7.875207842895266,-1.082444856877665,-0.8460870909771169,-0.25083480729463886,543.9041961317548,434.14053966941606,488.1059766119793,jog
19.48247078464107,-1.6112353782994537,-1.184163751689193,7.455950406138345,-0.2960183230833402,-0.42705867785822865,0.0988593964036837,510.013074809032,519.7997613698957,512.6667654074041,jog
19.53255425709516,-1.4691285934361193,-0.4481601390987819,9.183639311451996,-0.1367737265839146,-0.6705977251778201,0.08046688626685554,470.20952159791636,444.7426427873805,454.80832692143167,jog
19.582637729549248,-0.6221557710848533,-0.04644653379337872,10.42054281807625,-0.7142245403038457,0.6945023491723616,0.7917653890663714,489.641805310892,535.6396721680848,553.156213048517,jog
19.63272120200334,1.0078722174927246,0.9925067449081237,11.922259117925597,0.42898376715365594,0.9977190992959982,-0.6995888316756257,485.2494338553593,526.1976498212973,561.2048380595736,jog
19.68280467445743,2.097738016739756,1.3791042131552727,12.010174150578194,-0.9438689591094193,0.48161765208540647,-0.3665827556002389,538.7066694048893,530.322313006127,487.54408229853084,jog
19.73288814691152,1.6857681756609766,0.7729497211645753,11.410540770109943,0.3284991381194705,-1.1779794662086913,-0.947530094728893,516.5497833970668,527.7112771936424,551.8792715185609,jog
19.78297161936561,0.44284605675257166,-0.9050109653166072,8.904898635674835,-0.38700601181263145,0.6460067097775274,0.744270842878868,459.25449763449103,468.11367571227913,482.97579237774085,jog
19.8330550918197,-0.7786272548712683,-0.9963100648529009,8.188111026325542,-0.1293903694759594,1.0609127379022583,-1.0550497115339352,475.3986853337721,467.46827154020394,544.6705783950379,jog
19.88313856427379,-1.4988495391391847,-1.0702238155196582,7.780107403435048,-1.620862966901428,0.517218867321491,-0.6561398793210502,501.80158308945414,452.9430292231315,547.2263696834957,jog
19.93322203672788,-1.601512893938779,-0.09300748931840352,8.976397815948443,-0.668228665081498,-1.1706246186592122,-0.006791624770319845,500.84947694187053,453.197002856953,466.46445068687814,jog
19.98330550918197,-0.05689092830534359,-0.08401744290522345,10.305799354017264,0.502720030243425,0.04281332022164067,-0.28996862797250367,576.1442471571937,405.32683031788014,503.62125570910297,jog
20.03338898163606,0.9883855463784738,0.882787470144337,11.527281458742536,1.5679715906537313,1.808747568355944,1.1597267814317251,490.89169050496565,485.35049543181304,437.67548939856624,jog
20.08347245409015,1.6672762755029296,0.8901217982216871,11.770152033671742,-0.42102838108461715,0.783421897578629,-1.2876525562887997,584.4133869387997,559.8792645647911,468.21416689544714,jog
20.13355592654424,1.764588589952843,0.9843779925042151,10.691915332125868,0.199067457669229,0.35913265607430167,0.46291679130940216,514.6823227561804,452.6812467277122,470.4533321250341,jog
20.18363939899833,0.30763541247351395,-0.17758038637954893,9.219882588331853,-0.6129878613786464,0.8095942908447034,-0.8104171456594511,530.7147623896407,517.6860740150111,496.6342722442156,jog
20.23372287145242,-1.1409897174850256,-0.9998672664990713,7.841914057815847,0.4769432452484757,2.1502378448471173,-0.35052240571635906,536.8541939247937,448.2258396027728,536.6431200635366,jog
20.283806343906512,-2.4356749450944535,-1.0128998730369636,7.9136664286373835,-1.4121230157726141,-2.0706753650879373,1.5477558290520506,534.3777969191581,480.4699612830352,474.3421199346746,jog
20.3338898163606,-1.3872596826227217,-1.0809740037278586,9.128012738271506,0.7232137450582963,0.20378615938516095,-0.4769530639078621,532.5641863489977,539.2756470096824,478.0369508652702,jog
20.38397328881469,-1.0232893608677796,0.00040702810925030003,10.786620292575876,0.09308502741906367,-1.497544348278814,0.2364784298967137,421.67707317539686,510.1217527177185,503.35477105005305,jog
20.43405676126878,0.6339851463550377,1.1332200424036196,11.816294326785593,0.346985483769803,-1.2196411992484526,0.06957638886550854,453.2302305853144,446.1232967196634,472.6436829701506,jog
20.484140233722872,1.5798417761520238,1.2466619801165713,11.790290787690452,-0.335303645363075,1.067332837580497,-1.239159283934098,491.4695114585369,486.475097040336,483.67931329931076,jog
20.534223706176963,1.753051382925915,0.5951905456605078,10.518590302889008,-0.7974152952006063,0.26958541463136326,-1.073363870217484,425.8702896096137,490.09985993908083,505.58575538634227,jog
20.584307178631054,0.4016008885826164,-0.6334250067333838,9.732779292974588,0.6811293949565361,1.7727843233867242,-0.875957995762616,421.66856501427884,435.3825137320068,479.2303931569564,jog
20.63439065108514,-0.6920249518821249,-0.9824046428089137,8.03855958001765,-0.1386455257330646,-0.8436403126028083,-0.23684178635276198,538.4147216836251,564.2926756887881,466.2160314720679,jog
20.684474123539232,-1.6544117672349126,-1.2285066928761856,8.332954804917529,-1.2986897863881486,0.12618780817689101,0.10732431103686642,575.7601010704846,532.5571507647696,502.5426479211677,jog
20.734557595993323,-1.4534816599058644,-0.5774761095105085,9.248617899781994,-0.5908304249416166,-0.14769277653860063,1.4701004578251913,501.01761047196896,520.3987306704217,433.18724782303906,jog
20.784641068447414,-0.654700867036222,0.1737949290744964,10.463980163553497,-2.357234781009634,0.6048317999162198,0.2866511253437244,458.635669057508,487.07013954448246,495.1423348453866,jog
20.834724540901504,0.7121681794670786,0.8611843572373059,12.039591921804359,-0.2272386016153016,0.23692070108307017,0.4216309271661112,411.69316732013596,513.7966648889259,510.0258256194927,jog
20.884808013355592,2.0342004857929616,0.6821266524305996,12.00446375365256,-0.5530623109546176,-0.683202860893013,-0.7752984824961271,470.5771722096385,534.7566542593659,543.2498073225204,jog
20.934891485809683,1.3040645369753685,1.1018073002098536,10.590133751155669,-0.157700822433455,-0.238176839703181,-0.30240491845811474,438.29664604328434,426.9773470546937,464.64621739597715,jog
20.984974958263773,0.19241355900341717,-0.25861768636754523,9.204736578560423,-0.6374541845845735,-0.13699090971738595,-0.09016505663156729,533.3427363609248,442.33967087042475,497.6141183217757,jog
21.035058430717864,-0.7291377571916849,-0.9886887391485801,7.574897645621025,0.7054039389335361,0.8316208894211504,1.4852151074880167,509.5981202514323,426.2882065079264,462.9712094484743,jog
21.085141903171955,-1.7282911605199667,-1.1094624246651545,7.85042676894937,0.46935378042196146,0.5510749446233688,-1.4317123706926949,539.4690834258708,536.7830614777077,471.1385850830165,jog
21.135225375626042,-1.1232190805257738,-0.28988934152237966,8.990139336149593,-0.1624267773528212,0.34383092965757683,0.10582812935748254,517.2348685141443,513.5845206718893,475.9059148059896,jog
21.185308848080133,-0.03631428434302547,0.16170819882775558,10.449516590347713,0.30950028576629135,0.6476192195920953,1.3989762139043265,504.7308519826981,469.2006651385868,440.92045152603384,jog
21.235392320534224,1.0956933202185808,0.6844344831144507,12.13202012829444,0.7956613558943798,0.8729739520335378,-0.9957176103391202,396.254558122846,443.4610389592005,550.7546974561918,jog
21.285475792988315,1.6875377310949122,1.3264582217488992,11.957001119860903,1.0520251959016411,1.5296679001988245,0.015353985495241808,521.1140773105195,494.53797894107163,479.7499186835608,jog
21.335559265442406,1.5259008270899734,0.7382983307063928,10.768940060108767,0.686708036604018,-0.48886535250607915,-1.272131918062262,496.71116533252143,498.32489872106,445.39662515406593,jog
21.385642737896493,0.1047988903088974,-0.36038699930091406,9.065236412654956,0.6398511699198091,-0.31344111662295987,-1.177863011847173,441.4301565249782,528.606119360371,559.0348959612152,jog
21.435726210350584,-0.8084259892694379,-1.0231772907762506,7.904479042437578,-0.8276795599344815,-0.09133937797223188,0.31834597374126,535.4466088619236,608.3517165421839,499.8473900401015,jog
21.485809682804675,-1.7470256020065382,-1.0213891786335676,7.7314862804636375,0.021548799021314503,0.1657962378622151,-0.6248569091429221,472.23025085583413,505.1603211780604,605.2335713620148,jog
21.535893155258766,-1.4327901892555874,-0.5632434941088851,9.114774759660962,0.35078120941065555,-0.13930342201843948,0.37500556953574793,535.3991783201692,490.50920847071745,479.42763669619933,jog
21.585976627712856,-0.5221224853326983,0.36271008103082103,10.72253153490949,0.6067857916277852,-0.007908007503344394,1.0144897468806466,507.4737751607752,586.7877904559933,480.08017950761894,jog
21.636060100166944,0.8828691218229288,1.0360176309057523,11.999773073965502,-0.4295565008272418,0.1399476951528403,0.09636603475946653,503.9408474692706,496.53011879062853,437.9211757444383,jog
21.686143572621035,1.761618965823264,1.168550976872957,12.06584011533004,0.5072435362910456,1.5115007927057704,0.367331713166155,490.96154337358826,451.0255319186458,537.9712461826726,jog
21.736227045075125,1.5360727081188865,0.9332764595274656,10.830438155807537,-1.4541886347549382,0.9296574842469032,-2.0396092364392056,429.175672170802,489.4170386125901,541.1565542144428,jog
21.786310517529216,0.385486559421358,-0.12613659079228368,8.828076079050245,-0.009222926202785907,1.2938772748573473,-0.5308764573743383,567.781106774549,474.4248180937801,513.8608034651807,jog
21.836393989983307,-1.5036304817621642,-1.005532643079478,7.161348030489652,-0.42665711375091236,-0.005636990178058201,-0.11884581678694298,501.38089651764165,466.6232326549649,553.8066265837068,jog
21.886477462437398,-1.8233468831377213,-1.1692696110556131,7.404353979303509,0.06751754153916405,-0.494284300755944,0.20682531475170207,522.9515057012662,518.0406836574427,469.54526403648134,jog
21.936560934891485,-1.6925114156551018,-0.8520303554439499,8.951873945475269,0.05426919399418192,-0.7830007454001792,0.01563827372942649,423.5557680610958,519.3015274526459,518.2444484058553,jog
21.986644407345576,-0.18147569353565204,0.009113456279474505,10.442450527175351,-0.9444781652379065,-0.6056083641954035,-0.31236843406466924,500.87591960318446,565.5912240161891,413.4902416488437,jog
22.036727879799667,1.0326994366978832,0.9967804863206826,11.638916558104947,-0.2138110753486263,-0.3839501674181104,0.2315015979596945,507.3882997845099,434.4674548650803,472.3381505219251,jog
22.086811352253758,1.7171858014250705,1.3538788546266254,11.704644617469368,0.344176932534166,-1.0347394038591178,0.17518322922128987,554.0878173103836,552.6434235452333,519.5249015735405,jog
22.13689482470785,1.4544654552969938,0.6763610017750832,10.686314241690127,0.08362273627179188,-0.24985989308445078,-1.3323757101456535,442.620718611734,448.29324507434467,530.4270040195877,jog
22.186978297161936,0.14066906284355152,-0.3035840101324504,9.323874557023606,-0.4345516880265948,0.35444758567092877,0.7185208836425091,525.9672273393451,513.4069835488344,571.2527190832866,jog
22.237061769616027,-1.251575460455887,-0.8856861827375784,7.539710099398681,-1.4035614433279293,-0.1999543844508883,-0.39436337711539865,481.425432842691,486.7217835184946,484.2708887496722,jog
22.287145242070117,-1.5195521910080116,-1.0665661899599248,7.854328096802802,1.0758840618391732,-0.20976434553422013,0.1378747022094624,575.2111200044486,438.1783714969219,505.3205923624771,jog
22.33722871452421,-1.1695609975201338,-1.0574559620028985,8.906374024794973,-0.9329468828647655,0.3364791120376776,0.16392843886401953,518.2230661863756,509.2369826927603,521.9286690015031,jog
22.3873121869783,-0.06052949901211918,0.19780878176313016,10.98773317798634,-0.1039573571365866,-0.4605593643600511,0.8748986264373448,483.57377190913627,453.69132074355144,531.0761928287541,jog
22.437395659432386,0.7634798523494618,0.6045705237564984,11.396876247150558,0.7038147061380454,0.4807648328352242,-0.527678846114822,464.47697214350444,515.9964957123892,486.14642429591834,jog
22.487479131886477,2.0762934617080218,1.5799999226092378,11.744174667412318,0.13112862017785912,-0.6956549148857074,-1.3044843682263385,522.2551967375658,447.421417379937,480.2412463276312,jog
22.537562604340568,1.2343297542270384,0.7710380159468058,11.167658983252762,-0.3598370520264035,-0.17277354379401266,-0.19352487825629142,461.92170794703077,552.5154385684096,507.41840185354033,jog
22.58764607679466,0.2846626738337597,0.16783161816476094,8.903588194025703,0.5876872049213022,-0.5211796519648432,0.9550109672589884,527.9863795902545,507.0037132742216,498.7388207157735,jog
22.63772954924875,-1.1232350798175066,-0.7957390152749044,7.591607416072454,-0.8199477839083484,-0.8146561473695642,-0.6570292781754464,530.6149996728307,479.7185386559494,479.6342125990136,jog
22.687813021702837,-1.7340264641741678,-0.7793971304045146,7.928621671902756,-0.7270700623200146,0.489895878045333,-0.48368576104271116,557.5337958991242,488.10467678211376,568.8491149017971,jog
22.737896494156928,-1.8316281950294238,-0.8132780037871463,9.100835285213384,0.14597504321386937,-1.0649173200559665,0.3669252260460126,519.089544350936,499.7222631279078,500.67896278647265,jog
22.78797996661102,-0.03499408280408012,0.324469992419695,10.491290614321732,-0.17976877735228464,0.3575353698296528,-0.21662846166655078,519.9982100069411,604.9393141471178,470.6619249772791,jog
22.83806343906511,0.942761263279975,1.0050100857903366,11.697316971039998,-0.23551183368783052,-0.6729518684637582,0.10857416007141561,546.4300563032514,531.8954651852098,504.34333895413164,jog
22.8881469115192,1.7931191698964621,1.3957690722359282,11.634369436347312,1.1733465072629397,-0.03657951588421769,0.018020231722280303,501.0257361699029,513.9013590138326,474.1718628444644,jog
22.938230383973288,1.247349797829523,1.0664126737744035,10.058823703833646,-0.5450965880500855,-1.6061452852645504,1.4969235292361716,608.1481384047779,498.1107231543978,422.37710556243655,jog
22.98831385642738,0.37684297671016875,-0.1289572261930972,9.043998416116862,-0.16006427137920495,-0.7333133644165601,0.5285158575322879,506.20889227867247,516.8594269546052,501.39646340158595,jog
23.03839732888147,-1.0364973954148928,-0.8809649748151152,7.390277316944959,-0.147107756000202,0.4015182346103313,-0.30998243437762574,559.2912272965344,505.9901547390477,549.1468602456893,jog
23.08848080133556,-1.329138506278998,-1.2339901582016728,8.094408877219694,0.4975067134577082,-0.007239887543684588,0.7148853586569607,554.0335432230403,480.58106197257933,544.7728360662254,jog
23.13856427378965,-1.2357835216883688,-0.8302774961314721,9.115394822560999,-0.5532888629594787,-0.2597501579321146,-0.8450164827477403,446.89407558634525,535.5166749474326,485.34787684285897,jog
23.18864774624374,-0.322941179185314,0.609109213057976,10.746649980662886,-0.6339285958259967,-1.1009382568820907,-0.8168878376599936,458.6210749197622,489.46961025712545,575.3464338580732,jog
23.23873121869783,0.7658907823969424,0.7396319758202532,11.74256985703865,-0.0657228526347856,0.521102594476625,-0.4446378854145778,506.11444870658545,501.6493289010828,464.71574147113546,jog
23.28881469115192,1.7297886626085892,0.9717745937950528,11.540180917240132,-0.8226387050247678,0.10684805481373776,0.17407400348586688,510.2999219840588,442.5430440103228,504.3075222795941,jog
23.33889816360601,1.7816666746648364,0.548135735658447,10.68596478583427,0.6546135788655402,0.6537808325779064,-1.2323426961260802,531.1664532641295,466.50529507218636,442.6159768340487,jog
23.3889816360601,0.5110255986237527,-0.3011845132635268,9.21491329172824,0.13631506651618477,-0.14497288887391957,-1.105004132301055,584.8774867892337,473.90533133461986,487.60326423646046,jog
23.439065108514193,-0.8600207394522285,-0.697977895293777,7.560941591569414,0.351935794863891,0.009468610917232858,-0.7882885054396742,520.2047105688761,449.1925480663584,532.5981720223863,jog
23.48914858096828,-2.2098301437758945,-1.2254442091033555,7.578263449272466,-0.9243594870052999,-0.8936144027736628,-0.8264221015950606,519.5999152070546,558.3021103245663,499.3848139788894,jog
23.53923205342237,-1.5003530498614241,-0.6625733023827773,8.976487468720254,-0.23784490137666398,-1.3695281572164617,-0.4932522087062831,554.7562026800449,525.8709313901958,470.1539713534672,jog
23.58931552587646,-0.17132494964312703,0.6568334119360786,10.372740794735632,1.5833985521050278,-0.23141218075074022,1.022839160270706,490.6297711061455,491.2764118304577,539.260806334464,jog
23.639398998330552,1.3455941057350513,0.8507748345358097,12.171496026961671,1.103334862636808,-0.4401849825957718,1.247428446400279,490.976071908105,463.82137765947425,487.4089229583393,jog
23.689482470784643,1.340257655077142,1.4040829817683242,11.888594163552566,0.9875814092885514,-0.12506361440923555,-0.45822091131034987,498.79975333154215,493.9021539923036,488.3943268936719,jog
23.73956594323873,1.373210767846905,1.0007631744844279,10.57117568752733,0.17647742515420145,0.9051236283188648,-0.6930820990730789,467.0270242855236,502.6466703651535,471.89508187014576,jog
23.78964941569282,0.40590632827951956,-0.18774356777159043,9.153731012490459,1.7143056376076165,-0.13908963831907523,0.23512272442778825,461.7460203108984,442.3459795314764,435.5652258901279,jog
23.839732888146912,-0.9457775168964072,-1.1036476690624504,7.300356403678922,0.9004010291606621,-1.1003897555654842,0.12117456454402166,507.8475565915872,516.188688765743,456.829063782236,jog
23.889816360601003,-2.0513675920298207,-1.1464647615347805,7.813109055285702,0.46063102940741946,0.7715662430660519,0.29069742987549524,493.39126502557616,480.3892161757942,556.5496578150701,jog
23.939899833055094,-1.4950075633455653,-0.9694994518212654,9.254334170706978,0.7225925583031196,-1.230928174494644,0.6164472902937178,591.8343339306319,486.4399515657843,529.1912833590341,jog
23.98998330550918,-0.40031920333611626,0.37551058984824537,10.933974947410873,-1.3051138354751408,-0.06661270106913882,0.4790629367391247,511.95878010832564,478.7838214968553,471.66721124311533,jog
24.040066777963272,1.0538788845000184,0.5872174513369752,11.637605022628156,-0.13389732149771827,0.06595022299168408,-1.6577574162665814,505.472819868813,453.7186789553129,532.1795410390174,jog
24.090150250417363,1.8689169631928146,0.668025848267721,11.777212551449443,-0.5928744919028986,1.241332234423558,-0.20100802228882467,432.4738064894926,500.85208058438184,460.92514095131617,jog
24.140233722871454,1.602676104735309,0.7384684777787913,10.226771407712139,0.31544410001179546,0.18780630152714634,-0.49571756770771824,449.7385924696053,574.0778800786061,513.2211694983926,jog
24.190317195325544,0.4462889383265632,-0.3063865279033925,8.983882178660453,-1.4080182862323758,-1.0672413534743237,-0.277576873678969,475.8463654360587,466.69443469345543,447.8308356191332,jog
24.24040066777963,-1.027222420930585,-0.9310661085529077,7.842532353715897,-0.9157500350507529,0.7201159393143581,0.8243340915466785,532.8975168150123,489.28734080470826,439.010084563774,jog
24.290484140233723,-1.5791234487135157,-1.182285351569316,8.079065950124491,-0.948194708563953,0.15396610747994738,1.2220810341958495,528.1124895389894,465.44951991916736,453.9387187195772,jog
24.340567612687813,-1.3388864452823206,-0.6629938783731304,9.029847413953663,0.5080114756509657,0.3664311406199368,0.8912939234570088,537.3139992385896,475.82894150886915,569.9108833218065,jog
24.390651085141904,-0.3116587987625178,0.05358877076478269,10.66537849894668,-1.2064162232897262,-0.2970768211794354,0.6147661551771827,485.4700317190602,502.2546779529187,503.98375257184983,jog
24.440734557595995,0.9800410442318946,1.5757552045171046,11.699222304609759,-0.7833026873225323,0.6362690169541972,-0.13855082075931446,522.1969015185056,500.391359945759,498.92026056911817,jog
24.490818030050082,1.8468475953004169,0.8590421239421977,12.000680226693188,-0.3100846877940999,-0.09890998064312374,0.3590432703133205,448.069413560935,512.452045611903,436.3563693134403,jog
24.540901502504173,1.0996213131953383,0.9171812058922435,10.145130621078525,0.3321585819532395,0.5970443869924231,0.34753442335677526,524.6851512024888,514.5566988085053,603.954832893671,jog
24.590984974958264,0.4162994331357359,-0.3759254340211925,8.350025382124588,-0.06163212235379238,-0.17540365743957734,0.9077925521119705,509.9308671706709,547.516752893646,556.845091935166,jog
24.641068447412355,-0.6766487140113302,-0.5744449723329814,7.523624551331073,0.5578999080772773,0.6913461411764452,-0.477023594543037,476.08868615090387,504.57576201126517,542.0174765619234,jog
24.691151919866446,-1.6970243129797855,-0.8319791240983063,7.838735302798084,-0.6803056773408329,-0.3396514846217865,-0.26705351513867004,503.863573530152,502.2719990014624,516.0563693323143,jog
24.741235392320533,-1.3122624757441088,-0.518791680454568,8.899859032855286,-1.0108868893598952,0.1341350694232182,-0.18444196471579982,395.13761092151407,497.8338381488907,418.6273044181166,jog
24.791318864774624,-0.392534549092354,-0.14478249288758127,10.959572966465453,0.17441816645377387,-0.0943050484343113,0.5182172119052412,488.71511268429305,493.4526685459124,506.21083696242886,jog
24.841402337228715,0.9431972731475372,1.012306981733986,11.862199295193125,-0.3031667297561949,-1.4483346684206146,-0.4113569126323609,500.28097411051704,577.0474919461659,460.70109686283325,jog
24.891485809682806,1.5048572473500834,1.2060203014307675,11.913616974390456,1.5124520357186235,-0.48899312889008656,1.6826534435581497,421.4016202609881,505.7695411648481,484.9238025029487,jog
24.941569282136896,1.1486184930000718,0.1740839049804488,10.399893432455562,0.18079467579991523,-0.717038263556481,0.1009701083369713,467.6485365629515,539.5534020572726,491.3946518187837,jog
24.991652754590987,0.30486618447970204,-0.387031490607036,8.75139608993562,-0.5444903270988448,0.8582759963208926,0.23025351381892364,460.37445551702086,562.8453325924485,583.8050035442226,jog
25.041736227045075,-0.7166246190758843,-0.9382778043336071,8.194969980527246,0.5001713259060243,1.1825643942737027,0.571560875990857,577.8840914540036,468.72638759086243,465.4883952537159,jog
25.091819699499165,-1.551066075821496,-1.408828450136168,7.517793105276316,-0.1064536421192798,0.8026826647456762,0.8476274951217453,505.10713856360667,375.6712105214572,455.33544745741165,jog
25.141903171953256,-1.7311267996177617,-0.643536539185668,9.011169303532341,-0.24103622046764012,-0.3221983999134283,-0.22423232916676739,515.8631607916965,514.6962837612591,502.6704356326889,jog
25.191986644407347,0.09628384050231294,0.344756574635349,10.923340779551683,-0.21601781302298168,-1.5189285097559573,0.2550800521312552,567.4340837353055,478.17067656731524,556.21045598762,jog
25.242070116861438,0.7257240552143593,1.2415198664040459,12.253467788867258,-0.12021084908674136,0.9354904817670292,0.31005926913345205,453.36149894167573,485.3367608902487,531.3973503494599,jog
25.292153589315525,1.6485179100036578,1.0248653284348768,12.430594617442969,-0.7470590226518032,0.5748550609702148,-1.4523781556055453,479.7216130429122,480.8331395681137,524.3309542161245,jog
25.342237061769616,1.2531006875304371,0.7295878878980384,10.68603795006604,-1.0625694829947212,0.11144085645265103,0.05598872880107425,436.2224624191979,485.66695603821796,446.44650767530334,jog
25.392320534223707,0.40956009441124885,-0.19721835971978152,8.905875324796526,0.4090988304130765,-0.15279276249820997,-1.1549098584376813,584.3603373958096,526.3049940021054,549.7183150487651,jog
25.442404006677798,-1.1356118047376615,-1.2430825902650502,7.914904069457132,-0.24358532043853234,-0.4067603758439735,0.18856933574418816,456.3749051679865,544.2176421928475,434.21585091411976,jog
25.49248747913189,-2.286973359805943,-1.5244619760663616,8.165255534336282,-1.212371071248392,-0.23996618652701446,0.4695211078824164,497.98021649053413,508.42163111032943,466.9035309154175,jog
25.542570951585976,-1.2292252317164247,-0.5912042500904968,9.340244021601686,-1.0183383299334685,0.5216491722512008,0.941688561886875,567.1316944795763,525.4176182494612,471.9792553402205,jog
25.592654424040067,-0.4178096640036192,0.056415010077736416,10.716621625393843,-0.2204870922859856,-0.2413653225097269,-0.38404663128348443,504.45476991201815,498.1547152453417,475.98168834135754,jog
25.642737896494157,1.499899924209382,0.794716374943355,11.849498483981902,1.0152570807755708,-0.320830903454316,-0.04297490984164705,496.7180615911259,552.1920998663622,522.0236681327256,jog
25.69282136894825,2.185334553568936,1.4907236919849345,11.94867716255979,0.3238110226954804,-0.32720447107879386,-0.25619494234876233,437.2098555217968,517.7733104225811,527.9970091335225,jog
25.74290484140234,1.5465563325947844,1.121184298780543,10.471073981348326,0.6766268546981823,-0.2793484646755889,1.045373441412991,479.1412134512984,506.6110685896775,485.1867920718024,jog
25.792988313856426,0.16633986192654554,-0.45809367042566557,8.861932841460549,-1.0643280953983105,-0.6495818312889456,-0.34215464363504833,574.8597695720604,537.1858854742451,506.7441680802329,jog
25.843071786310517,-1.0949614697087064,-0.7453598880554249,7.393092413964549,0.08141818446999077,0.07319683298633649,0.016523793970318064,527.8200342624236,483.7169430527845,443.5150429347462,jog
25.893155258764608,-1.5082331574348173,-1.4351812488528055,7.911968068456184,-0.6729743844033039,-0.4908286955882332,-0.8964862296209043,474.54824105771723,526.8204591410503,486.8544074532745,jog
25.9432387312187,-1.3350360355676132,-0.3539666388293947,9.219654482832556,0.991357994422758,-0.3368524785420449,-1.618414183047164,482.72272314862664,443.7657645285496,554.4513585059651,jog
25.99332220367279,0.24983042171886416,0.08432440787221529,11.317902471323912,1.4973993790910467,1.0425518250702075,0.2755078186537717,518.9721256741683,575.8867800297401,520.7477367748476,jog
26.043405676126877,1.0019915648655517,1.0949191127378155,11.947278063062052,-0.46782912998624,-0.6657553860386352,-0.9048039226425193,563.845087536454,454.6912516715052,568.6011139647527,jog
26.093489148580968,1.9511124017595853,1.1902216237060277,11.346592800455388,0.16030946765251736,0.3547527821403806,-0.7128162462906938,482.1508484236332,464.8993734518682,552.6379478236297,jog
26.14357262103506,1.538321174605583,0.6999954218225002,10.82887680913985,0.17896549874410186,0.13672734190595823,-0.2763807245082762,553.3490716877197,466.9502034007107,519.5079027239282,jog
26.19365609348915,0.2644977328731823,-0.16550646470278185,8.814191475654539,-0.7391171786582458,1.0396293244477908,-0.06854597283163687,437.29507015827295,526.0265809210472,576.6409865996801,jog
26.24373956594324,-0.856314644905388,-1.1003450499310303,8.118732362264906,-0.8422829646438506,-0.42131692251976266,1.5383319300110623,485.8337178970774,476.53279543189717,551.9433185431142,jog
26.293823038397328,-1.7733743417723276,-1.0473958871651845,8.344323567885036,0.1915198686275717,1.1074400269260993,-0.9099458784937913,477.92059468003026,533.9489828068401,495.4966066773489,jog
26.34390651085142,-1.0745792611309022,-0.6444704814846229,9.126736473681747,0.6349299675705324,-0.33985518235186146,1.18750443561468,507.7650774059325,508.10371097771537,540.3345469593902,jog
26.39398998330551,0.0781457999908829,0.4005911337438284,10.966938675645535,-0.8048365341020483,-0.27046321883761754,-1.457053528146349,481.00310015366335,519.7528453564369,498.13886224249603,jog
26.4440734557596,1.0588061174606975,0.8068445200846193,12.04463649618873,-0.12303942564335897,-0.26443046324811953,0.26686342490439335,563.749479792815,436.4806516739567,456.22726869963776,jog
26.49415692821369,1.9993807288832581,0.7059622699268142,11.933369987795492,0.7434373129420658,-0.6497936125025853,-0.26309435456501457,562.3450425355138,451.8353305089336,518.6428817288792,jog
26.544240400667782,1.0926101178636118,0.31920148044776386,10.785790701575996,0.469597512789263,-0.16007538860709675,-1.330575405495269,510.5827527082019,518.9688042291998,516.4073474594128,jog
26.59432387312187,0.15791826994756952,-0.24436852142453785,8.811740941158437,-0.047942541782299536,0.20610063578401056,0.9205678662350251,449.67458137712873,495.754650557635,523.3330037878475,jog
26.64440734557596,-1.3749682526115954,-1.041441644687993,7.754087774867355,-0.11645745302082841,-0.22340944086835376,0.18650587529948506,505.2101016506345,514.9189347677842,471.5143617160827,jog
26.69449081803005,-1.5467296924606075,-0.8837705062270398,7.801186633731515,-0.024908763976844415,0.31915550911208107,0.3160030483979564,513.152851311303,500.21269724797617,460.2975563358968,jog
26.74457429048414,-1.6021565962830189,-0.8079664544026941,9.269932071826538,0.22180134083985953,-0.20616922801464072,0.1474437279216339,538.100591706547,600.7129279821703,456.52463393841833,jog
26.794657762938233,0.2176780712010078,0.3760990185877603,10.424910110036686,1.5231691550406194,0.417688568615282,0.6299559889762629,621.9530209289592,526.2697399353832,531.245235155578,jog
26.84474123539232,1.29945236166436,0.631400289501062,12.023901439204387,0.1523847037211121,0.12416776239469748,-0.9348000481401738,490.4629883373743,513.1727974424601,463.3225154416363,jog
26.89482470784641,1.9467520366853939,1.2133256690089997,11.440039054987547,1.129628228441135,0.9700481047836886,0.7343066663132252,549.7612044168579,470.7562802696819,510.5292803258829,jog
26.9449081803005,1.1224590798127343,0.6438404741877912,10.366296155633167,-0.3566181997796844,0.5850434601805117,-0.6630565554953454,497.55086109073886,618.1273530359435,530.1333974958627,jog
26.994991652754592,0.18609481307332898,-0.25501895510934225,9.096795410392845,-0.09597109872386582,-0.010969862746678341,-1.1602306175329673,521.4602690946956,571.6911712142785,457.81939443556206,jog
27.045075125208683,-1.319489333869637,-0.9736913641810307,7.696718774032437,-0.023383388211423353,0.22391158537748276,-0.35614809697372163,579.523483851933,480.39113073894293,505.55789175126245,jog
27.09515859766277,-1.680033490984108,-1.0302096153525644,8.06864002727547,0.5118481950381927,0.78789978253738,-0.906888979467533,488.6875147452674,509.24353018260945,507.6941357008014,jog
27.14524207011686,-1.646494725559499,-0.8011646688122729,9.167627662637159,0.3184739054990668,-0.42491839756359007,-0.15505304680623655,503.67957548429695,553.5251678593204,520.0413560760129,jog
27.195325542570952,-0.021085578152175627,0.8672683723085786,11.121309787986203,-0.37380274069140923,1.10659848158566,-1.3265031589348726,453.72299574797876,513.9990116955145,527.5263796341135,jog
27.245409015025043,1.059982363805982,1.3560111455358648,12.216094054896452,0.7118662979345762,-0.5963541440569141,0.5493108564944409,462.0747148782525,458.90014739974737,612.257334094897,jog
27.295492487479134,2.0595549591918223,0.7431397420961574,11.732079853455476,0.7395948885005701,-0.8394865930210555,1.405042728758231,519.361798786362,483.11506655845193,458.75184976161177,jog
27.34557595993322,0.9297294266232782,0.28140966156138036,10.075712090360325,0.4738505180110608,0.9987359692062657,1.660749318121322,538.2261478016367,476.8104545830045,525.6286487084612,jog
27.395659432387312,0.4156568984882203,-0.5157789952683778,8.88570900893431,-0.4495395612629723,-1.31967196402481,0.3164076648066537,506.5050998079735,465.51803279141006,542.1431963406092,jog
27.445742904841403,-0.7143237725436982,-1.5599381429591304,7.59057600386344,-0.6366893809274687,-0.7487362290086325,-0.28007426247226036,449.4670120199663,517.5813229669095,472.13505759804445,jog
27.495826377295494,-1.823756641371618,-1.1988942681295056,8.196425328497327,0.5803147450019412,0.361619950051506,0.3827371888948063,495.3983130115171,472.3705396483053,518.621373339262,jog
27.545909849749584,-1.5414302786623477,-0.6719047331672348,9.30680304239751,-1.310274369913285,0.31484772309200354,-0.3756687570395834,431.6734391557284,515.3910566540623,468.3506601640269,jog
27.59599332220367,0.12366951163618707,0.725206323252173,10.716559777327538,0.40540834411966065,0.1047115554113118,-0.6834915638062831,472.2336364986961,496.95833426463247,443.6484361080947,jog
27.646076794657763,1.6461313854683226,0.9330636085086774,11.979682453306582,-0.1483943214752877,0.10900706815339427,-0.5521575504832493,475.7804675147666,494.7557973359214,479.1934113269206,jog
27.696160267111853,1.60451798050234,0.8203746464608126,11.603133472548908,0.5582085792007928,0.22699704676369117,0.43951553554540895,532.8396621058514,522.3989523774594,422.94559282150624,jog
27.746243739565944,1.2768373522387282,0.45450893547234816,10.157138969561887,0.379554739588921,1.3892904858521677,0.670246120962291,512.4369705992357,536.630740265386,509.8647919551978,jog
27.796327212020035,0.1752399163287643,-0.25582828683289655,8.67577313636056,0.4703156276112025,-0.938950568452006,-0.7660492585496357,461.3573212064659,478.72327156863537,500.88346174006466,jog
27.846410684474122,-1.1897357606626306,-0.6807574990254752,7.922126777181055,-0.3147442668073451,-0.7396812392686307,-0.5943300719204473,555.406517658756,477.7604407640243,509.8238944737814,jog
27.896494156928213,-1.9445591602785843,-0.9462247988462718,7.822235296611869,1.117453883779654,0.20038953112629818,-1.0841026440259511,491.6181083824224,489.92738780436036,557.241865557499,jog
27.946577629382304,-1.332762512627227,-0.42328977021952185,9.664743541723771,-1.336116520851816,0.1392449503345611,1.1226669999643857,528.2122875937093,473.9279796293259,566.8627613119083,jog
27.996661101836395,0.0019023153161204093,0.37519762646143784,10.790161224922167,0.15803516127982978,0.3071313593875228,0.11835637918243659,588.1863681231312,486.7267812574438,471.80269062500946,jog
28.046744574290486,1.3898360794672664,1.222010374656127,12.039364591219533,-0.245481308139722,0.2961615624460568,-0.12350226635332795,514.9956394783342,420.5252575711353,580.8758705504055,jog
28.096828046744577,2.110398370360016,0.6595072326818114,11.744477770598353,-0.5041354994787232,-0.19175505236005863,0.9846814538741575,524.6357135439773,561.9320638480168,477.5857721433938,jog
28.146911519198664,0.7591374054013872,0.45291896743040105,10.263877758799921,-1.588045798407884,-0.9395564896725878,0.6534846382298597,556.0911242294707,534.9929744477097,444.6539043100563,jog
28.196994991652755,0.11261616339289944,-0.24816624546668425,8.889206879055932,-0.652849234476357,-0.7389813493165265,1.1241129165673127,480.3494165768061,557.4439797304015,552.7230493975889,jog
28.247078464106846,-1.311586800525506,-1.1480404043386405,7.495653449338033,-1.9721281474003127,0.42111769024689066,-0.5466681543540077,507.1337834681297,510.55568185561714,517.6813699535817,jog
28.297161936560936,-1.8864105016310453,-1.0507385463643768,7.719450787761063,-0.5595617547568522,0.20424148913497603,0.052096017787665816,507.5512429386828,373.94884570709286,493.69643908190955,jog
28.347245409015027,-1.2633560603265988,-0.9070031747851863,8.923800408857542,0.19519129272993024,0.5245873777850857,-0.7992671109649504,515.3689158603926,550.5345754819052,459.4406727032642,jog
28.397328881469114,-0.6857061081917615,0.1547463135083345,10.92490828209368,0.8085205071719898,-0.9112563692278215,1.9788364095964432,469.0527310530555,519.6327115764905,530.1311976963959,jog
28.447412353923205,1.1692695070764472,1.131613640606055,12.059555510187463,-2.387564141971416,0.014244391540468998,1.7430573773831037,545.0544547892936,530.8140299747524,526.4901643687175,jog
28.497495826377296,1.8009440181376342,1.3649145733694188,11.45542802775648,0.6325352551836747,-0.6528454864032898,0.5263754785721223,472.41873373578903,523.9646816859314,485.8898548276292,jog
28.547579298831387,1.4349149958341734,0.6517187314181923,10.246503840330835,0.42403825632494,0.4891282809084413,-0.24091651676946435,514.3283993141508,483.0223879283861,567.2863229069778,jog
28.597662771285478,0.17756483398762207,-0.036637426060998124,8.61227780914666,-0.9946764860577834,-1.1548679645872006,-0.10386622833875533,519.7908622134244,492.71440613611037,431.16824398544645,jog
28.647746243739565,-1.060845986415469,-1.1425761200945879,7.476912149628612,1.3465177818266174,0.5998151885163061,-1.3401315388353934,423.2167158364546,547.2368924644858,521.0238978272363,jog
28.697829716193656,-2.0844050260851104,-0.8224875116327608,7.723806185280214,-0.40611523386355175,0.37909057727735773,0.26639372537359507,521.1367351812878,490.872719310294,492.0108004455142,jog
28.747913188647747,-1.1605357611495402,-0.6790426899486786,9.291120491959806,0.5695120078722542,-0.7407986736841855,0.18685830261018102,486.12897423729066,420.8136580256405,494.1306427623495,jog
28.797996661101838,-0.018412418196080083,0.4286831868950509,11.346615466667439,0.16183947560834247,0.5559454989039903,-0.20608952506231892,440.36744487303156,512.2293606742223,504.71670180000183,jog
28.84808013355593,1.1394197916344981,0.7904747718007443,11.417400602809762,1.2654370170706803,-0.6757744119336305,0.7014989664597068,537.6441897734569,553.6171694752757,515.3406433574083,jog
28.898163606010016,1.5955786282392694,1.4716339010481314,11.40910456334584,0.31715081170773457,-0.4347001957450491,1.1973625082992734,603.6563581108154,474.7557153853245,433.67254807398365,jog
28.948247078464107,1.4260314382371708,0.42903042188223717,10.120211443627895,-1.152075755657715,-1.5609926863171841,-0.3340022016174442,544.6066663940511,529.7883843857377,479.12969307456365,jog
28.998330550918197,0.19929682636082346,-0.6148406657078995,8.598936265458322,0.004008414824893941,0.46119967442250454,0.2748078236400485,455.84544239561734,549.745096056036,510.4137926803992,jog
29.04841402337229,-1.0911998692667073,-0.9243332485138107,7.676858594055883,-0.35763037769560707,0.2823054941506579,-0.2994035408997552,468.7395845048713,518.7100452512793,493.0012021386631,jog
29.09849749582638,-1.363234525155476,-1.4894998360619174,8.178602003907761,-0.04810812026052107,0.046415941937960975,-0.5976934437000139,567.2045082965892,476.7666863022231,410.15339255688946,jog
29.148580968280466,-1.0741122549206334,-0.03647131188921526,9.683093078763374,-0.19535500919728407,-0.42541872283913623,-1.5325643767775519,585.0232980180407,478.91671435317056,449.1693839710513,jog
29.198664440734557,-0.17232772843922192,-0.20092467274647047,11.14969076363695,1.4219838063120036,0.47528534466977135,-0.6794591737806106,478.086456522732,499.4727945419195,469.4528051867325,jog
29.248747913188648,0.8527415096880928,1.6148823923653532,12.149187773481106,0.8730813804964296,-0.12751615921825407,0.25461781759795993,592.8074489750204,467.0852764297244,494.46509293414573,jog
29.29883138564274,1.5758725978539563,1.2015751971661652,11.632768439940795,1.3691100817610318,0.9084490193380026,0.38569789494570905,439.7915966211974,483.83052563371575,551.0820382301148,jog
29.34891485809683,1.4084516205939555,0.9661813226295606,10.378122423658555,-0.1485997194862495,-0.6119306411068083,-0.5490905957506785,586.7343060497302,514.6323688947209,438.8217637138311,jog
29.398998330550917,0.10692267389462097,-0.18224303955625248,8.510998826823943,0.8236244987446014,0.5815198895562871,1.2556143457027313,491.21908957259245,461.91466779815255,469.94084542711016,jog
29.449081803005008,-1.1354807263684077,-1.0414000230903093,8.018823235718845,0.7780339350914243,0.7433402570148152,-0.02710854030575931,520.741715958254,510.70137626997393,463.84642303420173,jog
29.4991652754591,-1.8463091068913262,-1.2252672878765292,7.7372642399715295,0.2678357408127677,-1.7358523021622374,-0.11508663076353977,447.6666037236961,498.1549163218738,452.94164410560217,jog
29.54924874791319,-1.1481343560318888,-0.5418159357182342,9.372691806797727,-0.382977753522891,-1.0346528358767595,-0.527859083801011,490.36021682274384,556.6431639265095,558.4841562430231,jog
29.59933222036728,-0.020786232627012444,0.26362272716908103,11.196582972278675,0.14510756566494884,-0.6320145449174045,0.6853444523551565,527.9209589373364,467.8261477454247,533.422181366341,jog
29.64941569282137,1.1932211420105523,1.1103069394378056,11.83451658221597,0.6503277248209464,0.39202901120983513,0.929078995746228,478.3501894210472,437.96577224808254,489.26357098416935,jog
29.69949916527546,1.7574547652233536,0.8523750278986622,11.807528639975422,-0.006904293553851714,-0.7305330701951674,-0.5597748829993349,436.7832609811751,517.6011452691964,500.1663581721728,jog
29.74958263772955,1.5192738458636685,0.5464201784543822,10.147730030309681,1.150965024826175,1.624036269234586,0.3241792075743077,549.711816197422,502.75700130264664,561.216923992666,jog
29.79966611018364,-0.2575536447349561,-0.6117652049808089,8.55609125802684,-1.4199217998785794,1.2928612576503016,-0.07659945263286798,544.1949305553562,416.6358344652977,516.3935917001543,jog
29.84974958263773,-1.0913120821677451,-1.0259670205980989,7.165943994557268,-0.03925376506926534,-0.3430149932650485,-0.8169637835389757,494.20097231368374,570.9006544181156,515.5171202248337,jog
29.899833055091822,-1.9239596722973735,-1.5236817244587446,7.987675137459401,0.2580168569506847,0.7623092570860763,0.9725131383005481,541.4739439727563,516.2487731408518,454.10693283315516,jog
29.94991652754591,-1.8031415888325135,-0.7420327550308341,9.822470372060764,0.21011136384556514,0.0009122405926508516,0.5548788738804896,481.22195976296854,447.0612883978052,495.96723027662534,jog
30.0,0.024545518320163676,0.3413724187522014,11.087093978249552,-0.3299760761401307,0.9706507028598222,0.73682902318042,473.42696464437665,462.14047563091526,438.78438108057026,jog
