timestamp,ax,ay,az,gx,gy,gz,mx,my,mz,label
0.0,-0.022104529695775782,0.020539442642918,9.805409065548849,0.1697567277539047,-0.17317599092545324,-0.3577849649089508,495.14333081692445,507.5178633954987,444.02648590510057,stand
0.05008347245409015,0.013132058223383827,-0.01620112764101639,9.800678986597182,0.1435413602258599,-0.040247433090728923,-0.05544072333554061,502.06205493976415,540.9211855479776,509.9787478125844,stand
0.1001669449081803,0.015877763314001314,0.01584070197311223,9.74785551157134,-0.20706294730241717,-0.4379631282411351,-0.026065274975831797,467.10256701502334,493.3352085630516,399.11627960296465,stand
0.15025041736227046,-0.013322854977134688,0.04008309077979694,9.817567407133376,0.24881321576455762,-0.11135300030065423,0.011858580165924813,462.8279309632388,512.5343179782719,491.03216517595723,stand
0.2003338898163606,-0.03048141348627774,-0.00025188590202640526,9.796715711850213,0.0056360711402519935,0.23814315483699358,0.022794290220825433,492.75560104467576,514.5566321015006,549.3163085243909,stand
0.25041736227045075,-0.009175028606799696,-0.0018885846270178946,9.753549610022832,-0.4305841657270295,-0.06029830438048945,-0.5109387234184306,462.86453181081396,508.37773499989834,444.37568572093204,stand
0.3005008347245409,-0.021481829574384735,-0.013844187776954592,9.850904977834606,-0.4349399554425484,-0.07011743986500679,-0.09153232917235331,490.00087145281447,525.7639547986237,531.8875592072787,stand
0.35058430717863104,-0.06130724570209749,0.006201685339920979,9.829175154747082,0.2805404449541595,-0.028669888960839263,0.046513769905940965,512.0425087752902,501.5870734348743,576.4252779683707,stand
0.4006677796327212,-0.03819864066962965,-0.008743722832831036,9.795135994952188,0.04795383466135381,0.2708452564526579,0.32213191016020315,529.748321717141,453.7699166504654,553.3253643572859,stand
0.4507512520868114,-0.03271011468181903,-0.01667726074790732,9.850192642314978,0.007004569805318002,-0.23360149851519846,0.46693447584755626,569.7346947039445,509.0314645454847,461.08100374588304,stand
0.5008347245409015,-0.03773725710896063,-0.0020415952209088956,9.78915496313483,-0.35480125756781244,-0.29353868243562364,0.5493978420214017,583.3231444784265,490.7671915131542,452.27453372319405,stand
0.5509181969949917,0.029306981333113657,0.046132700628461705,9.828679611411516,0.40201991278134347,0.0031067573067133252,-0.26583692649316615,492.1540843045714,419.67053231450103,479.1620104929854,stand
0.6010016694490818,-0.003307032535115273,0.008191043296052379,9.790688695133843,-0.26243590603387207,0.1501539487536021,0.25558200494450156,495.03307134357823,528.547402399527,506.7913405619322,stand
0.651085141903172,0.0007896028490102375,-0.03933693600654825,9.790816317516482,0.06037914286233572,-0.0774595051128095,-0.161615697369833,516.992192468897,529.483971486538,514.706743531813,stand
0.7011686143572621,0.0037058404539042217,0.027928332735015646,9.781891391732527,0.18729102073499718,-0.2635961004895188,0.020370616752762496,480.9264466072589,518.7036613482908,529.8621459693298,stand
0.7512520868113522,-0.007231093236824693,-0.03064313462261445,9.857892940236038,-0.6389232577152563,0.16300400810334317,-0.3698202289789219,495.5252870172527,476.20864292969924,553.7552697789482,stand
0.8013355592654424,-0.02832060641392485,0.007416940219208738,9.77310747520797,-0.10934110084712109,0.09494649052745376,-0.023522902982183874,528.6108049127666,493.88127926588356,503.82771913411824,stand
0.8514190317195326,0.01633105071202183,0.02133363541550891,9.828099531250656,-0.32338840346349995,0.13966636966728224,-0.23986684062950317,510.81241295591417,516.837002114481,460.3052323423336,stand
0.9015025041736228,0.048902008468116556,-0.03019777746520265,9.825674085632249,0.12122828338753934,-0.13147912821045263,-0.11363751979434947,481.7743175068912,511.6283004396587,531.5926788691643,stand
0.9515859766277128,0.043753396665017374,-0.010935862080759931,9.789945365597205,-0.21245149734959226,0.0625978228793945,-0.4265220356832331,512.2460732137486,469.65790126338004,489.81787073597604,stand
1.001669449081803,-0.0027023374688993212,-0.006795310622832118,9.80051180340223,0.33947076120667985,-0.24246197199174507,-0.211222628006052,575.7905846164192,517.9673322834392,525.1734536880626,stand
1.0517529215358932,-0.021118027102967757,0.010648292199049475,9.799727231721086,0.09296292896766219,-0.03829032765381621,-0.10539000319130137,544.9815233529258,584.5432632814724,564.795300408881,stand
1.1018363939899833,0.03395045681543092,-0.02555902757743639,9.78556831124894,0.2388660571705242,-0.2483204099107644,0.14650945449432834,554.0834905365297,471.8767255265383,398.764690760673,stand
1.1519198664440735,-0.007012408929526981,-0.08107142793322919,9.815499235628739,0.7043494370617264,-0.572930476163397,-0.3613006896675009,519.6032192023912,538.962503696316,491.41176730266363,stand
1.2020033388981637,0.044421751170672194,0.006561351492475623,9.79590938919568,0.14511239290814973,-0.3667051871907602,-0.05220409947574268,465.56848007647443,521.1043944101652,541.858984275906,stand
1.2520868113522539,-0.010207583232709913,-0.007291721825151171,9.813030275735585,0.026050553146297006,-0.1801288986638927,0.29377585114950144,558.124402995916,505.0023248540216,436.3387836847106,stand
1.302170283806344,0.014988347689720613,0.0008177140772550676,9.839835436446041,0.14764951906766594,-0.07811967887354139,0.09296815227896903,475.7022005691651,497.21400411884804,495.2555223811416,stand
1.352253756260434,0.025415431958052917,-0.057870204391817365,9.809546059939485,-0.11507741983850478,-0.00737760419764381,0.21302703196568382,517.3390661140595,496.4299613593517,467.5495765870158,stand
1.4023372287145242,-0.022105044289670486,-0.00847245287141385,9.832465514706184,-0.17868305487615424,-0.1360686293220465,-0.3143217960852531,557.4452276907426,476.47055366183713,488.7088571579525,stand
1.4524207011686143,-0.003218320662985205,-0.00016678384963184079,9.818413005552042,-0.14868333831018157,-0.31316654357121115,0.10896103531175086,517.1822424460971,427.209030732028,459.221687320639,stand
1.5025041736227045,0.0008612635461986151,-0.006817213375565678,9.726545685693912,-0.2233166121826756,-0.4902464332915923,-0.022806530241350122,505.02505817722147,538.4784583720539,477.91004147422075,stand
1.5525876460767947,-0.009183908199497048,-0.025587925349873197,9.80613106971628,0.300828944712135,0.3086414137057026,0.012683681231904421,523.9636321472202,539.4418735385199,397.82113325086914,stand
1.6026711185308848,0.009768263562619811,-0.01572535134149103,9.801364408260543,0.07393306918312545,0.2654348842887464,0.0967440666536246,512.6577204583546,481.71034454501734,495.91051490799146,stand
1.652754590984975,0.032313154440951994,-0.04615127795919477,9.794387684946622,0.10119276005215613,0.2549246384713015,0.689918157155267,585.4970930724171,505.4915187196121,494.3334711443332,stand
1.7028380634390652,-0.01186055413156939,-0.04560369388523057,9.811830097402591,-0.033319346499804836,0.7609757581203486,-0.25988600615498264,465.35740298873964,521.7676612409181,454.8546452419175,stand
1.7529215358931554,-0.007544676522315469,-0.010381712469989562,9.814140973314153,-0.1126597736159217,-0.25915902106822664,-0.5143567466914359,556.0803413257856,478.1092050302539,455.1225308052983,stand
1.8030050083472455,-0.015321574022552603,0.013254806991935549,9.808261429379533,-0.1254752740009609,0.20449786237895953,0.37359768338995264,548.2406076986318,529.8374311388833,475.4783740130863,stand
1.8530884808013357,-0.0673448670640822,-0.03601945295155501,9.799201222307703,0.20444319135057915,-0.05061840899322286,-0.20276492439976557,567.6553730262285,463.89419796974704,511.0618626482956,stand
1.9031719532554257,-0.00861058159682268,0.004622965104740223,9.786838308727033,-0.06163341256499004,-0.12448650470865401,-0.15026418037842987,516.2098468308671,485.88852827020077,502.2523296839843,stand
1.9532554257095158,0.006545654155345262,0.044016533670847555,9.813468462864797,0.14117900344249512,-0.05949351845832962,-0.42111049362891917,461.3835979681244,450.63716911436666,449.92668486788926,stand
2.003338898163606,0.042820990734712336,-0.032053411821119315,9.766762331763783,0.30043860505657544,-0.22670408958150687,0.12213023140990184,518.3261632995789,532.7652820416366,501.5144897821115,stand
2.0534223706176964,0.017695341220632224,0.01922518586351571,9.792059783367598,0.20067420509104278,-0.3969712999097802,-0.025882231955139622,521.3047209821922,533.1299461591955,507.40722559349365,stand
2.1035058430717863,-0.004870470295305546,-0.056272838258459995,9.835905922756801,-0.17107366451062436,0.6398890701794278,0.26573122985767283,463.91626391798326,446.5461975881434,506.35188923449226,stand
2.1535893155258763,-0.02265252803473857,0.012748312090058986,9.791440852273132,0.434682711861669,-0.06638842376226549,0.10570427130327421,550.0862766308522,443.02502728700324,572.2461512080163,stand
2.2036727879799667,0.03658284114176738,0.018335745325249356,9.772296559047415,-0.2780251779225866,-0.2214232188616512,-0.3190568122787152,481.84402256018774,569.6315321410677,518.1242785799698,stand
2.2537562604340566,0.07059127886785828,0.08720744372258175,9.784193232710702,0.3135110549769204,-0.02971994509224128,0.21828209289437284,512.7258847646893,492.1544959590929,462.4169494692998,stand
2.303839732888147,-0.06225325774936569,-0.05742352930888489,9.786830561572968,0.155395788012901,-0.1880820834826412,0.056409281075630334,613.4403368085226,509.2296791038085,429.801257970559,stand
2.353923205342237,-0.055287918979714856,0.024320558923554253,9.785924841765876,0.3463524789060673,0.2887398884428205,-0.024096704488355013,524.4286584412205,545.5057429996847,454.771714731153,stand
2.4040066777963274,0.0036103924749165822,-0.011142274168416053,9.776875426993577,-0.46281241563137326,0.3495599352901742,0.06439989155409478,560.8971517544255,517.4265772021189,454.84153476440565,stand
2.4540901502504173,0.02359865712803437,0.03403059148603872,9.783256572035544,-0.10291890249432468,0.06100199408302569,0.21929623682937585,551.4077791531091,426.24135714498016,477.92465015524175,stand
2.5041736227045077,-0.028991910462807614,0.02959120085357961,9.81037180757502,0.10265129799993224,0.2365568804567071,-0.2175328081867008,511.93293077896084,447.8333385417249,493.88833458532673,stand
2.5542570951585977,-0.004712142686588872,0.014870907585777152,9.737758932469694,-0.34780918084433404,-0.10735582873223187,-0.0045251611768424935,525.5418083679638,527.910595419087,476.74943652228785,stand
2.604340567612688,-0.01812593283328859,-0.02096150261764443,9.848597702156647,-0.22737252838275976,0.03336760803642702,-0.037681018235151124,505.13224207624586,446.93024231677094,532.0479994440261,stand
2.654424040066778,-0.013010978325691258,-0.0027095505883118903,9.770744396471073,0.06968765682263423,-0.15076856407443054,-0.11110756882852933,495.0246554435932,513.3470117852329,514.5356577528412,stand
2.704507512520868,-0.02377747224732233,0.013858516383977254,9.797112805128375,0.2674140397593183,0.14592346895224975,0.10790932183548244,419.25013106173367,509.48479297212486,467.7020330939635,stand
2.7545909849749584,-0.01582661001803065,-0.011912314467731278,9.808216687640032,-0.053907923124984436,0.596454398811911,0.41546566011565944,512.5218572546473,528.2116833161942,497.44456318762343,stand
2.8046744574290483,0.01964122909486231,0.01963684209692111,9.796536434785986,0.41201155269368883,0.2783204346632219,-0.00626683670122683,541.2205687465998,439.01711276018176,404.48824374266735,stand
2.8547579298831387,0.006096389805163457,0.006540461342518761,9.85326681619497,-0.25388696537060795,0.019612813230676998,0.0907730464536785,538.2029477344587,523.629176970199,471.422855630823,stand
2.9048414023372287,0.0037714557186559194,-0.030271540598218433,9.771845968771496,0.16819805260910364,-0.32753852406667144,-0.19744120264410073,489.6635600173434,520.8145167947091,550.9090403411407,stand
2.954924874791319,0.005733921591912369,-0.024338543784232503,9.780451108504579,0.11597394801921128,-0.05646969113594616,-0.22844325486519712,520.4104591447617,456.9890432385534,483.4976353386187,stand
3.005008347245409,0.016213374843220565,-0.05575328006662106,9.80970227265184,0.21200544566657975,0.026528333295773344,0.2051979899982456,479.1856519021808,497.58613755212093,503.5536268803109,stand
3.0550918196994994,-0.017615161643833296,-0.04249652188938273,9.84219015797184,0.0415920786309485,-0.1154614848063852,0.18938601626812576,552.1817996842456,536.658925942073,477.7245829494741,stand
3.1051752921535893,-0.012383590287565693,-0.010640888684079919,9.794786997991253,-0.13329464619516931,0.22270419562478652,-0.23939144956678335,481.7742775078144,533.1868994098863,484.1292098424002,stand
3.1552587646076797,0.016361045661725124,0.0015336797448764622,9.809204968664522,-0.046266218059648846,0.06625406490763587,0.025206941500717266,599.5513454845808,435.8568947855638,529.2679871223735,stand
3.2053422370617697,0.0361031649450866,-0.0028649528186998063,9.826038939969276,-0.3005409185579354,-0.07082713662687795,0.12310850303675587,495.1880808096501,468.0278243534986,540.2957767777551,stand
3.2554257095158596,-0.024196772879260836,-0.03041153421704762,9.85930726500472,0.20276287306408755,0.1540043652682841,0.05413380598571371,519.8201192241598,483.6484457593626,540.1460575441062,stand
3.30550918196995,0.057611371984036056,0.06726894574923158,9.755701721926316,-0.6108292336829224,-0.19870379556606563,-0.08915251078167177,519.9181362312675,535.084612166847,559.163415953262,stand
3.35559265442404,0.03052162596045699,0.01134738202447691,9.853323384146591,0.2036837387982754,-0.6401768609678309,0.15107502538334827,525.7718341128343,612.4522838039222,494.26501660890733,stand
3.4056761268781304,-0.020075250362705507,-0.048729738781600626,9.803520327519104,0.0052837800522398445,0.056660935908187646,-0.18525480386209378,529.2927388863191,487.1648516422054,511.79803401650986,stand
3.4557595993322203,-0.004158717688051192,0.02949055499657084,9.805356033218045,-0.16378769949495361,0.1387884250487682,0.16453738537886037,561.8847162419423,495.96653019403027,520.0646250829495,stand
3.5058430717863107,-0.012127823659542597,0.02131285453770357,9.815834057191172,0.14977021553353034,-0.07934728621228515,0.04412597446355635,535.0046646149682,486.3752809372053,472.4738841309461,stand
3.5559265442404007,-0.025498555545479168,-0.06458734515533578,9.811138410362402,0.15381264330263586,0.0076038448908032855,-0.0014314919382616195,497.08573194203007,538.8409998677274,514.4921700009083,stand
3.606010016694491,-0.0015975958615667002,0.04612137730975172,9.837578707927339,-0.052007339343194355,-0.078813973423395,-0.16503139823189406,480.0750232607866,521.412444646956,494.61357021931104,stand
3.656093489148581,0.004950309329883551,0.005088417773334394,9.808148120999922,0.27651320543017754,0.28393573136732475,0.1206829176775386,523.9668775249518,489.7276548365788,464.18129474172486,stand
3.7061769616026714,-0.026248615269657757,-0.02534523758265593,9.75431407903264,0.34951811496720403,-0.15786733615896448,-0.4405161616081844,527.9770953448824,592.5706242177428,487.5546516902063,stand
3.7562604340567614,0.017292173679602965,0.05013375048402747,9.783685228594981,0.12901565076992175,0.16031358150818092,0.4004326098449095,492.1713804068342,493.11004210814656,611.73208089044,stand
3.8063439065108513,0.05535458264792491,0.022422723566694065,9.79469630546622,-0.01790475624168168,0.21482559276735846,0.12593216345139904,449.923770686161,561.5282554443818,436.51921097394506,stand
3.8564273789649417,0.016767674700637628,0.037766994462575684,9.809195346267765,0.23561167674583627,-0.17776960093238453,-0.02580329747512132,483.2113497948775,495.57343366502147,505.0106056637657,stand
3.9065108514190316,-0.008774162496298796,-0.018972388210362803,9.77359877937321,0.35525360199017053,-0.013755381957663845,-0.2650927459780517,519.2125027766712,497.0424103459777,510.8015670962336,stand
3.956594323873122,-0.023402549964563098,-0.0020228051735747543,9.831805361546074,0.20885276434483455,-0.24839259019031149,0.5229268003385308,449.2425297199036,609.1854864535484,491.5119435011677,stand
4.006677796327212,0.020987307001107514,-0.054597273145468084,9.817981658480777,-0.3230133677038263,0.07908188547677285,-0.3634006010565023,468.72833594758373,522.8278608519208,530.244291898606,stand
4.056761268781302,0.028554664665725232,0.04344599237409834,9.785652173894041,0.33398670234225514,-0.2019261112712318,0.059728347634646024,504.93500299439086,503.97994415970777,523.0479627170189,stand
4.106844741235393,-0.026896464017161684,0.018994124017230246,9.783061799440716,0.2615671953777988,0.2742868345349434,-0.36556502624796977,478.4362383869498,533.9870568384509,428.8293022841907,stand
4.156928213689483,0.012141075572768112,0.001002454154964999,9.800789719839798,-0.139205764744701,0.31468382853831744,0.0002979299194113399,437.30806728005757,478.6206527925362,459.66783744727604,stand
4.207011686143573,-0.025657432638316074,-0.008531068580927115,9.752696259247996,0.09405168483506145,0.20194787595042227,-0.3358226866570614,480.7954701200584,493.760938095504,504.59983884864073,stand
4.257095158597663,0.0077049193962786255,0.031715491786092044,9.79100878450203,-0.26326757298593795,0.14102082256229959,-0.27892191494132157,493.0817805293616,415.63746853973794,560.5845041300723,stand
4.307178631051753,0.0060951744290492355,-0.021851298298613805,9.754226331830287,0.37646205323375603,0.2462870958744261,-0.07618213336059936,524.565915694611,451.444059880456,527.9904322163932,stand
4.357262103505843,0.003999843038214199,-0.012582905811698977,9.80840023668737,0.11547500477627651,-0.3104006668194669,0.5198470872484489,460.8973779908149,454.50537568399204,512.1590192671453,stand
4.407345575959933,0.019880246610191873,0.015543611253897492,9.84206988216078,-0.017481782724134018,-0.15862344954469051,-0.1688699355643661,498.00745758857227,569.6849394288549,437.12682524257036,stand
4.457429048414023,-0.022164859587644553,-0.01523174653540188,9.806627207301815,0.035529814174428076,0.086508077147027,0.2986163721682033,509.30794631362465,548.607049263752,533.4578845217939,stand
4.507512520868113,-0.016682520812542734,0.028104332626849263,9.805217720582691,0.24207155268823558,0.10184738317511864,0.19950307992558686,523.3440729803134,502.710266048976,555.9777396121542,stand
4.557595993322204,0.02996922244638711,-0.0533171928583365,9.822190440906624,0.1265191316589324,0.05713035678737534,-0.13329969259553887,532.5543125348078,499.95846817902947,513.8136279897942,stand
4.607679465776294,0.033335707371825965,-0.019082904498760267,9.791375649275889,0.12269696292776895,0.08984361026306996,-0.02893724056384261,448.95118753540004,574.6524395825952,515.5811768552719,stand
4.657762938230384,-0.008840401611891396,-0.022427356299699802,9.785984449530746,-0.15772028863583246,0.08801282038817158,-0.0001501771136158743,491.82456320700373,425.28803338113994,415.92380609563423,stand
4.707846410684474,0.021155347253922804,0.035022524827686655,9.816018260847903,-0.21774561952726623,-0.34954532705140795,-0.148089535053749,442.0984410836388,477.0454947242103,544.0619610164105,stand
4.757929883138565,-0.03494295346605585,-0.003149245555685576,9.809833021657512,0.1793580256333905,-0.029984259863016914,-0.03183384239072122,496.8986610401215,493.19770016762425,458.6825285362519,stand
4.808013355592655,0.016357749679498115,-0.020091498486368806,9.844018415521347,0.05163565965807231,-0.12159644758468863,0.31763374685860124,503.9232832983852,507.6442641706454,501.38219187572764,stand
4.858096828046745,-0.05477691323278968,0.009003454833080689,9.841018417470037,0.023705794175682728,0.13366120247391589,0.2741591461433819,497.1813667740527,477.4371155740227,524.6300313986189,stand
4.908180300500835,0.00799356425538196,-0.028714043842034104,9.807206896046672,-0.057711794610857174,-0.4046575527829302,-0.0537527763143371,481.76367871338726,470.44408883085094,517.9955579002476,stand
4.958263772954925,-0.007795625244696611,-0.014736227509656585,9.79804794473656,0.2131242245303648,0.13905926288193185,0.15431775881985954,421.4105940205828,485.48809525750846,538.6128559606929,stand
5.008347245409015,-0.012378234646992142,0.038677517227519186,9.768874058756428,-0.2959953468831344,0.27626660158907734,0.12828465368942574,510.94777425064296,480.10443325195797,459.4048741510653,stand
5.058430717863105,-0.010441983442071576,-0.003872414561833251,9.806167077026295,-0.3261006935035543,0.4415622853255657,-0.15940918519076833,483.0681776978682,541.2667725697831,423.03111531619396,stand
5.108514190317195,-0.005188208261381583,-0.010233416108351767,9.73782635716603,0.17845381268009555,-0.14333193159954824,-0.2823275049582501,530.2710977620777,507.03311703601577,424.66618718727415,stand
5.158597662771285,-0.00783050667213435,0.008365657888033035,9.75302074595456,0.0897493444143105,0.15983643322306776,-0.26740642562597733,542.966449257905,538.0779930056382,510.0521552406499,stand
5.208681135225376,0.04387494143323202,-0.009466877858590364,9.796728280571136,-0.25621689708370043,-0.3457875752611672,-0.08590782915088861,534.4170014785079,437.8276535236662,510.4438927446772,stand
5.258764607679466,0.016440404510816298,-0.022367485339643625,9.81013782265055,-0.3418158996251461,-0.26935231060440135,0.18811061461183115,501.986125631802,548.861120000777,476.6473953914683,stand
5.308848080133556,-0.022260466029509,-0.04936813979204127,9.811380300296277,0.3759318535381004,-0.17591858804820956,-0.2501616966690453,499.5165990845072,504.96563703411243,423.259214467124,stand
5.358931552587646,-0.025431877176033256,0.0046952732799484115,9.805854637725004,-0.20401467014600255,0.2825456906042441,-0.05203000496347391,565.386960072601,449.4808499832194,530.2713205534452,stand
5.409015025041736,-0.02993327273315935,0.004057898507749874,9.764707269073924,-0.047637243706169834,-0.1674807201376298,0.32958563079966696,482.981484698292,460.1488088450188,487.93510031488006,stand
5.459098497495827,0.05496182848375562,0.007048816598336595,9.821447898274295,-0.1703592564499416,-0.5505631594039959,-0.10325717117131487,446.1596006309744,483.8559763161064,512.3995669559523,stand
5.509181969949917,-0.001403471657295166,0.006332101182632194,9.806664144870428,-0.13014283262992216,-0.2662698869207916,-0.2831576096400666,508.40920775834405,492.0639628201688,470.95575396312694,stand
5.559265442404007,-0.001913632927925818,0.042638867556242174,9.82484748579334,-0.15945865022025152,0.33106173141081086,0.08845309372462948,480.9312801789946,469.8844610469088,512.504045722517,stand
5.609348914858097,-0.023684088708732634,0.010038696223313708,9.819891706875325,0.14269371924367147,-0.027944072250696176,0.15890510906819497,469.5389594023411,492.26334569403997,543.1915418738979,stand
5.6594323873121875,0.0038387826761794586,0.026042231098437896,9.822294237594665,0.11209496479296435,0.028063356936130702,0.34701958710121417,474.5474895052243,544.5320369564806,555.5070494422453,stand
5.709515859766277,0.0098354324344605,0.05318341049843806,9.770651522958618,0.33872538019206033,-0.3789698670940619,0.05001531101495534,450.08402366093844,496.0693468386298,515.0207047120414,stand
5.759599332220367,-0.004831732672687064,-0.013470079988940065,9.820266152503368,-0.20717388488528346,0.056006672525720815,-0.21867625734006346,508.9419007646529,574.2432947019628,597.99926593027,stand
5.809682804674457,-0.02169054188712803,0.013957635244829986,9.805122356315062,0.15394382338474336,-0.14138332161869124,0.23202019986178288,490.954158837655,553.588906720187,392.3893188483983,stand
5.859766277128548,-0.037186236539106535,-0.04971671391991642,9.804928427597657,0.10793419856636098,0.39620753216844323,0.1926712238460828,519.124750944398,524.2164304775245,480.95010094773977,stand
5.909849749582638,-0.00734206631449473,0.021648494193038013,9.78489460397298,0.1332961292775595,-0.581903786078222,0.19970226714747907,456.2554880435436,494.0165415499667,544.4362013956655,stand
5.959933222036728,-0.03588794700007382,-0.013217460788171306,9.775603368444573,-0.06055482367511586,-0.3346512264632896,0.43376022231852407,510.17736333073503,477.3618839279519,497.15769520390955,stand
6.010016694490818,-0.03315874941443634,-0.06839887179354101,9.812636230487653,0.02593768197263723,-0.2647189025473999,0.12709461647403944,428.0349076676335,523.4164007685092,575.0367790711001,stand
6.060100166944908,0.029674519564673665,0.001752513851898993,9.76914610656583,-0.23583900512211825,0.06065962099582527,-0.03842692831824455,558.1555130555378,485.9244768131734,498.1652167577675,stand
6.110183639398999,-0.030445087916139313,-0.027767384659383706,9.761689444263894,-0.52462437413588,0.0022593754838323046,-0.35572610593237514,543.5346199420569,494.41288746249205,502.60692381723214,stand
6.160267111853089,0.024869832799611413,-0.010046053771453123,9.763787497605533,-0.10728595221323177,0.18009287840304103,-0.44703882336824213,449.20431411291196,496.28442441692386,561.3425623941501,stand
6.210350584307179,-0.02633195881181205,-0.0583797954617965,9.770398035364648,-0.3322018642577693,0.14592137787023204,0.27943371911884984,499.78529018188044,501.83609838211186,512.9674616223734,stand
6.260434056761269,0.01789696180018717,-0.007176191429570336,9.828148807771667,-0.18443091602776876,-0.16667706936941626,0.06560493783755422,473.9527800512721,535.452243148553,562.747883290475,stand
6.3105175292153595,0.03368940301765479,0.02403404150371931,9.82844152424456,-0.6611666866184566,0.0054810693058225815,-0.3372659567890131,473.84071852907465,549.2862711783586,463.9435103470696,stand
6.360601001669449,0.010474339982242495,-0.02064208609498211,9.867322875516596,-0.13387612411268401,0.11151643261758863,0.4131699102027822,448.9059150401766,508.70716022274604,535.9533910234557,stand
6.410684474123539,0.028938914670167,-0.10037504133382918,9.794674761125588,0.005842733984171122,-0.02877075869499521,0.12560882513893484,523.2758136588077,526.3872157600898,467.5952567368097,stand
6.460767946577629,-0.03935184230815087,-0.034963498698918655,9.801977420374202,0.3547367636661908,0.265172124192529,0.1880425409138305,492.1605908623959,533.6447069381287,530.0191203862075,stand
6.510851419031719,0.05887193659812602,0.022527449624376417,9.763233824109117,-0.2549570184563031,-0.0732314996030902,0.07518997979140836,462.7012393527714,411.08524649753724,410.85186219768315,stand
6.56093489148581,-0.05699441562523427,-0.04619058970924354,9.78177329597836,0.2582010889430553,-0.19298329417742396,-0.2189987524447027,543.6597016286607,491.1157078326282,482.6949039868829,stand
6.6110183639399,0.02038353465296326,-0.04640677914779179,9.84077443078503,0.009292640170606294,0.2113356100796043,-0.19564183524742548,449.8865420755053,507.9665420808718,485.25936466116514,stand
6.66110183639399,0.0014722074119288137,0.0023755060886736998,9.751622780528056,-0.49342848658959026,0.24929615796017657,0.47101826474956415,437.75029519548195,504.628542839367,473.96723728055895,stand
6.71118530884808,0.055945216520802046,0.04188470345255148,9.757108787124265,0.5313914608805201,-0.06946319140125609,-0.03192500143184594,506.70214846230454,532.2333646383237,531.4854609844575,stand
6.761268781302171,0.04760450988820332,0.05957493310442769,9.771086020581201,-0.030603529455059692,0.26719027561750214,-0.19568741134717157,486.28914883904633,489.87152414846236,466.53096201067103,stand
6.811352253756261,-0.02589174148762785,0.03564448313946985,9.782951215274759,0.16317483817146083,0.4379921312626223,0.20335511901757578,536.7583677658823,572.5801505613564,578.185883061412,stand
6.861435726210351,-0.08605329381370898,0.07116639365001787,9.781492057124519,-0.10839030096621156,0.03479615350102276,-0.02396896541586317,501.58897940384026,502.10974521646557,475.80570688128637,stand
6.911519198664441,-0.0017834977052292728,-0.013450276657304472,9.74085177781977,0.12526966231498488,-0.18295145811622215,-0.07186599787444693,515.2539423996718,563.9288326555278,496.424323255276,stand
6.961602671118531,0.018868567824302906,0.007427808396226046,9.78370378663278,0.021384985100648766,0.03424526181302082,-0.24524100042337513,511.0663344319915,497.56719232708355,490.09745242101746,stand
7.011686143572621,0.0063015994592246355,-0.00822590746532767,9.777859895281116,-0.09362289262141713,-0.30912289477026483,0.021906267402623008,479.40578629462834,507.06252216542146,487.1039067951112,stand
7.061769616026711,-0.008592940747318742,-0.014265282923223876,9.749835377015794,0.027845671606561654,0.02511486439810597,-0.08689441996587269,540.9692254254848,450.5578703921413,461.1014567945751,stand
7.111853088480801,0.0604520853271983,0.02610625730663732,9.822875237502227,-0.11082133325799343,-0.14080793235249842,-0.00886318842858283,479.2104285925355,511.552641045269,563.4120321527256,stand
7.161936560934891,-0.03364268015701584,0.011671227594987045,9.824736323827821,0.1678732154463524,-0.47605876574111483,0.13985970110555512,549.2801851078428,487.9102437039748,519.1389294796811,stand
7.212020033388982,0.02561642545207002,0.004275240304301972,9.79156258886862,0.2762115043018665,-0.0770152255726866,0.020788414030315734,430.90515783011256,502.33591002095307,515.571826426319,stand
7.262103505843072,0.019245080152299796,0.010152138548127777,9.779159447809734,-0.13344821200704468,0.17936921891007307,0.2078119316693174,463.59062473109924,501.11051268757166,527.3321827911244,stand
7.312186978297162,0.01426467778062368,-0.01905813504408127,9.837960493570568,-0.025815049106291656,-0.0765716615951341,0.19210585275390943,538.3727590129006,476.9917084075097,495.8275076452443,stand
7.362270450751252,0.007624669553354224,-0.009863139961498124,9.772908392103716,0.23615894355618097,-0.39728833675460606,0.5028928136101244,531.8396556366013,489.75164064180933,602.4881457540333,stand
7.412353923205343,-0.03713008763743013,-0.006135081511728216,9.829021162107201,-0.06340073921298063,0.3917781936712732,0.10192708420058155,482.193086932352,503.6236340812253,471.3420927933483,stand
7.462437395659433,-0.012073850038855,0.019720650419710148,9.813385306273489,0.18565760818880794,0.05823461398190643,-0.01999813463052134,476.82026351999673,519.8563515870857,464.1372002968043,stand
7.512520868113523,-0.05792465919095492,0.026127278505396603,9.798490113113562,0.1742593964099228,-0.09524153867875586,0.06004063474847475,515.4737543612307,508.8688023602486,510.00166619896436,stand
7.562604340567613,-0.01899693674052598,-0.01410054787432552,9.797133056264549,0.08428337524051806,-0.21295862077531494,-0.3946031837855001,521.5812679600252,468.6326641676612,515.6170135838063,stand
7.612687813021703,-0.014712592382828696,-0.014145813247247521,9.768725225571766,0.1540346928380252,-0.48755890635601,0.3636714935283053,578.5767967488722,489.2321182158733,484.45559758906836,stand
7.6627712854757934,0.028380021496985722,0.012888442740715503,9.778461886478581,0.006187191664866442,0.16336853998218828,-0.16631944404784296,496.18157639004016,501.6011833632271,544.1025913325825,stand
7.712854757929883,-0.028920292217689353,0.05034902752025574,9.77741202432641,-0.23804022211955198,-0.44014128973381245,-0.12257814099272765,519.1771774564377,541.2678966610783,561.3808133886071,stand
7.762938230383973,-0.03598204056453929,0.005193044660517988,9.825443992368925,0.10069182018523212,-0.13415735934827674,-0.003929220741696576,522.6806356668602,451.826388597157,463.260885778271,stand
7.813021702838063,-0.013278419156486157,0.011173117608152816,9.812039315895623,-0.16504587992389297,0.5621004701639788,0.5068682555617453,528.5915958594794,468.1723405778917,508.35897756672694,stand
7.863105175292154,-0.0025355887638511404,0.01117427144843805,9.80536972829519,-0.22943346609396198,-0.2412961107092445,-0.1119126140929696,443.2738692550176,516.2720062736211,504.58691779877825,stand
7.913188647746244,0.032220776649131935,0.0001987559603719921,9.815695230482287,0.5091562110467162,-0.08736428304543785,-0.11513482307223526,517.6037493500526,480.70801431197185,536.5133949874898,stand
7.963272120200334,-0.004215242436938715,-0.03429693641959014,9.77112154702899,0.14050445846015253,-0.24732500404215682,0.6381004593494496,493.9569966647514,560.672584421022,499.8551488801999,stand
8.013355592654424,0.009074232298825619,0.009658799976085305,9.814566451710446,0.45621321921378627,-0.17880701492423,0.012036415320418391,473.54495914694445,440.4177429103743,447.05633596227807,stand
8.063439065108515,0.011297027314400937,-0.00042252089297081796,9.809822963485962,-0.12405720334094197,-0.2847008796757413,0.10091525767757224,487.9673406324422,492.79864971818336,477.18061382404954,stand
8.113522537562604,0.01021630178824369,-0.04511925604975485,9.777370054149733,0.500933537662635,-0.12492414796652004,0.04081528078336677,574.10561533769,495.4904370608051,493.8546693789285,stand
8.163606010016695,0.004712494636122333,-0.014483078709053535,9.751047341879087,-0.14395454314340794,-0.09923765493089201,0.06784082434588806,452.82589502051144,497.9403893947628,551.347556874467,stand
8.213689482470786,0.003651840369518683,-0.028279005461814277,9.792866061249658,0.010314356146799878,-0.2963644267774736,0.42941824888198493,529.8617437297635,464.7441346621657,536.5309541331378,stand
8.263772954924875,-0.016427769953924906,-0.00852687281410415,9.747684516275656,-0.1656715376518321,-0.5016763787495527,-0.014032963257573795,559.2062651137275,468.4859265903536,465.571970602928,stand
8.313856427378965,0.0038386110235354293,0.018233915525007,9.7968100735447,0.13883478444928707,0.015915273968674426,0.23280195016991456,545.0106349241759,528.8921169900872,527.7028260425186,stand
8.363939899833055,-0.022383785094740677,0.028649398082830922,9.786340343357722,-0.12114293978804384,-0.3018413241103224,0.11857274225990201,525.3433765314402,497.78208713363136,504.1886059478637,stand
8.414023372287145,0.0045295737626245,-0.015757465069677526,9.831169828844702,-0.3534839530112976,-0.13754200016140522,0.0791066078469641,500.5837607085919,510.28494568164297,399.7119920106396,stand
8.464106844741236,0.008937093014579997,-0.023972791009384598,9.816142463386411,-0.5028005235347401,-0.648158411421004,-0.3443817937001485,577.888279887002,530.0755666687888,450.9222870813303,stand
8.514190317195325,0.0006829408119889691,0.01549001788853372,9.837214931669543,0.10312382488134136,0.4250013092513978,0.02091098997662623,460.08732223505285,524.5642208868853,534.787081256402,stand
8.564273789649416,0.003457877403955867,-0.022909197966615405,9.813922732159249,-0.6235762955801721,0.11139681797062516,0.19139301501758418,463.01934063158666,504.6133716982802,572.1806928375012,stand
8.614357262103505,-0.054524070117458634,0.019484885970002225,9.76550003026155,0.1639343621970863,-0.09377922919320221,0.02277504575843311,541.5839628149814,456.7284832566617,527.7732617387348,stand
8.664440734557596,0.03448952700425546,-0.03401870795866002,9.789250405892593,0.37433897492404605,-0.05344000862394973,-0.0319798971710805,475.1531982170148,510.0091011372773,495.9040440774021,stand
8.714524207011687,0.035355557160505716,0.013196673215974952,9.762047000019082,-0.40457142819710445,0.07347214113197281,-0.14261178162943985,463.2490518292307,482.0768533656474,483.03094137153244,stand
8.764607679465776,0.0072445800802648785,-0.02655550006003611,9.80340202645752,0.01232479945254428,-0.2668475189753383,-0.3464141639854214,489.1176621974582,483.3162946345199,499.98808148833916,stand
8.814691151919867,-0.023782545469802296,-0.02341204656943803,9.808921230967307,0.014980107566469477,-0.49310291507676995,-0.04124657801158471,448.6253324174216,553.0702337197312,561.3120806741622,stand
8.864774624373958,0.030204989124157505,0.010359864828380548,9.759793274072473,-0.2247470211337789,-0.17383997369369514,-0.48439721786631124,466.0264599005451,434.51761340553344,442.7919046701612,stand
8.914858096828047,0.0004438025195806772,0.028557458514415116,9.804843822456395,0.017877713845894302,0.24500436952655893,-0.01110610085425522,503.2900007230932,530.2406097622408,498.56468452763585,stand
8.964941569282137,-0.004717076331016021,0.004875941058289937,9.8207926903967,0.06092505190139341,-0.11408559505485788,0.3683064597057801,477.5240374187186,526.1622066118425,498.2849797952934,stand
9.015025041736227,-0.011156913327377005,0.009924293961449851,9.784924030610012,0.11807129774760178,0.2927457577508483,0.09041861657773606,487.7245646910758,480.15014616697874,484.73085023424863,stand
9.065108514190317,-0.002423007672845867,-0.03998953273049115,9.803797614410291,-0.19224763029317515,0.1952455625887552,-0.29593515755771127,523.0801182907084,533.8418248048375,459.48013869636,stand
9.115191986644408,-0.07536389604895632,-0.0011599097113757922,9.836891584586757,0.18353190038617634,0.04226277236110391,-0.11096581093533972,525.3739954519427,546.9844311735659,503.215102218607,stand
9.165275459098497,-0.008439290518804432,-0.009608325627716297,9.852767315425627,-0.023763499402067376,-0.1900818673886304,0.28730528147186146,507.238001010365,521.9274713578407,470.88219988923845,stand
9.215358931552588,-0.07357866016188773,0.040250903950543315,9.768082312864417,0.39394447540104305,0.6653268895810415,0.13907229692893214,496.6561874159881,524.0857221457496,526.2392400116908,stand
9.265442404006677,-0.016005025601510417,0.0015634785835786785,9.806026581833644,0.06906136428666085,0.07818263843402581,0.18197169397185067,478.10148120860964,522.8661660463058,553.0347411803239,stand
9.315525876460768,-0.0035021111047521536,0.031183527073823953,9.791046575452132,0.1182483041839843,0.3036895717962602,-0.038061443736959306,544.8265088395895,416.8660414218952,550.4223959395188,stand
9.365609348914859,-0.02163669447304578,-0.04341487635408324,9.797903376466286,0.03718192878373546,0.23216078044662294,0.1645502387551138,539.8275052051729,433.21602994979395,495.30166981785976,stand
9.415692821368948,-0.012953499799764609,-0.02663790045722035,9.840323977524932,0.14510870166835677,0.25693795815064313,-0.4902553775456091,517.4514733210191,508.8606809824858,524.6012158249924,stand
9.465776293823039,0.016187847266669678,-0.02661157475949505,9.802931390180786,-0.3622863091663781,0.8331417442611301,-0.015730873823941696,493.60965315588635,464.4047583226363,479.0517635217082,stand
9.51585976627713,-0.03979455340667123,-0.012413974572296219,9.78447449028268,-0.019171284509875163,-0.3821471487437509,-0.23751107176083455,453.8573336735137,502.330687538838,459.30708016063136,stand
9.565943238731219,0.01319629457039792,-0.0479378814502156,9.785804705999967,-0.2836244358909929,-0.30501426879786026,-0.30239731803973174,484.23299322340154,520.8909346509676,467.5678763360544,stand
9.61602671118531,-0.007945086501664367,0.0328267052947917,9.78239815593772,-0.1850537946381623,-0.04831488250121178,0.4023425844742944,465.9048471428093,532.9212009825774,493.15154366810526,stand
9.666110183639399,-0.008360723489786295,-0.022107610064100752,9.773614517504067,0.10280027005704624,0.48485229696324345,-0.07641784509953503,446.5904261625031,500.56168359681755,537.155784448398,stand
9.71619365609349,0.028151120497292362,0.047949816633592775,9.759599373901523,0.032265488381552465,-0.2715954533848211,-0.15031568913129445,496.38542782617844,515.5380167287927,461.731508152513,stand
9.76627712854758,-0.06852992127802457,0.03830915803787691,9.788824535437351,0.19334534176830293,0.07342515079442338,-0.07576427632093641,512.6708073325608,416.4216691048055,456.70123363492326,stand
9.81636060100167,0.04764655973645572,-0.021607789914571643,9.764476804234711,0.028938390672114074,-0.06886877814157659,0.371081313271894,458.6618389127955,548.2522479183777,464.23825914528373,stand
9.86644407345576,-0.012460193434347344,-0.02293193439050706,9.791352106216257,4.8549464067011604e-05,-0.2944340930540297,-0.14529570384934143,441.36325727776585,524.9291273205255,498.1541803961143,stand
9.91652754590985,-0.01008812493833311,-0.024880688239987778,9.795769121131146,-0.11333552670948736,0.3315662123896607,0.4104364480434959,504.6208239048404,510.0167079281213,464.40806149834054,stand
9.96661101836394,0.006717723335843917,-0.006435146494072494,9.807951041098583,0.059798876377871964,0.06577453780176155,-0.14580811675873442,501.7993660618067,501.63906446813763,568.8211553721676,stand
10.01669449081803,0.018141072970328978,-0.002191522988927573,9.80465666516167,0.1344655058545174,0.05998874636318302,0.2827312354982335,460.12443507826083,479.88967301059466,476.546663757778,stand
10.06677796327212,-0.02600749939586461,-0.03175378003000798,9.769651675358368,-0.015810895366557207,0.2626231516619109,-0.08294494622545315,446.3437856299997,521.5307970799091,445.93842030546705,stand
10.11686143572621,0.04664747826691058,0.025545384719660738,9.80807383200603,0.18485579251934764,0.15038159133782777,-0.1435614211425692,518.8296456858733,598.7989351446804,550.3121670894134,stand
10.1669449081803,0.006741341107618662,0.023704575655427287,9.821877926471604,-0.09875585722387233,0.1695449926632784,0.013169875131805663,482.285989975354,470.8541863390569,487.3671652908115,stand
10.21702838063439,0.026956845396956197,0.03984389583782292,9.789815079603404,0.08042270976848678,-0.017917964591092392,-0.0374647983102317,492.67642298043285,553.4958776452706,532.1772511916814,stand
10.267111853088482,-0.06968081334425755,0.027848146176212632,9.75343020635666,-0.36377088960318565,-0.010789752406192836,-0.09048198804816295,506.3308458912926,475.94731021957443,503.5149515254953,stand
10.31719532554257,0.019083747926852995,-0.011025590318902809,9.809864292722938,-0.3326613945791283,-0.25360134743915835,0.21449695660787427,521.3588788577665,489.8322129196125,494.34049513932644,stand
10.367278797996661,0.020972647361433977,-0.06268010828000739,9.786346034243886,-0.16761300166370072,-0.17889991719312684,0.08084252926605878,475.0900194046847,485.1060464823126,474.2344676362336,stand
10.417362270450752,-0.019022019050987465,0.006044550218441205,9.80591604143244,-0.2160398736102258,-0.08142216240264434,-0.06058226914495393,404.51335787041614,464.4627914241896,531.1064832489478,stand
10.467445742904841,-0.04642118582974825,-0.00997438561272819,9.772101149866893,0.20743178965007478,0.30395667162602674,-0.43958450521770415,541.8337741397434,549.9063587342595,484.06974450471506,stand
10.517529215358932,0.028881080421167563,-0.007869279822029313,9.734383674936597,-0.14284148754434192,0.069626990205525,-0.05456278960505501,582.6854728067128,431.5428890839496,520.4690655610437,stand
10.567612687813021,0.033959326062784984,-0.0009394371871845192,9.822726231087993,-0.1603713067471285,-0.04973088414000518,-0.19698468145391618,580.221251321196,447.2634333875651,476.34441045700316,stand
10.617696160267112,-0.04403352858951638,-0.03985657232975251,9.783518470186882,-0.2947463124101139,0.07470088907209427,-0.24346870087270595,522.1966158838754,521.8997685472145,454.58064518134756,stand
10.667779632721203,-0.05666341719921223,-0.01818520412948184,9.761806532184536,0.033817406646571915,0.02694658971336979,-0.2952182140901255,478.8716207502188,452.03996488522654,511.3023822661376,stand
10.717863105175292,-0.017475242825722395,0.035070494805132274,9.76953650347603,-0.40580380467895283,0.511689477697035,0.46487121060827097,517.810609319106,498.1393311323851,529.4483361939558,stand
10.767946577629383,0.007891130762554474,0.016170573679222637,9.828664757391257,-0.19522074815619503,0.5005963640123254,0.31152905161875055,470.4374504935529,506.65586034564546,439.75027858762894,stand
10.818030050083472,-0.019697503525552426,-0.0535845148823845,9.786715776640307,-0.26848747631486064,-0.01785937052988196,0.06096404329025149,542.11986111697,485.679077764232,550.5779434034622,stand
10.868113522537563,-0.020948567995866564,0.0032671370556469,9.862891040547686,-0.24589728858421633,0.21828668139089866,-0.2111706897657704,558.1063113314722,486.42414871243125,488.75103254201866,stand
10.918196994991654,-0.012318803869636102,0.004014336557171365,9.88580585652581,0.09236564797150795,-0.0796200549840508,-0.1270204199310231,531.346553376299,511.1396059325959,500.8425071690963,stand
10.968280467445743,0.03748364627856017,0.050261272470282364,9.857101211534014,0.038585423233132854,-0.051454136580705336,-0.5560284386075909,482.17766075347924,442.8467803570921,495.2952429845917,stand
11.018363939899833,-0.03040369330139714,0.017212241057224416,9.787591477721516,-0.6164445159266105,0.4429942145199808,0.2687963871085316,473.09485976820616,511.37842381639183,440.5874767067723,stand
11.068447412353924,-0.024557921841858565,0.05233838166009083,9.774221750703349,0.10394685509706146,0.12965567627863306,0.34435755453592715,487.68128489069585,478.57022206364906,446.9863197699802,stand
11.118530884808013,0.06517837342621409,-0.013326294043227327,9.792757611891494,-0.12685231064045863,-0.059116452086850645,-0.10218347225809583,491.7815621662544,518.4639285331859,468.9313518795484,stand
11.168614357262104,0.00827379213734207,0.05814090134916371,9.788642289360384,0.0917263510756446,0.11432467627200746,-0.0256745508648895,487.64928935099886,528.4924884092899,508.60239187412884,stand
11.218697829716193,-0.028916922925828495,0.05866623006178819,9.746271088551252,-0.07981924371795833,0.3119552263168665,0.29796432462815237,502.01363372266826,426.6739730647213,548.7458348552419,stand
11.268781302170284,0.009812261522495397,-0.010996924833395288,9.749756864615968,0.19602566382340622,0.0538347630882188,-0.0334797427562996,449.98186324464905,492.9327096769528,600.6078405869097,stand
11.318864774624375,0.028966312287169962,-0.030052342682211686,9.815212644836073,-0.09424152862348062,-0.1576466794067563,-0.03220187440625398,465.9815474846293,440.25013056908256,575.4399679007612,stand
11.368948247078464,0.011542355192508083,-0.03915570280936159,9.800207724525222,0.03412124986654441,-0.27779323011423174,-0.6361501050980878,497.63185934398314,481.40734307311357,472.81787284129894,stand
11.419031719532555,-0.018960776367168905,-0.03934544775427368,9.819588877001085,-0.3389399979498175,-0.22547192123127474,0.24543789528919605,410.1320521949696,552.1658853105292,469.4515630669699,stand
11.469115191986644,0.024092094985035936,0.014187982344138081,9.786485303897148,0.3659236209308029,-0.4418609613660643,0.23486945123201938,459.59151211918555,493.1673766345873,515.2652894670255,stand
11.519198664440735,-0.034370409869040955,0.012029139765333069,9.80348417496306,-0.31091698788249605,0.2813151517288131,-0.03509899623963561,460.0262342602849,500.7269024217885,577.8688078631258,stand
11.569282136894826,-0.02759753315269506,-0.024606181873862834,9.862165693925474,-0.14947032363951043,-0.31813178633749256,0.15103007717892727,516.1301408994489,538.0087729344543,459.9996340892094,stand
11.619365609348915,-0.01581431831476482,-0.014481881952369172,9.787046380423451,-0.08806458257858979,0.16758602374737813,-0.32774100551085694,486.5321230096514,519.5038401976723,524.2136275391135,stand
11.669449081803005,0.06135237271285192,0.013697979983308031,9.780651634886665,0.15897280281932138,-0.3633611393353582,0.6367489718475059,486.8671881506625,484.06422142160125,602.0052544567434,stand
11.719532554257096,-0.012239488510732505,-0.009720136642038565,9.754690008675254,0.18008260362297274,0.20682027695070254,-0.5034349525405715,497.99175014624,541.3313617904417,483.5048535000993,stand
11.769616026711185,-0.00872963129220121,-0.024597642092980626,9.777825607105843,-0.29697665270208573,-0.1546912732503455,0.059698718675606784,572.6127913953738,499.50696751030944,483.5630836163291,stand
11.819699499165276,0.009636815301394,-0.014578596771123276,9.806967895808635,-0.22423011865522222,0.1690455751481491,-0.21166263103790997,427.10094726320955,523.0467570233983,451.3315172135747,stand
11.869782971619365,0.005454034540501945,0.002891244322429827,9.787420325622488,0.32135072626237404,-0.6265036914443116,-0.2505067009883036,417.7855362018058,478.6977471631768,488.4855423798865,stand
11.919866444073456,0.026861834941986407,-0.002004806236966687,9.82795065001124,0.0019204314272230226,-0.21565448003351054,0.15958632468452094,538.105089736811,479.9321152268966,530.8467398646025,stand
11.969949916527547,0.014929836975106928,-0.026278467824817825,9.825190594514163,-0.035613085245789065,-0.3832076247358288,0.3751816912297884,516.9250853427528,517.7023937523567,545.3420795239794,stand
12.020033388981636,-0.06784844315161495,-0.017092434508744245,9.81317236060223,0.2670947079333438,-0.07920138812196588,-0.07326659831643151,554.8710848929655,452.39946234365834,506.5030992359503,stand
12.070116861435727,-0.03107441829131362,0.014399651814297094,9.826216944440324,-0.10577729749196352,-0.38907484788668456,-0.22103373720783906,485.8878920702414,519.5181936447343,485.8969368031327,stand
12.120200333889816,0.04754590462486204,0.04806391136855814,9.80209024990783,0.0939153443889728,-0.3712560659217455,-0.4213108472468252,510.63573186287596,519.8929500737588,503.0875403975039,stand
12.170283806343907,-0.009431814571425834,-0.022369315765859113,9.777334215949049,-0.1907072423999925,-0.14756980546666518,0.22431967507577447,495.87274898900716,524.2240232153432,508.26834250016293,stand
12.220367278797998,0.016001229361830585,-0.012865625666513877,9.757198008704549,0.1878117967573743,-0.2808612038967373,-0.3005297012134812,522.1513255157,469.2942650314328,465.04697770739233,stand
12.270450751252087,-0.024812146622779092,-0.033510173350086464,9.860095046637728,0.1014426414582831,-0.02893468337012573,0.05595984199597149,545.0837217811317,424.17026493179856,482.02659477949163,stand
12.320534223706177,0.04538109189614657,-0.013941303948563577,9.81130647963939,-0.45095765988685577,0.0780304079676932,-0.16492580819674746,525.862503234065,511.3549115737124,514.9704634118802,stand
12.370617696160267,-0.0005638930146564664,-0.025764106403069573,9.833738297644778,0.48064865211234087,0.15819777135334856,-0.16561905191493576,556.8973618903198,489.75511584431547,547.0558353444881,stand
12.420701168614357,0.02714709312851983,-0.0028765708230613918,9.79625224230759,-0.5697384300875535,0.04279512538403397,-0.1540888058755639,526.9521771017202,480.7511050273478,554.8804936194525,stand
12.470784641068448,0.015986556024031512,-0.0061679375099584904,9.819612333403107,-0.24541126348992987,0.04999555035700357,-0.11943168214888493,507.15214905090295,472.9439679853729,519.9652876235327,stand
12.520868113522537,0.045558392771850795,-0.005250151505820602,9.783586200216595,0.7069405425478872,0.2530064648159033,-0.154458793886738,485.4239951909713,505.6792533128683,484.476287734975,stand
12.570951585976628,0.04160314114108345,-0.05895551958797163,9.883905925778034,-0.35727670681534673,0.20963527754118308,0.06725394168808455,466.8996605468646,530.6490521086539,544.8917106439446,stand
12.621035058430719,0.017454997828258864,0.02189127841988403,9.853235806031684,-0.03380856472228865,-0.21697337784651988,-0.1816741247307454,449.5048350568479,518.2496634904793,510.46155532428565,stand
12.671118530884808,0.017956718855327222,0.018724285887744517,9.75737537519215,0.06718663111880041,0.06260767142554668,-0.03585361209393928,514.7404517913715,513.5541805513668,475.78688816332414,stand
12.721202003338899,-0.014539072972817257,-0.02366865609336022,9.80170156808363,-0.026261761205589824,-0.08772203431983407,-0.01724622623795057,522.8250291679952,520.0536836151321,475.67446305645325,stand
12.771285475792988,0.009714131798327627,-0.008520666621048084,9.75425399474957,0.44566935533069324,-0.25436294667940346,0.15172778198756545,476.41577668766973,464.4579921347622,498.83604982473,stand
12.821368948247079,0.002733118808386767,0.005477703632211936,9.796758072812109,0.00040117399155143964,-0.563090224265508,0.5201205526961774,546.9484161428597,565.4693049677167,508.68159802310254,stand
12.87145242070117,0.02427745698227679,-0.014511837223241578,9.759127984912787,0.03441667506570629,-0.020760058627483598,0.09979060654518579,533.9234415876832,476.18129943679514,491.51105917983404,stand
12.921535893155259,-0.021240246750745956,-0.08020131563492289,9.766799563294615,-0.001286836891990381,-0.05663892469124323,0.11711216618969447,447.04236299334656,545.778186263977,475.4252180478831,stand
12.97161936560935,-0.013015500164123547,0.0314850857606738,9.77194515826456,0.1142975762576611,0.0543845221652503,0.016167253761988878,424.5725199382913,406.5152725568615,516.9105762017427,stand
13.021702838063439,-0.025829583176054563,-0.017759014932167555,9.830963646592457,-0.5014375516008981,0.25833045966398055,-0.28111710065803835,442.6236632766107,436.198499665339,523.7481186250951,stand
13.07178631051753,0.06671184156996203,0.0070633831735495076,9.72850599855105,0.29212988520260336,-0.09188510682895762,-0.20964851544455926,498.21372252034337,537.34005268323,409.7682844235692,stand
13.12186978297162,0.005556481273206723,0.03435478760756593,9.779601936444676,0.027810370664563426,-0.19135239541661142,-0.14719127908937513,524.3534953398129,483.6349177982662,474.27091402806934,stand
13.17195325542571,-0.04321714811412884,0.01231989906804129,9.765356378182538,0.3889527153162086,-0.7180539059337616,-0.2507269667459198,519.9973640913103,448.1169466727086,605.2066850338035,stand
13.2220367278798,-0.03703635896234189,-0.02050656309789843,9.775130600947547,-0.06370752415572214,-0.3421698685562,0.05611786746098356,447.9957218311936,519.3642980423788,531.9136068631467,stand
13.272120200333891,-0.05610328559681723,-0.015184425983377658,9.781622125790419,-0.20863170915111978,-0.30626635372438415,-0.30670792604880986,448.071806935514,453.4221985360071,536.7684073419526,stand
13.32220367278798,0.03436320087452742,0.024805213347782476,9.81852751688989,0.18833073008509538,0.1742576513767389,0.036465448197933736,504.8468622394205,478.3556114969113,554.8476417964661,stand
13.37228714524207,0.016740214362491082,-0.04706683030938445,9.796258839246574,-0.41238667305580523,-0.37525002276801467,0.26677543124736425,412.0578810584965,519.856342520859,475.48169773381335,stand
13.42237061769616,0.008799397387385804,0.007205975418991872,9.843024485277512,-0.05330900768119803,-0.0071344900114746305,-0.6799621795164832,468.9643862174589,488.03923980968347,484.55246060976197,stand
13.47245409015025,-0.030690884989542117,-0.04350118476553469,9.83580901135521,0.08518278696554592,0.02390661038772042,0.466931227357885,511.20930778545534,529.2436942579931,490.9791928168428,stand
13.522537562604342,0.008254558062145645,-0.02622011547173872,9.811027373286903,0.04032521604169359,0.36527952311177403,0.4362307963009226,524.2959885455338,553.5809146199273,580.9462572191409,stand
13.57262103505843,-0.0009561424840181104,-0.04426874666238728,9.841503718780988,0.11241469199372617,0.048355469894363366,-0.05323439683384909,456.405839416341,446.52007864682156,476.73707666075177,stand
13.622704507512521,-0.041978818668280925,-0.0376121154591047,9.800158545869357,-0.14419233895128566,0.11256678105480959,-0.11738484807924605,530.73448880009,555.2009816995874,485.50226453572554,stand
13.67278797996661,-0.0055912920020520784,0.009041249334779282,9.806690688411491,0.31614240780764946,-0.2569072183993246,0.07786734969504096,512.7397424054192,451.0606630814731,505.37302135708234,stand
13.722871452420701,-0.045627977047784866,-0.03149224585979704,9.793969106324733,-0.18105804537323195,-0.3274328644295939,-0.30353585603353,542.3520499037312,523.2965208258355,481.739270390061,stand
13.772954924874792,0.020502884288090995,-0.019367869266521148,9.82282178552068,0.51147827886274,-0.11056646561048783,0.17660135119682066,460.7547614589413,504.1605013414955,506.556375129576,stand
13.823038397328881,-0.02697943593218144,-0.011648709071696656,9.797963599572025,0.4779658416227821,-0.32547207400644385,0.02706866668667384,504.21213719045267,609.7177179016535,439.53644443617213,stand
13.873121869782972,0.04430674937423851,0.015502436079318428,9.779281941443612,-0.5838347886256918,0.09841788838210584,0.23724692076840237,472.31705529601885,457.78474195310184,489.0809801857845,stand
13.923205342237061,-0.0021012449043609077,0.020719209788994192,9.817982595050085,0.36840055212119954,-0.1282763337997844,0.7741122048928645,484.1444266318873,512.2561485499353,515.3532052950576,stand
13.973288814691152,0.03194788895337643,-0.03374624447736252,9.797055595855959,-0.2575241486218523,0.29929624880865335,-0.016551919584278242,541.4715661302619,543.0538403330459,527.8902438683899,stand
14.023372287145243,0.002153865491738266,0.015623414776553254,9.829272280376726,-0.1887831907161907,-0.362041887383503,-0.3879263319862628,524.8291511466979,550.3850591940476,536.0330514170753,stand
14.073455759599332,0.018258335809262824,9.704830899089079e-05,9.711772995713156,-0.15141810158631833,-0.215419628806085,0.44804412499621094,492.14986277201564,485.4246328996807,499.2773786991459,stand
14.123539232053423,-0.003249947132798317,-0.03356236872232256,9.74575860444269,-0.25748380589435527,-0.10693986044037157,0.2767863352704904,567.8912100754103,455.269092594293,439.01158958102167,stand
14.173622704507514,-0.028033516100067726,-0.017795322069713404,9.766317968676127,0.08004919191172731,-0.28329281378513566,-0.4078570381097895,466.29105417394413,492.3547083080239,549.8832545340337,stand
14.223706176961603,-0.02893764212221242,-0.023510236402556797,9.829577470478265,-0.27476338370292996,0.10547374823877764,-0.242252476692643,444.51862747264363,477.83696475692807,471.7920687477851,stand
14.273789649415694,-0.04240281257182335,-0.03983987616388063,9.803101559876817,0.04330989727981667,0.11001917013155776,0.03121009141987547,453.25356400324927,560.9615199298281,510.4726003709781,stand
14.323873121869783,-0.04019271468787862,-0.007192039528738106,9.814727652635984,-0.3140172923350044,0.0817722839056348,-0.13271290435012092,516.1611927706798,516.2989636933834,507.9903916776889,stand
14.373956594323873,0.005045670277787143,0.009619493665993947,9.801984556142914,-0.035113349457138295,0.24079261154375448,-0.29996935154033716,440.43642497918535,447.5959958206007,451.53489277095423,stand
14.424040066777964,0.007603828452754466,-0.022908857534956806,9.822090252660312,0.12661304761826273,0.03433555276561103,0.15101151443238092,509.79732775537894,535.7802967817963,490.60408910496943,stand
14.474123539232053,0.06167728513677169,0.004163315493731758,9.846976133803743,0.27651437110313637,0.07570688653739638,0.14130411365591375,491.04569970414343,429.2702140477606,513.7388371761187,stand
14.524207011686144,-0.00024683343350093145,-0.02981276814123876,9.816330289518126,0.1048550724828504,-0.4791127212188319,-0.049454227268042474,458.42122483814273,506.0912623944916,555.395605615853,stand
14.574290484140233,-0.018875610235819705,0.02894467923626336,9.810892635414346,-0.2660097556340966,0.10575011502560058,-0.17087100065576363,547.5676238071494,482.5462760393204,481.3676078114542,stand
14.624373956594324,0.009287568473277316,0.0028047816982088927,9.80426957016733,0.04452612242315243,-0.11855055128245809,0.1061133334740469,505.7886495954017,476.5294462556279,499.68208628729457,stand
14.674457429048415,0.005945873195846732,-0.03238833283675473,9.79194856548333,-0.16462904719087074,-0.023202917341452727,-0.15594372484545513,531.1297616620054,546.900274843837,542.2816260653929,stand
14.724540901502504,0.03102835289146952,0.04139921012689706,9.76410867428596,-0.025711718499073728,0.06637287224800667,0.338996762057471,547.6503018892137,517.4823316724264,525.4360685550703,stand
14.774624373956595,0.007069133804314717,0.01552903246592948,9.80681515638378,-0.1708025417375969,-0.07989036829837204,0.382574801949349,491.06096354068785,492.78530250228965,539.4600654483635,stand
14.824707846410686,0.0066602071194766105,-0.005492513521808379,9.789872670045785,-0.24964147332907047,0.21065632245301058,-0.17042901985820508,534.2797474614715,472.10200799054695,536.3043150174097,stand
14.874791318864775,0.02512092132511841,-0.03245814919194219,9.811711143834236,-0.3499547544182917,0.025427983997301205,-0.023673222087308217,475.9761552207846,533.048985588222,489.5323095186383,stand
14.924874791318866,-0.0022899262897394107,0.00961869726783527,9.814071379118422,-0.263383053674578,-0.22874722555911262,0.47684356958812196,549.1184706295421,492.700372729538,586.1779369681744,stand
14.974958263772955,-0.006661120364170048,-0.04482499698601586,9.77940916682605,0.23074246146165814,-0.11666752023361074,-0.05697901436738588,543.4465944458193,545.2596468797981,424.75240410904905,stand
15.025041736227045,0.0017362077338278076,-0.012528132015653101,9.82644007853569,0.06683011552305373,0.3369291379680667,-0.5904456337599965,490.7889820591631,462.0066100769604,479.1332976710536,stand
15.075125208681136,-0.03038146179741269,-0.007287636460161839,9.749685823517394,-0.2791097374235079,0.4757880401552027,-0.04941285418468265,496.3639182028201,523.2544154016557,541.0939735575761,stand
15.125208681135225,-0.026288035893450357,0.008501112373733785,9.834040699281168,-0.02692457250855927,0.19796973167070087,-0.3524577272781226,560.8347934682187,443.2109344793998,460.1157593694851,stand
15.175292153589316,-0.09684771978341654,0.019468382339856385,9.75941903482458,0.12705536960679042,0.018619927160813413,0.7138873939534667,533.1684312861139,487.11027665143405,515.8168063091938,stand
15.225375626043405,0.03401623380728375,0.009638846700340084,9.760575422943434,-0.04052086865890943,-0.25396784970405123,0.1755141996724603,519.3777910425158,451.8583787358427,453.12242306630486,stand
15.275459098497496,-0.025391282101354655,0.014404874885095315,9.781188574820733,0.005044420641708024,0.27384004895238456,-0.12053266271985852,466.0933993823032,518.6186192093086,507.3939140562055,stand
15.325542570951587,-0.04656137276068067,0.009275408603231089,9.808628491657513,-0.03625060023980451,0.18415904515164033,0.147553746117,486.647288887513,507.43586871507966,393.8581293412083,stand
15.375626043405676,-0.02131608403069577,-0.05551696716825863,9.747008200701988,0.075402467457953,-0.05763496726390826,-0.11621209204306093,425.06862303765155,507.99318908447395,511.76468112690117,stand
15.425709515859767,0.005044316074711203,-0.0029425576852067092,9.813026126973927,0.19303766425484975,0.09701368977873923,-0.12850288157668904,526.5201462962484,512.0023013042818,391.76210621467294,stand
15.475792988313858,-0.006140157112904332,0.03253213745082169,9.823872518005965,0.018404762804239763,-0.3347768919484119,-0.032924546954360666,581.5521693511118,472.58990975914884,486.90164315484355,stand
15.525876460767947,0.02092502421211813,-0.01850126437818833,9.831785906343487,-0.13074376101923618,-0.09181568389683377,-0.07374899291576711,437.1041007815898,518.2796706814645,524.4684224807544,stand
15.575959933222038,-0.01621760708396991,-0.004168988353034989,9.766619967097139,-0.07262892182102239,0.15021308297843794,-0.08310004576838893,499.5646805927873,515.8758304680739,560.4669678212028,stand
15.626043405676127,-0.05155026441465827,-0.06362441014459413,9.813655167604972,-0.17527413624984117,0.2127203468500088,-0.14577953027735954,478.2300000846152,479.43552997266573,538.3299474027616,stand
15.676126878130217,0.014940132279934196,-0.022208547711745977,9.781719448320722,0.020163015602043744,0.08371560407256973,0.10466485659382052,566.3992347188436,513.4241621142821,506.78251000123635,stand
15.726210350584308,0.037658718110521114,0.028595182469395325,9.769897687927827,-0.27742514531136725,0.370653575382233,0.41736859459706865,526.3343654452287,489.68347261371014,479.6619368494917,stand
15.776293823038397,-0.04761925610980079,-0.013675499250075066,9.816806028137437,0.11399346241995016,0.06290191719311271,0.1996517900155335,555.2789778882513,510.3197089478794,479.05375608439186,stand
15.826377295492488,-0.010754382239742122,0.008942641428681494,9.78646408211064,0.15568012403014683,-0.12268772856788979,-0.1276848812843149,473.6898280003707,437.6487110460455,540.4569876918268,stand
15.876460767946577,-0.02925992370659055,-5.3142498301878005e-05,9.828872945740592,0.3438293387294465,-0.14518026125591244,-0.16558023669633376,543.1342774177641,496.32455876148924,464.48288934213434,stand
15.926544240400668,0.061564092237485254,-0.022756768038017003,9.798270995383099,0.05563392700365098,0.706877655551803,0.06030621473375904,495.4631941989063,597.5076389492203,493.98373071435634,stand
15.976627712854759,0.013052074170547559,-0.024584810971599896,9.809475075415568,-0.2284153362603468,0.26742115135816225,-0.1323947971005137,469.6315929175581,494.5279151424573,481.2705711012474,stand
16.026711185308848,0.009377050674844262,-0.007362908617311051,9.787198915464314,-0.39210616718121427,-0.23822074002111626,-0.3046565891183821,512.4709172099584,516.1315208036347,461.58445533465226,stand
16.07679465776294,-0.023951261891614756,0.024432766032132763,9.787409000194218,-0.15643688494732869,-0.02454691193764919,-0.14380515518121093,401.340850103716,505.8736325003879,475.2281116134522,stand
16.12687813021703,-0.04495176659119097,0.00710682668048946,9.82300571766916,0.27033824031116416,-0.2511227099374412,0.18970718366035272,536.3541673627,557.3008601688962,489.21009238173014,stand
16.17696160267112,0.019706779327145527,0.011323980773998682,9.820444972256812,0.2668058620750868,0.2816469496799839,-0.2805954134881911,467.3428154995032,467.795945361274,526.2054922642171,stand
16.227045075125208,-0.022973541686493633,-0.049970969704144,9.784496330357818,-0.19288143908228975,0.023330620784640568,0.0901251598146102,450.28368708282386,422.3024988804566,400.5677044239595,stand
16.2771285475793,-0.03619277620139653,-0.02755386901892834,9.77110789943495,0.04538309990220359,0.16043199270828898,-0.18063698806863737,470.52128937725325,440.55449435015606,483.76404191772093,stand
16.32721202003339,0.008275295052740383,0.02929194678585021,9.771106818961337,-0.35347822975691023,-0.018547189081656413,0.3787012126848633,551.0174315518491,533.4356129954724,476.78365395239894,stand
16.37729549248748,0.03734214997812556,-0.01191291736794961,9.776439651829051,-0.20360195365411066,0.36650384153024373,0.025180367215736025,522.2327133043368,497.34569359671883,572.8059970350541,stand
16.42737896494157,-0.022324148840939514,-0.02086961500511221,9.78435888353667,0.08567661650103861,0.4686531403843743,0.1575614217941401,518.1943670993298,463.20073386665524,486.4139833365159,stand
16.47746243739566,-0.009482430363408498,0.04797158325948646,9.78255327297945,-0.062389002204370214,0.36440363634072703,0.05566609739472561,467.0236472724411,476.85377896978184,433.9136906650889,stand
16.52754590984975,-0.05184137766631195,0.03595209078522336,9.80305422460805,-0.29668454263682104,-0.07000593234120193,0.24429558609341873,468.216701088029,580.4146709754197,490.5607112644877,stand
16.57762938230384,-0.029464394959195797,0.0408755319113521,9.816325967297212,0.10235423360086683,0.1398281123368147,-0.3760901961204159,514.5730643381951,480.00707397171055,494.2738616112071,stand
16.62771285475793,-0.029131039447745824,-0.011988439252315491,9.796092192412205,0.7899317395539049,-0.3603222619981633,-0.11911110678937442,470.5199084067267,539.9108937763746,534.2402185861213,stand
16.67779632721202,0.03890014815562243,0.03343390852572612,9.848483693487804,0.10892635294271856,-0.35448185106791774,-0.14020532765261842,551.5217216904942,494.6341183872907,463.3582476779751,stand
16.72787979966611,0.048182927044385274,-0.013200100753528371,9.793686184214415,0.1965713149577179,0.15933514983070537,-0.13467962867074051,460.7988214220245,469.00900237496126,427.5910787268773,stand
16.7779632721202,0.009216027320446366,0.040975331542275666,9.798004706089063,0.07785044396193316,0.21660853231635327,-0.0004157325216133152,486.94785525582637,509.8356136162075,493.70244598399404,stand
16.82804674457429,0.017664824959392436,-0.019558175281132795,9.75772040731153,-0.039944349754367205,-0.004532573028422482,-0.2400210253347068,412.52756617103773,459.3739350804633,541.5831940468099,stand
16.87813021702838,0.013907277275109112,-0.018536788662237028,9.81160029406545,-0.1325538834548092,0.1357244157816053,0.25306019345782543,511.11498757397845,543.1697386548647,471.315910641661,stand
16.928213689482472,0.0037204825754399568,-0.0056689422107256415,9.794811711574074,0.18039253841398492,-0.044567095549524885,0.08555266538040762,507.789790499223,476.96062435640033,563.7028769141535,stand
16.97829716193656,0.00896569042650093,0.019821575747960764,9.810794761730344,-0.11700055930375593,-0.27335596717124166,-0.08408860028308425,501.80561586428104,558.9661343083817,502.7029629405805,stand
17.02838063439065,-0.016220760234648857,0.028308627403331316,9.818382339633274,-0.007243062639405843,-0.5378343278732752,-0.25040799248810375,507.19670011974495,484.724772719013,495.0879990605772,stand
17.07846410684474,0.03462411408908618,0.027054274481804814,9.817058575556805,0.20128438749888503,0.2106112736835153,-0.015147507783197322,387.2215021341743,424.4025834801228,537.2328084444051,stand
17.128547579298832,-0.019265009435166125,-0.007003949357387157,9.813646393835889,0.49866349913113167,0.3596676183305226,-0.09248620954129,472.71472093702795,496.70256688936166,505.5995243989706,stand
17.178631051752923,0.023161096177162638,-0.002644790586740123,9.781462046422162,0.5355824012888193,-0.1073030121459321,-0.40843052307964817,511.28862332463456,560.9822350736293,530.5084906786699,stand
17.22871452420701,-0.023895567594520904,-0.018285691708407797,9.820786062022723,0.0028125353788962006,-0.2807652758544975,0.08177962031786373,509.0030622591138,508.21069261769503,497.2779533991637,stand
17.2787979966611,0.04041108878148569,0.013714556032451503,9.79775394936923,0.1955613860444083,-0.07307852766939583,0.16362239122022654,498.7713946851694,489.14151623818924,476.44628630375155,stand
17.328881469115192,0.015546155126962377,0.007985580201496659,9.762464635230875,0.41058425839235396,0.0487182222965345,-0.06159676415319467,502.573877034909,500.7386376990876,557.7543383299561,stand
17.378964941569283,0.02284370152309155,-0.031548395877048274,9.793621515612509,0.13105266746126873,0.13251167288843585,-0.37967626672448734,505.6169223854386,583.1405441560294,528.9520943562484,stand
17.429048414023374,0.02532091758530579,-0.011730799746134807,9.833210594325955,-0.03434746547365523,0.16729528603178623,0.19449655393634652,456.6439560836091,493.7640388819214,494.69285138585144,stand
17.479131886477465,0.0042983938296410895,-0.024666902253017625,9.76485156233744,-0.016444287557767848,0.33629705316398145,0.2991422166597866,515.4149451048513,536.5780475191863,452.3500372868642,stand
17.529215358931552,0.0011342225176500104,0.022224358989196863,9.811711199121131,-0.24136157045438922,-0.44849142836402234,-0.17975950282433675,509.93100902295913,451.82596339268736,516.483946402978,stand
17.579298831385643,0.0006197032740571373,0.03571335843419544,9.78873729131915,0.02097134042259699,-0.4887431220083039,0.09535083490820095,467.5030480568724,449.6854140222136,556.7533641652959,stand
17.629382303839733,-0.0224167240636933,-0.01108007789025238,9.764437802047183,0.33844743777186415,-0.1265152257840571,0.04918621550745841,506.257279331409,524.0642906233982,576.3287506300961,stand
17.679465776293824,0.03531696228036425,0.025307046546261966,9.799019764665596,0.3506837325643629,0.013563817860133777,-0.5560723366048389,483.00771424184853,427.50972130624666,513.9706551249767,stand
17.729549248747915,-0.04092233390062392,0.0558539665163103,9.806029568950398,-0.23527570776259796,0.2621029291250929,-0.1375468257030021,522.5706301370165,459.30774317359675,490.7150611388274,stand
17.779632721202002,-0.05656569884838923,0.008903812431276602,9.772966224466874,0.1393208500309914,-0.5195478030642461,0.24480240082243368,461.8110447796017,472.3826956479335,573.3945815548476,stand
17.829716193656093,0.0005199914900431701,-0.0459547228846712,9.76212571606346,-0.43032810013715833,-0.1748311640866945,0.21245265514278944,540.8608556430165,524.507588721789,583.6357177315308,stand
17.879799666110184,-0.00737540525557151,-0.022633185090296923,9.77238096689395,0.17120067675102227,0.03505839222732169,-0.6564084154431821,509.7835405330261,516.2994290566277,493.1697366873832,stand
17.929883138564275,-0.0035519127669383227,-0.032741723454703026,9.8000975277632,0.21785849111501032,0.051000174131991705,-0.24428894204677049,426.2791536434523,525.4819860692894,492.38690442221815,stand
17.979966611018366,-0.007520625685359453,-0.034810641419029426,9.814554286741119,0.358705996175852,0.40184213413125136,-0.11622218429931998,486.8815479658933,490.14409918122715,411.058263534701,stand
18.030050083472453,0.018052357928545468,0.03046301652120919,9.854080860292106,-0.008981675796093967,-0.048970892206672514,0.16030460011616388,450.12541476277534,515.7364898057358,424.2047633297087,stand
18.080133555926544,-0.003520639524639782,-0.011418246849663777,9.82625967489581,0.00211600254156964,-0.11162644378517417,0.13786445049384682,495.9201748001366,451.17560927929566,488.53008764189354,stand
18.130217028380635,0.050926130069283274,-0.040486656197110005,9.799554516403434,-0.24112369533886363,0.12176237444285101,-0.30267494324964156,526.0435242102219,518.3969273176381,457.74710415372886,stand
18.180300500834726,-0.009859885490920317,-0.043644912670978864,9.765601237253676,0.41803905021214055,0.5511222070459896,-0.033688369650447685,541.8806730699831,524.8856119652263,532.3914969826526,stand
18.230383973288816,0.008544663471381553,-0.01581183628235762,9.81399668832838,0.27186521276043585,0.10008655040428341,-0.39499218245331535,493.2254462533899,509.64903835234395,517.4344287163832,stand
18.280467445742904,0.022094901933104677,0.048470573500433635,9.758391912656412,-0.0776675805968755,0.26509868137501225,0.051369381854854165,507.5894066876726,533.7587393574165,523.4863385277401,stand
18.330550918196995,0.028927410436352746,-0.02073279333341238,9.817894785977787,0.22644447049134134,-0.551129816613278,-0.30014109121806404,481.13412716308494,560.780323830126,501.86354121530553,stand
18.380634390651085,-0.06260720034133402,0.027861187070512675,9.816239760039148,0.0914876632426704,-0.29967825155378947,0.19388443390320237,474.99681305265017,497.02707033357046,429.2464030499199,stand
18.430717863105176,0.008636498599028833,0.06858314152597071,9.84857107355161,0.004719085290056546,0.2354595633702436,-0.20671596512324408,489.38451511792135,515.1844689124986,531.0532526236414,stand
18.480801335559267,0.006342303533758142,0.012900166326184945,9.831578994141397,-0.1860203050711415,0.032019687975119206,0.1879613298048107,591.4302722274128,460.11124329530514,496.60106627526477,stand
18.530884808013354,0.017484821616644317,-0.0011348190143370615,9.821608277861376,0.350822441231967,0.18701979775146838,0.5458090611668149,498.17075797311884,477.28544951634893,466.9078412545498,stand
18.580968280467445,-0.001946691111059537,0.015139105145201948,9.80575042883717,0.10696293358656153,-0.02989643236658051,-0.144059428732584,453.9763342495632,466.48282643093296,461.0047373646729,stand
18.631051752921536,-0.02712429657452492,-0.04106541846444481,9.79920719671877,0.5094234433751702,-0.30390619411218783,0.2728583189339705,480.40461923737394,553.4578961539102,496.1515034228425,stand
18.681135225375627,0.008166164881791657,-0.014043080579134476,9.824069983313793,-0.45014201360140177,0.05104436907272417,0.027541539244897113,461.2805285475445,547.3113575032216,412.1432154875241,stand
18.731218697829718,0.0009562264810837329,0.025446162195877864,9.79329193239261,-0.24219582322820407,0.35251866094704765,0.10091992794763535,525.33561563003,523.3513420570872,546.0160347066812,stand
18.781302170283805,-0.006929066258566194,0.02658288261979118,9.791486712813281,0.1454569501282704,-0.1505613733977048,0.021437762099944482,550.6034619342399,545.9420476116098,458.96058189687443,stand
18.831385642737896,0.013673722076282813,-0.03900147665588208,9.842809647493274,-0.037570178571294514,-0.2627756018160208,0.3037878820316984,477.69861483792204,466.4977623075531,520.3177005012319,stand
18.881469115191987,0.0412862842144535,0.04762170713288102,9.785876646965644,0.48054113366685275,-0.17114137815846014,-0.2433665049355725,559.7395816970128,467.8439030342189,534.6899154705894,stand
18.931552587646078,-0.015602883390345629,-0.04610770003281332,9.783463286138911,0.13412039093682407,-0.08779628816908966,0.06833998618852369,457.9900374406977,474.63834483606206,546.9925495704871,stand
18.98163606010017,0.020566376686643045,0.012609422953232759,9.775679989942741,0.4225042120938819,-0.21191573379827927,-0.07142197779168326,531.9282724394809,528.0497424745201,519.266932844195,stand
19.03171953255426,-0.050139724163533024,-0.010398104801090047,9.810022225695384,0.19567726409845881,-0.09496890284172217,0.0426792505598962,451.71962828332533,512.5750327950756,455.74887286221275,stand
19.081803005008346,-0.0712756519578335,0.01813605944275236,9.821101046840269,-0.2728771474337524,-0.1564872734731277,-0.12292455043979106,547.7749087228382,524.2165945883293,509.10499947622753,stand
19.131886477462437,0.04365057160007897,0.030418014185631934,9.776775478326378,-0.08408607929820276,-0.12711990410007393,-0.17362962317595093,576.8137064341942,537.9947263593045,490.53969856218754,stand
19.181969949916528,0.03973101103650878,0.03607066435623109,9.81095692490093,-0.25196464989269635,0.1924580939254218,-0.013940281523300374,507.01646285749285,511.4903984244312,475.92392455096336,stand
19.23205342237062,0.02786659323528899,-0.013366944533699604,9.825524313478036,0.012855648349402364,-0.01402655804925205,-0.097342414700879,502.0740549891022,526.0880557008351,586.4081952396799,stand
19.28213689482471,0.0415331158926449,-0.004883701776895039,9.770364902715095,0.0315640317179633,-0.04267420099749007,-0.3335619491432621,519.4971017851237,459.1208309405652,493.8969423799241,stand
19.332220367278797,-0.03393696719781536,-0.010029700460194371,9.782072986196262,-0.4253206560407377,-0.14208619209272783,0.029128350594716582,534.7599940645529,400.70954857312296,449.8671562482837,stand
19.382303839732888,0.011760067504362329,-0.01598665436454713,9.832247274648678,0.1590210937759447,-0.3103696158331209,-0.1142842405425398,445.3540115400375,416.4947257956242,472.54095551363275,stand
19.43238731218698,0.025452666995649117,-0.026095535680169868,9.76892361245903,-0.049262457388373516,-0.1627676053248288,0.13898908338780475,531.7098253444772,526.6238539649322,518.5043228563875,stand
19.48247078464107,-0.021022378819466662,-0.029132509560228642,9.787667847020845,0.10788611007744561,0.1716527876580297,-0.004038046987780209,480.2049748782858,507.30461320923206,481.6262135637445,stand
19.53255425709516,-0.015253460901844262,0.01339222381487487,9.789372949606264,0.25720302006509355,-0.2486366529900029,0.01741128802793903,489.36902829591537,467.1511494703952,425.7656566433535,stand
19.582637729549248,-0.010162258581872571,-0.02371960551339941,9.871219352917738,0.2331313959949545,0.31179183331723664,-0.27897598331167317,578.8357526347204,541.2974292853719,546.9802528410983,stand
19.63272120200334,-0.01843086924015741,-0.04611895506110586,9.755623871188094,0.28281216487968036,-0.2545235841671627,-0.08392233401948423,494.7201303553555,479.1896863139504,438.2673191660696,stand
19.68280467445743,-0.01858932435411323,-0.0032272177681076236,9.775917124815168,0.00751947751703255,0.24173594119903327,0.06338330568220787,545.9175455084247,450.6184551247494,492.7038034218472,stand
19.73288814691152,-0.004296728017355825,0.006977568420134875,9.761621437042717,0.09048304784171195,-0.3728660424582374,0.4012311710272816,544.4803355270174,473.2921630404665,441.0426670791807,stand
19.78297161936561,0.03317143493403629,-0.012649283594141594,9.783941680371177,-0.23919020167114527,-0.15435544377773147,0.20221379131266068,500.7205117458993,491.03789083630164,512.3986274109282,stand
19.8330550918197,-0.01713796363947244,0.03221279195671174,9.864550538752416,-0.3133211358458208,-0.07644624356175367,0.2733305659465497,550.538153947723,541.5895423766713,409.53943001801866,stand
19.88313856427379,0.02048035293714015,0.012694884779772445,9.77763124972039,-0.08155565684339044,-0.20630662697874397,0.2612126149297093,477.68388632758683,549.299964046525,488.1300097776461,stand
19.93322203672788,-0.03725547431333676,0.013696362568036684,9.818164762414147,-0.0329601466872312,-0.02008664100889595,0.22767370021786046,519.4130843303926,528.3190011348928,502.9776353074602,stand
19.98330550918197,0.021701436815357036,-0.0032386271074667378,9.830640264727384,0.11244633927466016,-0.19380849953288148,-0.08075471205483883,500.8375680798204,525.9288195256314,524.7209429790204,stand
20.03338898163606,-0.02011102064799132,0.003768463150632416,9.831824705854105,0.19425305674096885,0.1705106830396374,-0.12003061097171755,503.74528653228305,555.8743657678183,467.64624680407377,stand
20.08347245409015,-0.008526478032869073,0.018380044146712037,9.783296445409338,0.05549091850841015,0.7227846086798568,-0.3741785432426564,496.9031342518985,469.2364855788645,561.5940079951955,stand
20.13355592654424,-0.017575557476983708,-0.07719278990770173,9.75692965186431,-0.10512518212754841,-0.023720594586294354,-0.013775095502480373,425.0723851733278,514.9920660645635,489.40468060599176,stand
20.18363939899833,0.010023059797969372,0.013616127581535326,9.757879944244737,0.033224894425940704,-0.3036099122711515,0.10956805635284345,473.29435595193746,556.2958435486388,504.18013283892003,stand
20.23372287145242,0.015040906241907279,-0.03129052376817923,9.76486559646363,-0.22319459608712522,0.40726112861296027,0.44240113124980524,477.27366326306907,496.146531672272,492.2226641866662,stand
20.283806343906512,-0.017073512771376698,-0.03728524543290167,9.783469975361431,0.006391825956762837,-0.07527481694173281,0.33668136380177777,466.95806314576515,506.7413750400913,465.8125086847649,stand
20.3338898163606,0.028035509691393012,0.019606148842112744,9.782906210869738,0.1753718361929177,0.1540416846266474,0.2642143892276848,463.8686939119383,549.5326488834806,490.05977807838775,stand
20.38397328881469,0.0014960201561103337,0.051597523410428905,9.802564178666435,0.16556276754344904,-0.10446638463758516,-0.3279479768333156,521.4545348489387,492.10482639050474,518.0286668937428,stand
20.43405676126878,-0.006443357370381958,-0.006718960322881384,9.803130049416959,0.11334066161283372,-0.06319272655709174,0.12942609259575721,498.4163476636556,555.4523091047149,516.7323194190122,stand
20.484140233722872,-0.015113140626835955,0.04822945169327115,9.778845139352299,0.460173012805151,-0.28062245460742136,-0.5309391076817769,483.90245707227876,486.04976793308106,521.5945522643293,stand
20.534223706176963,0.008747772407223992,0.019689159068620565,9.80303040112973,-0.14603567067605697,0.2556971597331224,-0.05323447423804412,533.973994421473,550.0143063493731,513.5543713162641,stand
20.584307178631054,-0.00514482343828794,-0.019705889742690302,9.78279635914885,-0.217250342217366,0.08729572053633705,0.1825526368878482,465.34824641263674,516.5618854113412,533.332859638268,stand
20.63439065108514,-0.052388643914236324,0.023438411610664345,9.786510449469702,-0.17877343287147843,-0.09662244978027819,0.23504435452694164,539.8364466707079,513.4862574470333,530.7437934427952,stand
20.684474123539232,0.03237436886072058,0.06133892604652634,9.84574599152847,0.03315488793622346,-0.19262964788892706,0.11047376166531606,528.027925164154,491.3053947729672,519.7223294495451,stand
20.734557595993323,0.010810936595150478,0.06433127401125835,9.790266064252826,-0.5567959237230085,-0.08253547302908835,0.1434400418379434,466.6346565310233,482.28695796533214,449.48186928471483,stand
20.784641068447414,0.024070014852507413,-0.0013055828340932732,9.771829680909978,0.11173467227377622,-0.22957026047642007,0.17805620003993852,473.7621368569769,492.772172772469,508.10347010641425,stand
20.834724540901504,-0.003099549186355244,0.006608346412609788,9.844110246350048,0.45598947336176177,0.010475167449576503,-0.4986770215661555,488.97047770013205,350.26713679595713,508.12066737555745,stand
20.884808013355592,0.0014975260593554779,-0.032325034609974296,9.810862842662056,0.02073414127217717,0.3118276363389911,-0.4300839657116314,428.26328281099825,517.4062322139315,528.4809915769275,stand
20.934891485809683,-0.010190056843021378,-0.018150852403051504,9.788991028414447,0.293311228922758,0.5298108248842965,0.2323800632941005,494.33400820338875,467.3378699134224,506.38642960328104,stand
20.984974958263773,-0.032873507443884876,-0.02757232475395932,9.739531407048556,0.20804616096784878,-0.1848875571655399,0.323715466150744,521.7861757707145,531.3949086689,437.4539908312634,stand
21.035058430717864,0.017043949543561546,-0.047945737263883945,9.82564541269213,-0.011048382579125734,-0.07577409199765321,-0.5487861887100113,438.2958236499951,490.0163053513356,569.0524063877754,stand
21.085141903171955,0.01002346450766936,-0.04184086385139221,9.885332092387094,-0.18500767872213844,-0.07714094478228964,-0.22233895586850805,449.48942194509635,524.6171959139202,556.8420167519042,stand
21.135225375626042,-8.108408823946645e-05,0.019322936250209317,9.833531117869747,0.28766660258980004,0.19119811404415293,-0.3888185373620065,524.5944685338196,489.1706504381917,502.8410444876462,stand
21.185308848080133,0.02162841647072579,0.0025890604274307547,9.76618556912675,-0.029421876746245915,-0.31964741976208993,0.386581754709811,443.41554930133725,403.3468511715173,558.9986608409292,stand
21.235392320534224,0.06257405364582154,-0.06694388308483451,9.784907974120173,0.2504389381486383,0.1322803100415147,0.3401913575777344,539.3996709585933,523.7560702267932,562.7391022803582,stand
21.285475792988315,-0.021295800531853704,0.04502355221212122,9.75720156103174,0.2742381453046855,0.06033353391289121,0.5288720411575629,488.88087458482835,530.8619448241411,488.2499032393408,stand
21.335559265442406,0.012325124521401179,0.03590427187084595,9.803485522976422,0.16781547661947782,-0.20121115744325888,-0.19253662662307403,494.3192933813635,489.5948209623187,540.6265998974168,stand
21.385642737896493,-0.021236422253797835,0.010056943838401333,9.770625156283902,0.4290349848394112,0.1523708922598747,0.047694726571747115,484.3500491189177,478.690417026774,535.330302048973,stand
21.435726210350584,-0.01183880416137155,-0.007505808951358439,9.78629293618725,-0.6723199965089887,-0.2787739206461767,0.3715715678120744,486.82966843409713,507.1917356876079,511.1150652629935,stand
21.485809682804675,0.02157006754802561,0.021408552865188397,9.789141311356255,-0.33610366319629487,-0.22468219512945928,0.23169991789333388,563.0074961936734,485.136861248087,528.9634541617562,stand
21.535893155258766,0.004185238102471289,-0.006371436257037857,9.82830016470208,-0.14082940273175826,0.48777422744090043,0.14448967968561555,489.89152423182463,550.9827627485197,513.9259991680018,stand
21.585976627712856,0.015715807109223975,-0.04185199439502316,9.79915101892261,0.29054589834622874,0.004024790743239274,-0.011912242472346969,587.1690369410908,519.872606276481,524.4369311461681,stand
21.636060100166944,0.03696182964223908,-0.006430686903724031,9.762227075664864,0.029626517933636496,-0.38238106737300864,0.27146583254797196,421.82319426557825,435.07518106447606,441.06915690256716,stand
21.686143572621035,0.05639089777898583,-0.0005008462382677104,9.856039962473835,-0.2301238488886234,-0.10596187858965633,-0.022134599625934174,550.7186840982793,589.0563753982303,487.490147151725,stand
21.736227045075125,0.03192118769575285,-0.006562763402425065,9.79773229232408,-0.28385578747428664,0.20036364640338938,0.16418129100326703,497.71001033954076,489.1462259671346,466.94707678397344,stand
21.786310517529216,0.011198565228721369,-0.0030239155884242003,9.801561749388615,0.15146385639877244,-0.12185359884245296,0.31185329311348653,494.88592125719816,489.1885348051501,495.6703455277866,stand
21.836393989983307,-0.001883094006309191,-0.025194152302813078,9.832043898281757,0.3071440720574049,-0.15334173934080414,0.14338434144880477,495.4321412424844,522.7605608246242,530.6406122790355,stand
21.886477462437398,-0.021503264778956824,-0.032333425342936456,9.813590389774982,-0.39163641453167075,0.15023434811684558,-0.259903724670867,464.14417144277286,523.5124192746714,581.0667722660653,stand
21.936560934891485,-0.006518530980298823,-0.005973324874229621,9.814888546125314,-0.016428935369645122,-0.16256764340065427,0.23668837593286263,539.5042320980364,484.5493009979828,505.3885448723157,stand
21.986644407345576,0.011878471521510225,-0.005996245523896146,9.804773134258358,0.021638205835381574,0.10953130493291165,-0.5794120282549167,489.3323921191834,561.1723591801433,524.3891785156053,stand
22.036727879799667,0.03304933147294174,0.027330381292849766,9.783206818050177,0.12792308821838086,-0.28690023806322423,0.040518880796690825,484.42772384445584,497.9687555027878,367.99395498641496,stand
22.086811352253758,-0.0005366996175550365,0.015238228081168308,9.81222759708613,-0.07347481416992645,0.22293945757994432,-0.4701149099715883,508.5850440344238,534.1145046554474,545.4707761152675,stand
22.13689482470785,-0.0076845486946668234,-0.012324240638716594,9.765642102729705,-0.13406211596219694,-0.278145941396121,0.0269937867137386,554.1151284556742,444.7642967657978,522.8153493729523,stand
22.186978297161936,0.016972062344347214,-0.04535822632249134,9.822346038702872,0.18526697184789204,0.11770528621170452,0.38186439081187834,522.9276709093278,567.4452054382286,463.2391147214151,stand
22.237061769616027,0.013848150434780632,-0.011755187942123255,9.832714184184264,0.14160541980822342,-0.5877368089335144,0.12589813601567326,505.74413858369377,434.0777651280183,491.3900449083732,stand
22.287145242070117,0.0347347582426116,-0.011585056479030673,9.815892134689731,-0.05146892416636132,-0.007226615317288772,0.17923423913718997,510.23547001630726,470.48968145907446,534.351608319173,stand
22.33722871452421,-0.0299337413797545,-0.03964247893374068,9.728775943095753,0.09523401521918932,0.06501278145476393,-0.23181175750392274,491.73164706337997,500.0640976129093,546.9561144269169,stand
22.3873121869783,0.016021620927220537,0.031238788412640574,9.80666118614324,-0.2679938597616323,-0.11131627908450764,0.06944237403303102,448.18990998489977,551.2849603465863,545.2152404644708,stand
22.437395659432386,0.015137406205991813,0.01750958114172927,9.809022578366484,-0.09041443851703687,-0.10738741293046682,0.23823861266237567,484.260162344321,508.20836046208007,487.70027580324626,stand
22.487479131886477,-0.009568236781647504,-0.01612396210665218,9.805922460999284,0.6391048541494968,-0.02188940248271165,0.08035397133121368,461.4972075204766,476.3545371643965,573.9939635138485,stand
22.537562604340568,-0.016120139521400567,0.021769254812995978,9.749333790542488,-0.4029890286411155,-0.16924228031995692,0.29209535220348015,532.4796693803672,517.5364646658174,485.98563144569334,stand
22.58764607679466,-0.01649840727250791,-0.026548609858775454,9.80548794975727,-0.1188979376468468,-0.6206499124611854,0.032337786969573505,432.9210807990915,576.1961109485321,439.73735680718113,stand
22.63772954924875,-0.0005889207939811791,-0.016593705523444024,9.819219663617384,0.30129084295627206,0.275196112942212,-0.104410451974206,555.6179795784476,473.61307626015224,508.9411977046419,stand
22.687813021702837,-0.014877438569347173,0.0355967359686298,9.81121314187231,0.15615023275982676,0.3439542673152456,-0.10237474820013943,497.5667484488106,510.7426276023702,556.3794201385915,stand
22.737896494156928,-0.03826421894941841,-0.011711112678003233,9.78060823855586,0.17350402065493792,0.44443624610287147,-0.07526183578687679,402.9100131340024,452.92352440387157,502.10094278716457,stand
22.78797996661102,0.04339356790525316,-0.01338189684607359,9.820570580957668,0.4591830243116544,0.19488484916846036,-0.11544753063172242,429.2284462621519,536.1548675773635,561.307142278058,stand
22.83806343906511,0.01488554137780411,0.05061987503974736,9.775665412825772,-0.3064099060320236,0.21891307352175118,0.21769122131954854,549.2026239810781,555.3871911197444,496.2524775348204,stand
22.8881469115192,0.035742933269280866,0.008800929255290788,9.83529535014465,-0.13096024666968772,-0.07386486611647261,0.4560252137855291,481.7040119269443,471.0359810309464,520.5517900718728,stand
22.938230383973288,0.017509136194537048,-0.011741712196849718,9.843047861678874,0.32178887373480863,-0.14283654842402577,-0.1156951966788707,458.0947188959603,451.42250471103125,498.5776998297655,stand
22.98831385642738,0.018691929713858038,-0.05415888425806853,9.782921053638791,0.08062586916795401,0.3937963586646333,0.1924443414421425,544.4964671534195,463.9786184078244,448.7913427202881,stand
23.03839732888147,0.02341451588399139,0.0030034934685981007,9.833739955847774,-0.14541021558075506,-0.3528889923839047,0.10472034423519411,542.3299681731709,449.45693826913305,496.9348422117419,stand
23.08848080133556,0.028437237030712673,0.007812105781994649,9.784188044437023,-0.16609865076843422,0.07449352391603918,-0.1469806364353413,532.0514027784542,474.85740217583873,522.9640706840523,stand
23.13856427378965,-0.009309472357507995,0.02843579191091517,9.816944858242765,-0.03007927947143134,0.15977887634506469,0.028970713825084357,503.24408345278647,527.7021437279051,540.763426994056,stand
23.18864774624374,-0.00853156978337788,0.027464825227420303,9.821582468045426,0.10724739568026798,0.28211477279199826,0.0664098857163487,502.35105084596444,501.2727199413545,461.77293746786177,stand
23.23873121869783,-0.01265252218984246,0.0305224789539702,9.817131116316382,0.04433002001952852,-0.335975266651046,0.23380589719111833,460.4543097337811,520.8598734688352,510.5880442272734,stand
23.28881469115192,0.05219483171947982,-0.012866007604171448,9.798730791762722,-0.10256538419883816,-0.34081003320426834,0.27070179363379576,523.1056103146194,560.9433749874108,512.7312100050451,stand
23.33889816360601,-0.0844142415569327,0.029455861263715064,9.813646074102834,-0.20436566156717914,-0.11500440624894762,-0.30619039760624156,565.8990752258246,484.9680431814734,469.19593795163075,stand
23.3889816360601,-0.007202860728014321,-0.03397666426645732,9.762121792886271,0.3452014403587514,-0.3615564827870686,-0.16387755533498,478.9560565323984,476.7218240347254,440.7197139894679,stand
23.439065108514193,-0.02565327542167678,0.05306086333495887,9.818251679603,-0.00019967618564721717,-0.09611157973459486,0.029907986163090938,525.2606137911247,497.4020147086653,559.0821550817046,stand
23.48914858096828,-0.027553885817255902,-0.022883294517913516,9.804673150086675,-0.25246724440572293,-0.1893332826024977,-0.16706701005802269,421.1589917092913,529.662102908596,512.8166140117768,stand
23.53923205342237,-0.015765534275216167,0.01809155811753678,9.800461268687137,0.10953111449887097,-0.5465525722958192,0.16971829956377688,508.098491701485,537.7213992947236,565.4093200518877,stand
23.58931552587646,0.06988703628686481,0.0012216052271540323,9.815291822665612,-0.0493919758705001,0.28390791294650425,0.023388651984639436,504.3836321983963,464.7672814000599,557.3639085067961,stand
23.639398998330552,-0.01269377526823287,0.05153708195473733,9.777688541839897,0.3526125319857555,0.11184210430369296,-0.30102721212024497,521.7241315853386,614.2063734310776,451.9074994242918,stand
23.689482470784643,-0.019874041281955107,-0.051563035761281295,9.77657754595969,-0.04487679251005863,0.045202910328429775,-0.05605313691133475,505.44752753906323,417.031081484694,502.45474843025715,stand
23.73956594323873,0.0908294313640823,-0.0322643662093256,9.837831894640193,0.02257315038403027,0.10463891269940932,0.07383563880479375,514.7364933013525,491.95656283741,428.53412148069634,stand
23.78964941569282,0.00888666387832697,0.00391381370132908,9.815108009674516,0.09677886549003725,-0.05009710686063595,-0.0062329159526486565,517.549587029895,474.2332955015517,445.31477170520066,stand
23.839732888146912,0.05206254783407492,0.03157238918777679,9.812668920635332,0.03192172658281335,0.11078574827868187,-0.35169178704594345,540.1528002037637,468.87839915055844,580.1873115268129,stand
23.889816360601003,-3.2586780846693975e-05,-0.015316791005278108,9.814407392043725,-0.21915848492814796,0.19985388837414297,0.16935298992829967,515.6380189065301,562.9096349567753,427.37072540498775,stand
23.939899833055094,-0.020824498656258975,-0.011018924936077215,9.80986792701655,-0.23750506102205882,0.3073448222079229,0.5295940138471692,498.5908753677034,535.3446516599195,513.1647792788967,stand
23.98998330550918,0.03181213123058736,0.01567077131735945,9.749399429786772,-0.20237136693330043,0.18062023942007782,0.22209943104407562,452.6585935828669,455.7606991892712,585.6432523221971,stand
24.040066777963272,-0.014559339777155234,0.022095229570581812,9.842461342991406,-0.10413768796880594,-0.10090969662128313,-0.11893637528540676,541.408608978619,549.2538070853033,526.5006610400657,stand
24.090150250417363,0.03301314026022466,0.004065503334671879,9.794015193780583,-0.13345960774494767,-0.01032051777609105,-0.2675384274722836,525.8810449120931,475.91955954268315,529.279508025157,stand
24.140233722871454,0.021827070549780184,-0.002958686516151332,9.786152421430641,0.0979466695977302,0.0857294719158292,0.17467594630875644,484.6197482852865,469.72813587376794,473.8147721228562,stand
24.190317195325544,-0.048465175060223194,0.022175151664938268,9.798862447257992,0.38671430288405334,0.013775344157411572,0.4409005822103017,542.3006118540577,516.8412046895311,487.80766347807855,stand
24.24040066777963,0.0036553928291981758,-0.025115962151711052,9.817493281744314,0.0303734926590003,-0.16597395311640134,-0.7230491315075585,584.6877190495355,455.18232933075194,466.16305065489655,stand
24.290484140233723,0.003355869086166474,0.0077071791223857,9.800990018913689,0.12233145045305717,0.46650497845027655,-0.22641890159672004,455.9861477354699,442.5146075820496,485.7392661745716,stand
24.340567612687813,-0.04270479870148214,0.03313561763573151,9.819764434944483,-0.15337115812588778,0.4276440542593606,-0.21745047167087744,504.9437231515292,517.2601405453728,506.1395315423566,stand
24.390651085141904,-0.026209763052685908,0.01485214023300905,9.770640613527341,-0.21637181341947578,0.021276340843983065,0.18942975201261472,457.1347664639221,502.99659331194533,443.4159522211871,stand
24.440734557595995,-0.015719990618953517,-0.044950977213350896,9.788510300183002,-0.4082583976952937,0.4031210363694503,0.3266192443751047,458.21284589811137,518.9086894214745,465.58072360080456,stand
24.490818030050082,-0.021015248880724396,-0.04517503174746945,9.855573859146647,0.17011259049289698,-0.1325939631225925,-0.17708865336621937,542.0705982584767,450.67287995992183,542.2005687994988,stand
24.540901502504173,-0.005252227300535178,-0.0038858138257116537,9.808283891780235,0.2222353653879223,-0.2842982337714005,0.17014196602637055,546.2391527727918,470.5901467461894,511.67757056568934,stand
24.590984974958264,0.015949107979471563,-0.027606232973931027,9.814568179873707,0.2696814036514246,0.2548886418353614,0.87461415953075,544.9806524049702,553.183668677173,561.6300020901081,stand
24.641068447412355,-0.02189935059408102,0.05437900166393123,9.83804702874083,0.539262941804255,-0.3836523996835177,-0.3504969698548933,535.472057614101,577.6887155866774,460.4527333783972,stand
24.691151919866446,-0.03356347556626308,-0.018484327469867792,9.766163430013405,-0.2068877547122112,0.06352675393440445,0.19170905292667315,516.4602238398163,438.76114955809544,526.7871055674616,stand
24.741235392320533,-0.035223624367353545,0.01685877912333797,9.779071592394565,0.30647542624982044,0.2993514913670853,-0.2555370165856102,448.9779302782699,417.67207233726333,511.72532892790036,stand
24.791318864774624,0.05416022606571806,-0.03711178446242179,9.785579933645945,-0.2082522235646933,0.23916267919765963,-0.0004010376795901401,529.7749215970382,515.284599609412,571.0322653310212,stand
24.841402337228715,0.006398534058657618,0.051076676315724566,9.78672769329582,0.017806438958449976,-0.1709096844353386,0.17491770882206395,496.10048235293664,499.6335664764653,507.3277656754332,stand
24.891485809682806,0.02143932638883797,-0.04248840035333942,9.791722990819713,-0.24655280075898423,0.14641348078520822,-0.32403643205499744,462.2019095957607,505.5841740476152,540.38344261208,stand
24.941569282136896,-0.020436857689178772,-0.0563489011437695,9.757705269921846,0.423664000761238,0.13599208799893336,-0.02112732477551025,489.04624852661397,538.9023299702013,510.0883470961,stand
24.991652754590987,-0.012114298461135306,-0.01580986724981004,9.81649657879871,0.4198207685185172,0.03176861198504198,-0.360095939065004,553.9984107672301,503.8224909342463,476.242720090817,stand
25.041736227045075,-0.03510891664230495,0.03641699427903865,9.735864407191478,0.3032972940639435,-0.00990463245717745,-0.4363912713576792,512.6129854104109,459.6435954417097,461.19212105652826,stand
25.091819699499165,-0.04746055652408896,-0.005470671631532573,9.813559477717055,0.3311869855090952,-0.31932334347547603,0.14813039104285672,475.73083578348087,505.67115816446,476.8448417120014,stand
25.141903171953256,-0.0069414127155300875,-0.0032890444335138547,9.811522785173473,-0.04596193133292251,-0.056041856909956576,0.10582623404011682,507.5347752230246,580.4873068845015,582.0888734355294,stand
25.191986644407347,-0.03182253669382002,0.007906543052016095,9.785647665973324,-0.1536637271036234,0.25415865035920193,0.17973140171216068,458.80810310197734,485.20702949407,508.76770710128227,stand
25.242070116861438,0.024452379990979767,0.026819044433633074,9.801070072885661,-0.24372588913039228,0.11323506081451194,0.44560903467067586,525.3162428464874,517.2367874536249,492.68192742143816,stand
25.292153589315525,-0.009226814648282788,-0.009791110474685519,9.822980755292718,-0.6484792918769918,0.49012901870480674,-0.1130294557391054,448.92102414688674,488.45521857986904,484.53802885455457,stand
25.342237061769616,-0.016578333835717093,-0.04163293603337176,9.821400209169656,0.21458568938629347,0.3088880591485264,-0.19720085961529968,448.2885021817194,446.9550697852954,513.3182068776451,stand
25.392320534223707,0.020199739048893217,0.013783446447626871,9.838459362126565,0.10118358844366582,-0.13979582236767116,0.2694727000796537,481.88204480655054,504.57363000007757,530.0568592669905,stand
25.442404006677798,-0.007902296381666438,-0.03328801560043908,9.816273580348158,0.26481349117586883,-0.20230368830305973,0.24531980516312568,571.1438264455,497.83649181882305,502.7337212412859,stand
25.49248747913189,-0.018728125384713724,0.009333139359547611,9.850309742515718,-0.14662753053833041,-0.1839000698713766,0.11353053754390091,528.7491999187262,481.97002485093486,548.2042528192466,stand
25.542570951585976,-0.04279401291432119,0.021892871929869925,9.820098912905154,-0.424960316022751,0.10029147607131264,-0.1514848134881147,461.1220981096497,508.3440010757446,541.3088858726669,stand
25.592654424040067,-0.021985862144840912,-0.05357558989529351,9.829868854754563,0.21651227624649128,0.2873085752699992,0.008349019405194582,464.3733774195457,446.80035589091995,536.82503093669,stand
25.642737896494157,-0.02012380572951719,0.02058036965010003,9.793154440996142,0.10827041459274246,0.21907808048019908,0.21485034606879602,456.1887025145444,486.970881220234,496.08245983787566,stand
25.69282136894825,-0.00911078405989385,0.0021057328539311956,9.790744562352756,0.1672958266745316,-0.21715860969833178,0.06988397359900718,547.149527691597,485.67788210219504,534.5141948226099,stand
25.74290484140234,-0.042209618407675724,0.006454176633388528,9.808230592902593,0.22690166278733226,0.0757986627980091,-0.14222310085103843,492.44873022443926,469.86242039818416,489.6776202827191,stand
25.792988313856426,0.015193404931426402,0.011114055634522849,9.859142353877024,-0.025843670235749995,0.32677427479762916,0.08119214535420059,528.4905381930163,474.4215065033824,508.88142872211245,stand
25.843071786310517,-0.0061103371979879945,-0.04436993090457572,9.80088428460597,0.31843501039328537,0.048062502027788154,-0.09893253131510706,529.6874896594794,506.255605740201,510.35428707571367,stand
25.893155258764608,-0.02142002699276644,0.016533553499639836,9.802689547585004,0.2072710190339409,0.0072865047547296625,0.12883487999190102,484.2400806774636,447.6949007580174,490.1078906494148,stand
25.9432387312187,0.010904008586560973,-0.02927006895321564,9.820446013548215,0.05453323232360955,0.2892487302911872,0.037666743615373206,463.8787103602454,485.9031704238855,463.0098401289602,stand
25.99332220367279,0.05056708815259238,-0.011044332145925345,9.819615928077793,0.07818816387397903,-0.09184700662429429,-0.13727601720320054,526.7910274798762,546.249048540363,475.04230390487936,stand
26.043405676126877,0.026066122897288338,0.021824273586895718,9.843066301730708,0.17180098741368632,0.11400333609925921,-0.06795775073493397,456.5723307141555,474.98242332995,504.95652586535067,stand
26.093489148580968,-0.011724437950493508,0.0024536037717701117,9.760490367038617,-0.29647173568376944,-0.027646355631605283,-0.2929038358725566,463.58189896590824,599.392459011271,510.2817592490116,stand
26.14357262103506,-0.0376779412988466,-0.024821441794421625,9.790162686990588,-0.09699368272923675,-0.03494803931499542,-0.17216997393749206,482.82975858594216,597.5773639796971,506.12544760731384,stand
26.19365609348915,-0.06260129265241066,-0.07139818762657976,9.843724003248028,0.003849458781065549,0.037120166043513855,0.03204736529081735,368.129479386,483.13531054315996,503.0887253546572,stand
26.24373956594324,0.006010924693556158,0.00683398467562505,9.782182520364897,0.3676611531230444,-0.09087920773489457,-0.3371791462081026,468.63285819031864,443.4004400884892,490.23460298461146,stand
26.293823038397328,-0.04033287375439361,0.011930291827579528,9.816198396352279,0.036901224391250306,0.24814654257633606,-0.3213634105168084,455.42835367997407,524.802832293633,547.1782938628373,stand
26.34390651085142,-0.005980544403732288,0.00087323480490481,9.790125868345282,0.09804863111018867,-0.6745561994860559,-0.10461310631467581,465.07987393031715,476.0542311613118,472.1586615602693,stand
26.39398998330551,-0.008836596196648047,-0.015888094701969488,9.75369567355351,-0.14442313567876747,0.22831927510181574,0.08994304967982567,457.9439331670424,433.2673522282413,485.71206128019486,stand
26.4440734557596,0.020200790864721194,0.02889640967736991,9.782167626660003,0.288498668621356,-0.1848401256412979,0.1668857011031771,532.932112930687,480.32553036541555,492.38225285859784,stand
26.49415692821369,-0.005008967960536195,0.010198867273270039,9.825063317122796,-0.026778639772488035,-0.32267020338974933,-0.18759276884228968,529.5535321923082,517.8810506517988,477.9145743782739,stand
26.544240400667782,0.013975793060412689,0.02963719668831306,9.815329663148228,-0.11884194903953804,-0.05067774562289807,0.3924610673482646,537.4658257743813,488.3593039594646,524.4948642920644,stand
26.59432387312187,0.010472338402108247,0.019305817855370166,9.819135655621029,-0.3695630898098701,-0.16979973838228715,-0.4681731103980212,514.7592079565661,549.5563867896534,507.5700198643186,stand
26.64440734557596,-0.030022896463536473,0.005412119314145113,9.828144502396281,0.09253975428133385,-0.06653494889029352,-0.09771664870482077,434.63595643321565,567.8697036772694,565.8992640881987,stand
26.69449081803005,-0.00848371357185225,0.020141138356668226,9.762097450924518,-0.056563209964101115,-0.02288052984307679,0.24866940192007575,523.9890481903834,465.94411613035504,468.531447926181,stand
26.74457429048414,0.01183053979734977,-0.02129827950742627,9.819570020018986,-0.21888701591691714,-0.06571717064290512,0.055042128042264105,416.7415256460278,515.0010428212881,556.3445678682909,stand
26.794657762938233,-0.03876685668115464,0.024898042850773988,9.802579888099604,0.10850750153388716,-0.057115299400317183,0.09990911096469549,448.6888261475925,502.2069315223651,555.956130082243,stand
26.84474123539232,-0.011433972311436419,-0.024641109907640138,9.8162910150759,0.37795687716441984,-0.3892850160606788,0.1989269487165698,529.121172071627,542.5690211060842,539.7829757713772,stand
26.89482470784641,-0.012963321535946551,0.0165054850567012,9.802071998239045,0.1673944563216103,-0.11720145815674932,0.05893205300062977,532.4176414965905,502.7464061679869,531.8405696880163,stand
26.9449081803005,0.0552152517719663,-0.039678480099783864,9.799019847003235,-0.05974671462377546,0.06563579438673221,-0.066918750420429,534.5782193774035,389.1151031298981,494.4883212904006,stand
26.994991652754592,0.04037491954844123,-0.03999071359179976,9.807538488886456,0.27075128274622523,-0.050122927359265594,-0.0959378008731532,511.2034604250859,568.4815921199104,521.9103082030817,stand
27.045075125208683,-0.007555364564012276,-0.0033329988504804536,9.819531443879802,0.1866773941644574,-0.04072607542525276,0.2512603234941866,493.29140415702796,419.91174620492774,494.4599810000602,stand
27.09515859766277,0.025533279270438372,-0.03519632519571758,9.765734227749023,-0.19414358971143364,0.13577605756172542,0.13136358805922632,506.01280367772256,547.5883583029433,506.02558333985075,stand
27.14524207011686,0.022874051100238615,-0.04256861153460882,9.781162265142605,0.0844504171586881,-0.3213359176708053,-0.11065203630080063,448.7863953384348,537.9987952092658,452.8634199368789,stand
27.195325542570952,0.04641174193506985,-0.014023563570768852,9.830327254027047,-0.10195194540862429,0.36258739804935886,0.48776027840162417,503.2914405222616,553.3026624514338,476.67539667713817,stand
27.245409015025043,0.02596233218499168,-0.0436802559522072,9.81070087021166,0.007261904785655473,-0.017489216343365182,-0.34859657231191415,517.3990230816394,448.85960491235966,496.69096464765045,stand
27.295492487479134,0.011258676276184515,0.03970045716274412,9.790040044922502,-0.10471535141603443,0.06343596059461618,0.12347010380467936,541.7689697957258,498.5497399221,460.9526131717502,stand
27.34557595993322,-0.009557811010122638,-0.01782227330794746,9.749576297227879,-0.07471352328886531,-0.09482652361466662,0.029661454757401035,552.3959296008416,487.9233550964107,515.5863184885742,stand
27.395659432387312,0.017725260086608616,-0.036570425867188006,9.753164628636169,0.20685346565256552,-0.23792782072628804,-0.020185336245047203,473.3261111005864,508.13745617071925,481.3844780008815,stand
27.445742904841403,-0.0021658948777822234,-0.00011762796063859854,9.820271761422854,-0.22377388070959,-0.05124387001673272,0.05578178069974749,457.20632129590956,548.2321716808682,403.0326460426327,stand
27.495826377295494,0.0722860759683502,-0.006256611016576402,9.802138862501995,0.2642914195154021,0.0985649221387062,0.25758888697222737,526.8465160548676,495.65453231281583,494.98343545155876,stand
27.545909849749584,0.047520377715365394,0.010726863694641951,9.798464375535628,-0.23683841103375788,-0.11146204747696398,-0.19060222114910388,493.5755854422552,472.88385913422064,463.184854380653,stand
27.59599332220367,-0.0316087512695876,-0.0021727856378832983,9.755395871373395,-0.2784720005867275,0.21265193423141085,-0.0602809226729783,450.1236340531438,537.4687437897924,486.56392603176863,stand
27.646076794657763,0.052307783544276634,-0.0028634003116865536,9.797162829728446,-0.1038511390619816,-0.06174866152962381,-0.00530714688174117,494.4426423087566,573.7597087570517,511.2723362109784,stand
27.696160267111853,-0.02895118832898364,0.048306465321526486,9.791434086376611,0.07721843136912523,-0.17773877232294086,-0.053122374217179524,496.62519985226425,542.330538211211,553.1162585994645,stand
27.746243739565944,0.01830741612276976,-0.0046896841160253555,9.788493132630084,0.22227134583426608,-0.30025188478777426,-0.02878186159649922,534.2098138068948,600.3834800031736,519.2237313334393,stand
27.796327212020035,-0.013643753292019958,0.011021230506887844,9.83002209656691,0.3150360560190344,-0.0820178409768585,-0.1502506531153057,546.7555332267741,490.61989453359774,516.4467927143914,stand
27.846410684474122,-0.03847666056144238,-0.055865908787083335,9.736744864984914,0.050467370836874324,0.23818579677806628,0.08345953928334347,462.7566927743093,539.0390709324731,469.89782899102374,stand
27.896494156928213,-0.002745028390823051,-0.010700800877557246,9.759143363430447,-0.2922333303009982,0.2324386782216166,0.3456204072993179,557.9750040219449,476.59545640601743,518.0562956589645,stand
27.946577629382304,-0.019808638906734365,-0.019788415769258466,9.746372154221293,0.106234649730207,-0.29866603606542347,-0.3887907658451861,495.3718595397128,526.9516918734347,493.4716048677045,stand
27.996661101836395,0.004690084984326659,0.004744549178012071,9.782165060418688,-0.35517087251793533,-0.4590551867942727,-0.2060194221354768,470.25307750724926,488.8087907626357,458.8282393205583,stand
28.046744574290486,-0.02942912026186563,-0.015055879954568585,9.80897636438885,-0.3355684543890199,-0.14390489134485707,-0.08234384872656064,470.9607510947694,575.0318686901654,471.24916579834786,stand
28.096828046744577,-0.0027366382914508353,0.013410613217352887,9.776417157062818,-0.3273469096452979,-0.17810498209566106,0.535014135973256,513.0387766329841,477.72339470023263,472.4662517414973,stand
28.146911519198664,-0.020927662264155412,-0.013474173549452628,9.769395766065736,-0.10144004031126894,0.24249827737061472,-0.12499144073829177,491.4745768583565,493.9473356557508,566.5966343756954,stand
28.196994991652755,-0.014825006795783482,-0.04174138273632441,9.826200218744138,0.18225720314694652,0.24291401022072992,-0.08601876005553091,599.0184367147712,508.68037326379886,453.3404658946899,stand
28.247078464106846,0.022552821885284416,-0.019379268838738056,9.832868604617067,0.10704471373328983,-0.2453974130401241,0.001955258034774931,492.1875014969116,479.66904712491686,533.757369775027,stand
28.297161936560936,-0.013916419715329087,-0.04574912919353796,9.821815851673803,0.04914315256827787,0.44743378576842513,-0.032854227643094015,482.34117597783313,527.0293648138429,468.3741780240488,stand
28.347245409015027,0.022553466578539752,0.016549674785493663,9.796626015992452,-0.04517829447536605,-0.37880781478303754,0.23287602919184797,500.2430406116861,558.1929281232267,480.2077805688531,stand
28.397328881469114,-0.04825851430810214,0.03741019478747221,9.774346900466684,0.11193559298084033,0.2125284177816794,-0.332316208480934,461.3493194211254,552.3960098283529,483.68247281656403,stand
28.447412353923205,0.0006411408507578237,0.03359622064492416,9.850191605681047,-0.22241465656092094,0.0023930102181598492,0.04504117745348325,461.81282170032995,445.87653998134414,485.23391438339337,stand
28.497495826377296,0.009797129991065148,0.0626802438576791,9.790523760773665,0.15117152406039544,-0.17205389611625338,0.0024741841725298584,488.3136852241405,559.6465363569646,517.9335561349026,stand
28.547579298831387,0.0027225444497268048,0.032930780790910594,9.839337146910138,0.35021989811658766,-0.06783979052157861,0.1080224544197461,524.9378229861817,441.66168454790204,528.1876432902741,stand
28.597662771285478,-0.027727166421789684,0.05958856286610019,9.7705700348957,0.010092128918406322,-0.005431830294079782,-0.5750838731411223,509.65847189962653,496.80971160345683,466.2090507819503,stand
28.647746243739565,0.019265498456907004,0.054549996088366436,9.775345573702765,-0.40698441023325416,-0.11186226507473392,0.03881836822191423,454.23124197182267,474.642375754466,419.34273065348174,stand
28.697829716193656,-0.035421898710771865,-0.011641305841075755,9.738179911573726,-0.018707109656679148,-0.06117536542969211,-0.0895775506902549,488.92365599509145,499.9655789757528,505.18204505333057,stand
28.747913188647747,0.023702996675908153,0.028681302105741484,9.817364331947799,-0.1808525556270148,0.29671972112632045,-0.1704038740174075,508.7472584399023,528.9019387357941,519.7779052447914,stand
28.797996661101838,-0.018416622626707055,-0.029795919143705177,9.762741249579332,-0.22236351806937865,0.13937140845610638,0.02779316206399732,494.1132387658615,431.7709118840349,550.0482878466329,stand
28.84808013355593,-0.04767775571918466,0.013837038165734374,9.787265542860673,0.18073567936738436,0.16035666600823034,-0.3526413913521501,568.5882873881055,495.0597442129085,441.74179360666506,stand
28.898163606010016,-0.02024259670689023,0.05239152302217371,9.794633567870047,-0.021153022586557938,-0.09773395786364518,0.4864401249801416,493.2826792713976,497.45152004110645,543.750947437529,stand
28.948247078464107,-0.0296791007035166,-0.04585597833855257,9.799405676782403,-0.4455861054308671,-0.0334573216803791,-0.11971206300107544,531.1311582517421,491.21088083450337,479.3259096244374,stand
28.998330550918197,0.017064558058379295,0.045988636244735745,9.771480470119037,0.3516682278774108,0.09021353728322098,-0.08270147798807248,499.88533982955545,539.3951703962483,419.7035027036367,stand
29.04841402337229,-0.06557399658131544,-0.027424526172322203,9.803950919007749,0.044035386858406765,0.4482446425420832,0.008989113628015147,536.4943471990819,446.4211305995056,495.6284241881813,stand
29.09849749582638,0.008810079312391736,0.004001448872856861,9.76492923156209,0.028621983348771283,-0.1285109127027841,0.025763402374066425,498.4901717539564,506.4310348855005,572.3424984698462,stand
29.148580968280466,-0.042270429089458425,0.01670606679223098,9.820801571959333,0.453741484729993,-0.10910816700012937,0.1033888978206963,434.59870099571026,524.7500008210059,517.4578871151905,stand
29.198664440734557,0.016072242993581162,-0.007346368707236067,9.780651332035163,0.16790316722870374,0.0018957398512620103,-0.09581224173568431,457.0895557437952,622.0931620511494,483.5796384050836,stand
29.248747913188648,-0.020583416350777844,0.018556945403212927,9.853920942169177,-0.33746800984606007,0.4672040180407266,-0.3349783570438837,493.3748790095536,518.9062646934378,484.1726234814113,stand
29.29883138564274,0.009552064509611768,0.031633492734358684,9.808269693983656,-0.2242228933521152,0.24561588729018574,-0.13827970488718042,450.05274354495833,575.559446938842,501.66296552230693,stand
29.34891485809683,-0.002692766718198708,-0.02784894431857063,9.818174246711713,-0.2140352743530788,0.4030946693238656,-0.1455022692443051,475.89509382374405,479.1485853243639,533.9047862263858,stand
29.398998330550917,-0.017345663304780753,-0.03190629887801061,9.777590972667147,0.19320002163819672,-0.1196954383566775,0.038124394409341844,531.4878177047073,521.6865802795694,489.01353585342224,stand
29.449081803005008,0.016402502324041723,0.047231997678801665,9.827580862334614,0.18729456724587032,0.23094147651263544,-0.16266252792394217,466.54822626634694,498.28592945114565,507.6880358852893,stand
29.4991652754591,0.0157946479517731,0.016253752896100385,9.783415621582156,-0.05909540720129569,-0.06537963686805101,0.0805480330080459,471.5591919056354,464.6700310987125,555.7947973449859,stand
29.54924874791319,-0.0394663083657856,-0.0829627367985914,9.835002930459146,0.19401701572330493,0.024798223473948233,0.17649483694514156,492.1083603718767,522.3479241959714,523.6113790857808,stand
29.59933222036728,-0.03651692440705503,0.012882020123325108,9.815437464802562,0.08900461647146493,-0.5262283270581739,-0.0954517391133647,528.1095799452265,568.4918941204429,528.5421136363624,stand
29.64941569282137,0.0013350584739917903,-0.04049963481290081,9.79112062136392,0.2141108973502447,0.13029170097104348,0.226887283748545,480.5552086998713,564.3188537498531,501.73636743322106,stand
29.69949916527546,-0.00037802695347860515,0.007154637373905481,9.831955335757526,-0.16958743521454456,0.12040319986539862,-0.6279735499632152,466.4511183273463,515.0724661903274,505.5361783893409,stand
29.74958263772955,0.04785130000709324,0.019063588059364672,9.846230056895664,-0.15263834846746357,-0.10976633011195008,-0.04919332758256751,515.9998258557789,502.4838868818523,491.0826646398674,stand
29.79966611018364,0.019514147443703597,0.009851723829423197,9.807350003500545,0.35204708364606013,0.06392969720298525,-0.3046839237844243,495.70134960740614,426.0604035938677,573.7186574417198,stand
29.84974958263773,0.025758897136135397,-0.005657816511614594,9.800157527911267,-0.2215357508486018,-0.19148192574599482,0.320595710881875,563.617226465316,487.6486219027208,425.3728644637854,stand
29.899833055091822,0.023414540046363577,0.04010771813291578,9.767975709807883,0.23793312735969852,-0.2570562490202295,0.2302689540598363,522.257309094298,519.536832993113,517.7397443202859,stand
29.94991652754591,-0.026340757068134435,-0.024780967891734076,9.816483516631086,0.010746340069383693,0.04550882318516109,0.4692741939418322,471.06029557778,482.7417962053911,574.5887559098708,stand
30.0,0.021364288831872427,0.07003061725798958,9.824277955226023,-0.20311897831955938,-0.004859482096453798,0.05562263684449046,474.99127360620696,490.22182373262626,541.0491130047916,stand
