timestamp,ax,ay,az,gx,gy,gz,mx,my,mz,label
0.0,-0.09888469645416255,0.29917032177582226,8.895149266231863,0.2593953798212978,0.9641029194221666,-0.03573269776283985,463.740741549633,491.7309575205849,440.2599525659374,downstairs
0.05008347245409015,0.5292571870134839,0.15764433362959235,8.611644295954124,-0.8556934777417279,0.20109174786977455,1.5644868535760839,488.6450386439126,468.374345987156,561.4181269235535,downstairs
0.1001669449081803,0.7152281404350623,0.6499959334901633,8.461369058661402,-0.4845509912922424,1.4056680555445311,0.7968687234742913,503.7381760833508,486.24067984215907,473.56277548425953,downstairs
0.15025041736227046,0.5393520580023775,1.0834656183938374,8.722656821212787,-0.5542631541400446,-0.3016464191302679,0.7257544687416734,494.4136351297823,489.586915995895,458.52057247305777,downstairs
0.2003338898163606,1.1261245921357876,0.3940841397330544,9.278169399578761,-0.6897279814499909,1.2002138380136458,1.0619471957371989,430.60917636692534,489.49440077604487,500.93739379436556,downstairs
0.25041736227045075,0.6360566816924943,0.3579056140017184,9.162350595664543,0.6772186436999086,0.5057188059299704,-0.6522584468270275,478.7092183365509,477.82396838543684,523.5727225717512,downstairs
0.3005008347245409,0.41931672109858903,0.15499540527004418,10.21868404376775,-0.46562493665003946,-0.5114922961229338,0.1683729781233268,491.6636644435591,440.0207428391184,521.7596244797342,downstairs
0.35058430717863104,0.1345397044582634,0.05546808754068169,10.542518925295653,0.15662197170907038,-0.5123233441462551,-0.28615754683855993,606.2774517750041,502.80617335654017,505.19955161892887,downstairs
0.4006677796327212,-0.2881018861057624,-0.37479705272013636,11.202170094905117,-0.7400124064544981,1.2206099440325764,0.44196187644481216,482.9052387508557,537.8109305248361,519.062512835731,downstairs
0.4507512520868114,-0.7728696800574866,-0.7752619003036578,11.522318029839521,-0.15107087943472136,1.019589692466987,0.25605360761699847,516.8321033219611,526.2707841545256,558.5372481032568,downstairs
0.5008347245409015,-0.7398439687892636,-0.42033108913406014,11.022585775592855,0.8559156706774897,-0.3054266890966674,0.5087617811995622,451.9896551658203,501.7561298233524,456.34113166154765,downstairs
0.5509181969949917,-0.6559263904544892,-0.16160468941817296,10.748377533061122,-0.7574075980512431,0.6762481376919639,0.31077295304530655,486.3440798333632,477.44154108320856,537.0888648711068,downstairs
0.6010016694490818,-0.6750483686777967,-0.20935895121770004,9.858941441763134,0.19923911734726382,-1.3599458030822233,-0.37121170115534136,505.4993682365473,464.2277056785389,421.40631290596224,downstairs
0.651085141903172,-0.2872730385032558,-0.21771731151672918,9.506902560206004,-0.7886779699965966,-0.7496775125290701,0.33736625410739096,552.8782468304466,459.5319203652655,539.7440640107104,downstairs
0.7011686143572621,0.07930333010740277,0.044709180626111095,8.67119353937114,0.20448125445965593,0.26289114903030125,0.1469212919965486,509.4982950878803,499.87187989929834,557.4213512087662,downstairs
0.7512520868113522,0.20921802990232208,0.5939848860077963,8.525397276645437,-0.31885715956066424,0.598036158660553,-0.47314507333198186,444.0149102288659,497.684619895496,511.9805156081845,downstairs
0.8013355592654424,0.6308975528417321,0.3371108658749262,8.505259294433719,-0.6713656910429437,-1.0865060385230405,-1.514570297009738,455.6396106344134,527.0196962585756,561.7957879958522,downstairs
0.8514190317195326,0.727461047691953,0.6201905557023226,8.460063036259292,0.3910100861280667,0.6417922778585242,0.229353084393286,531.8983506911911,457.09360898404617,477.87556719778985,downstairs
0.9015025041736228,1.0192236719037433,0.7551680855992371,8.79328011065637,-1.2640773896304303,-0.18305432188163023,-0.8340407145714785,492.85457130714036,539.0502568568992,534.0692717041512,downstairs
0.9515859766277128,0.7313371605097121,-0.05058983107640075,9.245603626182886,-3.278536434303154,1.34918609247347,-0.20089410272266978,494.4005555225182,513.7910810150514,477.2977786884014,downstairs
1.001669449081803,0.7369066110549743,-0.18686090831516203,9.69512266797726,1.6226515456055888,0.43303659990266935,0.13302063699135586,517.4096696902917,491.2061121424584,514.788436947141,downstairs
1.0517529215358932,0.126072926344296,-0.24499874057735593,10.361658832556502,-0.8543239422521349,-0.6352597493525672,0.106525427322674,488.4309010370543,498.106616692932,505.3728041619686,downstairs
1.1018363939899833,0.06780624445751994,-0.24364178890758997,10.578909424587897,-0.5612013151194734,-1.3865351933740087,-0.2689564749951573,542.4906097989826,548.2480027732056,487.2394199959944,downstairs
1.1519198664440735,-0.19334325689062992,-0.6286760829855826,11.488353120740227,0.934877522915945,1.0407452783384508,-0.1464186827973005,453.35558060162197,494.3533202781437,421.9924675807855,downstairs
1.2020033388981637,-0.837958884299501,-0.5457315971326644,11.304411632351526,1.5627594055282004,0.8076479256594652,0.1419906402473909,466.14405159894613,514.5430652921154,510.0978433779051,downstairs
1.2520868113522539,-0.8063497799847175,-0.5346815068334283,10.890306580574032,0.018241013911470705,0.7050234368379324,-0.2590337343288747,470.06953065247853,541.2240953516445,529.1961952205886,downstairs
1.302170283806344,-0.6025803414838948,-0.40314007404606605,10.566608196350078,1.5653436414738946,-0.8493361223627064,-0.6326608295040004,451.72802472290056,436.5828064696828,500.4338748618118,downstairs
1.352253756260434,-0.9033800719133805,0.053986326826014175,9.478066814074904,0.8064572642911753,0.1632128701550303,0.294260686242703,511.49765515733225,490.4920367225121,549.7476418227823,downstairs
1.4023372287145242,-0.542181589620307,0.32281568288445145,9.225623965098785,-0.35992719463611933,0.3513555848680739,-1.75256032646716,446.7803540636156,527.6531612125806,560.6502696836887,downstairs
1.4524207011686143,-0.0818856184276966,0.26532551714242425,8.75302938641981,-2.041973354912708,-0.6681401052706581,-0.03720717880626335,487.1250035115777,468.3103226673074,458.50518760742375,downstairs
1.5025041736227045,0.6908109825418981,0.4692356837695599,8.321806312190391,-0.45330340714253664,0.2946713991195393,0.36777113060552247,531.0934374393547,491.4640040241897,515.6408068312886,downstairs
1.5525876460767947,0.8280268600608917,0.7479755195054043,8.041731061836055,-1.0349043708010968,0.047915242650939535,0.4736217845232014,463.667197684436,551.5373209705537,480.326645591944,downstairs
1.6026711185308848,0.9916083076249776,0.7101006125749352,8.313827914476155,0.25381761162145355,-0.6862719374875649,0.17690217489232726,478.36674526586506,514.9675619601694,489.80128620389365,downstairs
1.652754590984975,1.0315386819818646,0.23967876379735695,9.299630469828905,0.040248241463054585,-0.7081082581953883,0.09995830268650618,525.8031105693746,551.0039236618036,464.11253360846706,downstairs
1.7028380634390652,0.19372712950724946,0.24915815953155657,9.44045459469848,1.2840435407216475,0.022993727731942748,-0.26152936578873326,499.5675699437235,503.18086270341996,486.352597672053,downstairs
1.7529215358931554,0.3569858428864149,-0.24453363011505597,10.457845835131304,1.045082749085954,0.6948556404135182,0.2547540321504204,501.40177445143036,522.6045352616858,516.6885499462343,downstairs
1.8030050083472455,0.25414544053384863,-0.2633367475040005,10.819199860929746,-0.3292788379256324,0.3399535804437616,-0.052161039126580044,460.81297552409876,463.98787706407296,465.8004134976906,downstairs
1.8530884808013357,-0.2645731080078727,-0.385289080888666,11.390784487647386,-0.8352174815112,-0.26520230282174395,-0.19740954186052115,494.44651124130536,516.5064322358395,498.64063655750505,downstairs
1.9031719532554257,-1.14864461675123,-0.7479977304199446,11.307246732276703,-0.12399416827920923,0.40743930203271955,-2.068741987504069,514.5762547111875,535.3828257122033,473.20060715969356,downstairs
1.9532554257095158,-1.0286813147797467,-1.060207752879351,10.788050897980957,1.1437596053790164,-0.18256658918539806,-0.3940987279013133,545.0282232897011,479.9380778827,563.4912241050384,downstairs
2.003338898163606,-0.5354216159565377,-0.7288207262228243,10.456962863031773,-0.45048448845015737,-1.0398334267772231,-0.4035727944602942,536.9202654810327,485.42269855130684,518.2043555228022,downstairs
2.0534223706176964,-0.7570752650829871,-0.12421709144399751,9.720680875343792,-0.8211020671000849,-0.11319192579948639,-0.11889585480788399,504.08401759330684,516.0416340415627,436.5341763279661,downstairs
2.1035058430717863,-0.5524309897421894,0.12759058942477533,9.310476761654996,0.18818163875959815,-0.16494582277133132,-0.3997883527840521,441.2599260448274,539.5382032903567,452.70810993552357,downstairs
2.1535893155258763,0.02951447586750995,0.32024853394675157,8.875185555758621,0.11034612761009421,1.6924926845796333,0.7140154375038332,452.365588833106,460.3859805881389,511.1427241803059,downstairs
2.2036727879799667,0.46490670949508056,0.40136088041831924,8.310023308995651,0.6446631501497608,0.7749759595118006,-1.9331938606243433,517.6197673442538,565.1510081032445,501.4736581365504,downstairs
2.2537562604340566,0.8450679980000356,0.4933190316749908,8.827852500829191,1.6894629230964169,-1.4804369038186374,0.9234151575653123,414.68988733514107,510.9521243331815,417.7569450960603,downstairs
2.303839732888147,0.5661602867399853,0.49341351721543536,8.716185159177167,-0.4390920097961894,-0.23922880466280774,-0.16257407537290133,484.2219322116472,490.0139782153874,576.5586476256162,downstairs
2.353923205342237,1.1006673184151656,0.6843177851134932,8.946273838470228,-0.23833971825389252,0.7732562903787975,-0.31971913513589395,507.75484055674013,479.83102434075226,487.60324001431127,downstairs
2.4040066777963274,0.6148095594740242,0.04107111640977651,9.833350412323613,-0.8092831922751597,-1.8787884023574324,-0.1298476371989725,452.4677081431541,520.8503020616979,554.5271314211449,downstairs
2.4540901502504173,0.46921850001985627,0.16047802309249418,9.933735607516462,0.09479567139006025,-0.0869890288369376,1.1570079566004883,419.21097561592006,483.0303514487456,560.2368552645526,downstairs
2.5041736227045077,0.29083403830330484,-0.020881164991277013,10.504266507231353,1.0562130761619029,0.5605149890690991,-0.3031919489964995,488.0702410994328,523.4497163229684,491.46317211316466,downstairs
2.5542570951585977,-0.3101980505537657,-0.3815361138905867,10.988862986670556,0.11848829450803121,0.25565969502763364,-1.8113658939655324,495.60970350694197,502.99691325561224,482.26535721993594,downstairs
2.604340567612688,-0.7977135255178851,-0.7818962474306419,11.297292234648857,-0.4400106967123712,-0.809887977463378,-0.7840475523770689,486.4100046422122,473.92535448380335,495.00723332088666,downstairs
2.654424040066778,-0.7199341813920361,-0.6023335936530343,11.220618409134365,0.046965872902347515,-0.6325743585727444,-0.31239406571232836,503.703466818969,481.08153891893073,505.6751305001683,downstairs
2.704507512520868,-0.8732146258745167,-0.465988256392501,10.531246514725847,-0.2706142629371999,0.21324296351218455,0.6732520935935671,484.5541315373323,468.1584363990141,510.9735673983475,downstairs
2.7545909849749584,-0.7035722397047486,-0.20971018165732275,10.224046018316743,0.11136715128371931,0.6768945093766146,-1.0697879506383803,470.3976724619107,476.85864151176,492.43632740959634,downstairs
2.8046744574290483,-0.18981409106180339,0.050351497334063196,9.519797727429967,0.09744299636764212,0.21493534294608727,0.36535669417038724,469.3358732379148,570.4061902187532,443.3560855349252,downstairs
2.8547579298831387,0.1774486749359902,0.4252294348896053,8.806020219562003,-0.42968166640794836,-0.15384176132932686,0.3414382681601659,509.7110975924213,577.045252508849,507.2189895024341,downstairs
2.9048414023372287,0.534216483230588,0.7269937407428413,8.771513262152366,0.12980980294305852,0.5945705427002035,-1.4929432648728245,510.641998837468,458.62944178810363,461.6377747696405,downstairs
2.954924874791319,0.43698179342521154,0.6266109743889687,8.789459526978419,-0.9744641097768393,1.5482752434242522,0.7653142466026713,531.1286699847989,490.91407522680856,408.1700022098186,downstairs
3.005008347245409,0.7928373566521207,0.6750153412392061,8.796455562836531,-0.5250679357703395,0.29294983903537447,-1.039862211604898,448.35420520785704,545.4393557411338,582.3784470079017,downstairs
3.0550918196994994,0.8550610954598437,0.5925053123562682,8.5271604060802,-0.11765869115739716,0.6520701998737521,0.16046408864637873,483.5670844870993,496.3915581716466,509.6722434158232,downstairs
3.1051752921535893,0.7691467966372465,0.3115648956398276,9.517952770823403,0.27710759398523027,0.7840126815512141,-1.7607267016322583,435.7326118090709,471.3627814224876,488.3940284161525,downstairs
3.1552587646076797,0.428356074126014,0.10798216229095363,10.133074378485507,0.4439038682432581,-0.21214009997408637,-1.243038835770923,445.0325570523231,532.3414821882203,567.1675796845445,downstairs
3.2053422370617697,0.12522708845633967,-0.21515168328639073,10.632660073871593,-0.45599395601618015,-0.4012398693801451,1.7405621284882322,448.11152816874386,538.7043671524599,520.635859310987,downstairs
3.2554257095158596,-0.14495073414591597,-0.34152080456580247,11.162071277492226,-0.5363944645304772,-0.5895240493683623,0.441425129067594,508.18576011690317,570.6353178928799,532.89705734515,downstairs
3.30550918196995,-0.9801875280484877,-0.8579352519071404,11.238440703575021,0.22211762091387874,-0.01746225597718355,-0.09159610987721985,542.8499225716115,474.57290724250544,475.55371260733324,downstairs
3.35559265442404,-0.7119314832309163,-0.6715334236285235,11.567444477225667,0.3488021099207222,-0.9158394683071981,0.2536168340627278,498.1415938275298,535.3884912248469,479.8392279098566,downstairs
3.4056761268781304,-0.9810647545386573,-0.4937861501021435,10.949117503091399,0.22556290020824882,-0.20440941110396363,-0.012390274388880868,553.5950064712641,472.9210105737251,498.29842429540827,downstairs
3.4557595993322203,-0.6689055697027517,-0.4737869785549454,9.93493467021354,-0.9299543372718054,0.6007624095653907,-0.13143377851325783,498.84621706469954,455.19459649420554,480.40517411812453,downstairs
3.5058430717863107,-0.2604319196794824,-0.21571414770159375,9.864886140314889,-0.5491161170944336,-0.6460536893317029,-0.6263822170899013,448.36717842079736,520.1459551926386,469.1272286248468,downstairs
3.5559265442404007,-0.2216787603937161,0.47389313766881547,8.780414816277622,1.0374382264982072,0.2931796635748908,1.1259417107940928,534.5249134440085,480.8536441939644,490.4027559215091,downstairs
3.606010016694491,0.3117309941874533,0.6384232455646979,8.982072598029546,-0.2710770688406613,1.405519016702811,0.5483421493843433,485.6512683806525,542.9831834460311,551.0009639198996,downstairs
3.656093489148581,0.5121403956733962,0.6138210363311971,8.264705790777615,0.7066712986605137,0.758322344789891,0.12704765816323357,502.68188509391007,518.8805264267858,490.46436430994163,downstairs
3.7061769616026714,1.0542892472238483,0.6592171925230972,8.473868911290419,0.6023133953532066,0.21071656700305888,-0.03864698305456315,510.36971747288226,559.0948814861671,450.45588540662607,downstairs
3.7562604340567614,0.7928036279557559,0.6378776303696807,8.756742360271918,-0.5586844117446621,-0.9345520319538184,-0.24256355164799492,431.52702195951406,474.49390977946223,480.2711431248317,downstairs
3.8063439065108513,0.6836810193047462,0.30862966943438314,9.429504922066592,0.7238649453881968,0.7143393618812969,-1.1023675989865307,521.6185945418425,443.86200727511897,549.7781227558689,downstairs
3.8564273789649417,0.7508552735047659,0.4043776710029676,10.009230120899659,-0.31345020580493405,0.1933880076981567,0.25021021302921825,526.9797937812343,513.6727236866043,413.3328254493465,downstairs
3.9065108514190316,0.19298261942066458,-0.17026135371289403,10.61977208378729,0.759052625492918,0.13249504364379916,1.677077163632822,473.3921433574,503.3963597277241,530.6329391540073,downstairs
3.956594323873122,-0.3032924028739391,-0.5364887752601255,10.845144037282994,-0.44042182722789064,0.5537107609000012,0.47304130935803423,520.0793755674516,474.37942017080314,450.78650353418584,downstairs
4.006677796327212,-0.6744054461540511,-0.6212104068014006,11.078701147909861,-0.4953175187740253,-0.221467576061284,-1.037350429026123,475.0822679379791,479.0952958300905,517.243427820684,downstairs
4.056761268781302,-0.8615315041053122,-1.0653318206468427,11.10936823908884,-0.11002482666299389,-0.3485258705373299,-0.11114154156195163,460.12097203999673,558.9851704037652,518.0432133495696,downstairs
4.106844741235393,-0.8291624601398226,-0.7363663843660762,10.825132588929979,1.3926882810962302,-0.02702304076015773,-1.1265656520751852,521.6477557064212,470.5001380897091,582.9692393010744,downstairs
4.156928213689483,-0.4639325145377243,-0.4243982229664281,10.404499102829943,0.4625994510891461,0.8249398100586541,-0.15144297816346095,499.1345490766532,482.59583083890294,583.0624756797258,downstairs
4.207011686143573,-0.5878121261871811,-0.006339202762306179,9.809256484026141,1.3972840738127295,-0.6998053081448988,1.0815166670031464,526.5916668350433,484.04006016509857,391.2679997294111,downstairs
4.257095158597663,-0.4023492008367366,-0.1897938158603975,9.101784853868962,-0.8550922267266892,0.30805820409371965,-0.6654776064173376,449.09691124461534,507.0745027947277,495.04425961798887,downstairs
4.307178631051753,0.28940172296155275,0.37192314045108243,8.67993495693596,-1.3984821202867448,-0.7578291500956613,0.030456686504092365,453.8219202941679,543.6828379157811,497.21956231718923,downstairs
4.357262103505843,0.3048802979950844,0.40662123536805966,8.394550709035988,0.34403869199110454,-1.331694665284401,-0.3198191594341106,481.824982654225,485.5610131831207,481.75006474637615,downstairs
4.407345575959933,1.0023318370447925,0.4192519913437997,8.365885380738513,0.5105651844438943,0.8318599387069693,0.870003860098341,462.54670078206505,504.41178373322094,549.4126879480771,downstairs
4.457429048414023,1.0244290211622293,1.1241219117339998,8.604193153318038,0.3576921731875421,-0.09240872957859897,-0.6090286181726342,583.2237883316793,535.8606148961684,535.665505709258,downstairs
4.507512520868113,0.676002828130118,0.1868757035599241,9.427462307866826,-1.2042735182167854,0.2186720585123748,0.05865514888054501,520.5342887239112,521.7416722046324,499.7490965409585,downstairs
4.557595993322204,0.4179350101801218,0.21181416930609448,9.65764978794544,0.11094457423912273,0.026485659057457426,-0.028820906639533177,514.235179019498,532.254571052621,483.0381259761791,downstairs
4.607679465776294,0.19546033505428995,-0.13738584417677197,10.0801161275975,0.571092969748012,-0.23073294046065226,-0.8536867635497262,424.72420364741083,561.8315336745314,423.40051685957985,downstairs
4.657762938230384,-0.06190769624127519,-0.299588462148968,10.888299097491108,-0.8607849121098687,0.08031338952506874,0.03601648603386801,521.2726377101724,517.7586730179163,563.6989284168474,downstairs
4.707846410684474,-0.3795935067232611,-0.44334714296226024,11.530341889416329,-0.47259111188677044,0.3119042628020646,-1.2097504926540896,519.2840932498588,524.76067516226,387.3407301976049,downstairs
4.757929883138565,-0.8901808196865932,-0.7091287706667067,11.103115307002383,-0.012607336741583373,-0.36485068870512327,0.6515668936095547,434.50806255702815,480.67600979745936,486.50067145623154,downstairs
4.808013355592655,-0.6061590706021434,-0.5856410002473758,11.245726334297037,-0.14523897434311214,0.5170247109718016,-0.12476944812238829,465.55643622923026,493.3200369552734,517.80367902844,downstairs
4.858096828046745,-0.8355442366032448,-0.3346098117323696,10.513259267145655,-0.20626549565696503,-0.673635656401418,0.3550390831397617,537.7947026482187,506.75698740534057,521.0968294006059,downstairs
4.908180300500835,-0.5595268600969572,-0.3111831383370691,9.913008013094629,1.667139207937895,-0.7567352459353145,-0.2968901427428399,472.3515240316302,484.5722321523044,481.7952940392406,downstairs
4.958263772954925,-0.46032401358699837,-0.4269018269010403,9.651514955937376,-0.01101805271345941,-0.18583054855479045,-1.2299327108886329,437.0786055798717,509.8510461286183,517.3288905532579,downstairs
5.008347245409015,-0.4290230040483548,0.3028795222596499,9.199390292920844,-0.6171233351221156,0.04953497249523508,0.2737833532389036,489.27567014617335,530.2077030069332,483.98090031055233,downstairs
5.058430717863105,0.3236536505180729,0.9287009648997226,8.119507110024028,-0.46010279740341126,0.42198653656070945,1.3870418304111303,487.9119474145237,464.7767451264079,456.25329308412313,downstairs
5.108514190317195,0.9630525372876856,0.3980213515902878,8.150965552989533,-0.3116631681891563,0.38672956015422055,0.07132305853037736,487.75202742963336,453.3765107591621,413.91067572329234,downstairs
5.158597662771285,0.6346783355085741,0.9272205453737776,8.790874177880449,0.11445090410693314,-0.25605412926164883,0.6379928310289211,549.9899217660316,536.4979625127066,483.5549800955079,downstairs
5.208681135225376,0.9577900082278709,0.49919493691653394,8.883297977944027,-0.2570951485953309,-0.8025882628467884,-0.8382833668343679,508.507600263157,530.216276020074,465.41754862254885,downstairs
5.258764607679466,0.8048717423340195,0.5666022099564902,9.884693444597497,-0.09929382834724153,0.10289275784912598,-0.4104153006580421,355.3348834898391,575.809322334992,573.933732251235,downstairs
5.308848080133556,0.26241972027952004,0.008083526315811426,10.164589655611115,-0.5545134735167152,-0.11529997318342741,0.9044584858755791,503.6389937797441,547.9346420537267,488.7515953497942,downstairs
5.358931552587646,-0.2816581667718742,-0.2355721305660849,10.502894786318649,-0.6633828365677071,0.5982371827361092,0.08601369221901874,526.5754313450839,486.3814632473983,431.4556337810775,downstairs
5.409015025041736,-0.7775890243442973,-0.6630077576941451,11.181100221827574,-0.4260563323825391,-0.2715545879707328,0.2642713942640364,500.2479585938314,469.8207897753199,478.8607881529088,downstairs
5.459098497495827,-0.7831583764684475,-0.9432172078937511,11.507107730150432,-0.671579143804293,-0.5053223095312345,1.293551150722591,461.57567514936505,615.4319803983686,513.8863618633802,downstairs
5.509181969949917,-0.8659473344861962,-0.7118498100167816,10.95766303763426,0.17636479021462495,0.1457527474277687,0.23271042171715609,614.4135515737743,515.2240727218659,566.3160997717921,downstairs
5.559265442404007,-1.0007857558384572,-0.7206885025464667,10.550001566314094,-0.9481761095053746,0.24334326253455144,-0.3936407607980368,503.5191860082589,507.0852965937879,518.3804574151901,downstairs
5.609348914858097,-0.8311898950987979,-0.35175504542836133,10.491124703448161,0.03390259315973195,-0.5008848918454487,0.3162352893240501,543.2677611531002,461.2497644821319,514.537657173695,downstairs
5.6594323873121875,-0.3878549534888176,-0.07936857256330604,9.467367668843849,0.31249234160427375,1.0457732040935501,-0.02046289265558615,438.20413155394,532.7873245953539,500.68124580339867,downstairs
5.709515859766277,-0.04003773228182116,-0.002704552822564238,9.217211328095559,-1.0535110127917051,0.2944521883251855,-0.5134328673538111,530.643578826134,497.31334853641226,434.71372033360734,downstairs
5.759599332220367,0.48011242127549086,0.3421963567604256,8.443441547924373,0.2706323605273485,0.4354682573655157,1.3998028105834557,482.0118784897964,477.30939068635433,454.84573648406933,downstairs
5.809682804674457,0.6025622980738365,0.8102548624781489,8.296760070676056,0.45983937245412243,-0.03913197580289526,-0.9513809514294723,407.7412053371095,547.0505157661208,525.253703261504,downstairs
5.859766277128548,0.758800995420619,0.6650094104210609,8.324841507976178,-0.3411028009903544,0.32635291883123446,0.6127250034972845,478.20264154314634,510.0009083441833,539.4955155522177,downstairs
5.909849749582638,0.7550201952411772,0.4438818951762526,9.006876373304298,-0.2788677583137804,-0.7893267524042509,1.0758426674314068,522.5148659272336,461.19154701953914,519.2604717317405,downstairs
5.959933222036728,0.942475681294182,0.30711193455012364,9.552104470991413,0.3657995269074341,0.8457231833483759,0.587801231348953,474.32278504490966,471.30476825875087,502.54293525444837,downstairs
6.010016694490818,0.7579201616412743,0.17842776785207265,9.8815528776722,-1.5125623497768563,0.029999811779293915,1.4255601508170757,503.3339790024851,585.2862963378054,451.31176574201237,downstairs
6.060100166944908,0.14335602417304139,-0.3079716401422881,10.318910416169242,-0.8962944949083227,0.016578994029689625,-1.404892372469458,430.38103714863126,522.2743718926463,470.9846550212237,downstairs
6.110183639398999,-0.07606955373140495,-0.1446752524602768,11.07661240474575,0.4430966112214906,-0.6939793090857452,-1.1535637457917853,525.1154235923914,494.37233519793335,563.1056554842545,downstairs
6.160267111853089,-0.8355285555486428,-0.6354143705628656,11.542493356691876,-0.051605827244178684,-0.7137407053677969,0.7151723837552089,474.56659830478435,470.97351314874993,478.94420504311427,downstairs
6.210350584307179,-1.08856165602672,-0.6929988069476918,11.18686206219287,-1.0721327580249749,-0.008443351314628804,-0.563639731069293,450.72677738632484,459.8320672805356,532.026976024223,downstairs
6.260434056761269,-1.0762203989424397,-0.8172335613691772,10.647452618920049,-0.294350658161157,-0.22102159568858878,-0.5144261493244058,521.0125797644299,547.0561742713911,553.2816955023824,downstairs
6.3105175292153595,-0.899417447141829,-0.29455678529610696,10.178818276703767,-0.38343464176401243,0.39399745944774694,-0.7499325039579604,492.739941807657,559.4380063750765,544.9994661071087,downstairs
6.360601001669449,-0.3347307269360404,-0.014596793137125919,9.521199291519967,1.0155325532461204,0.09884988174143905,-0.9628228006098062,483.0227545674233,495.9940980839923,511.6531190399796,downstairs
6.410684474123539,-0.22282723322544218,-0.18184076371514712,9.170225684783134,-1.0982873425960562,-0.14027561683466025,0.08038359026628912,440.0002959123365,484.60285704003036,500.7657781625211,downstairs
6.460767946577629,0.3397460216786508,0.6088735668985845,8.481868140044448,0.6975133105174992,0.29855062670179133,-1.1420760238769254,514.1667676841867,531.2357222581976,445.37675073293155,downstairs
6.510851419031719,0.6509159351852849,0.9652208792969519,8.317815651239693,0.35232709333640877,-0.5744009317438803,0.9897550641226316,501.64118637356495,470.32063126324505,528.8781949480828,downstairs
6.56093489148581,0.49868121071065014,0.0702271432003011,8.407483341210556,0.40479689065563734,-2.1533088916295555,-0.15197125241639894,458.7687641173409,511.61196831854267,488.0564278827394,downstairs
6.6110183639399,1.1609336119131233,0.43052053786815575,8.936066768993069,0.6404687362178971,-1.137942983126083,-0.21307723846666154,483.9174714642103,527.2748256107633,447.43878924218455,downstairs
6.66110183639399,0.8500347099902943,0.5472113768009166,9.064021281683297,-0.886606015714579,0.022265604829864068,-0.2898659367234277,522.3076908066145,542.3629171005582,501.4646413110548,downstairs
6.71118530884808,0.677862346361785,0.5643677832843661,9.277625350398026,-0.13748462119633822,0.6634755268247995,0.9685854869242136,471.9447177444899,512.6337423898012,510.9079516962455,downstairs
6.761268781302171,0.22968326944405215,-0.11108102568241346,10.930389186454024,0.021310366488589767,0.2740079293843273,0.03318483517426762,448.83352617197255,502.20451703388704,485.5051588822733,downstairs
6.811352253756261,-0.30965745340892226,-0.2274041280591878,10.833271915500536,0.6630658615888235,-0.2948809537717007,0.11543996775414993,524.0115421986701,500.29701751283824,552.7244295700131,downstairs
6.861435726210351,-0.5739446783789791,-0.1475543194080003,11.054527253774362,0.3666390862494744,-0.22841322359859573,1.4042071072264835,490.16633570204317,475.5578335000246,448.83177110511673,downstairs
6.911519198664441,-0.8147555881813134,-0.5688140246164919,10.914873856191832,0.5249744929974972,-0.2412118799867507,-0.12852736866981043,515.6704007079417,516.7512053038046,455.1005166286642,downstairs
6.961602671118531,-0.9128817827665625,-0.3464392346265428,10.787946707832043,0.3703963517326612,0.8658223339360693,0.06044167560332458,508.5892415699863,459.3575180916542,496.12361114093096,downstairs
7.011686143572621,-0.5462902003548378,-0.47118140146850324,10.40802988113516,-0.6319992583937899,-1.600391672626193,-0.31855532652829627,480.3911918844253,466.810642445959,534.0105373802155,downstairs
7.061769616026711,-0.5936182278619296,-0.443940353316662,9.576275171189378,0.6083466110029879,-0.321942298813196,-0.12625447250518124,457.7134820673805,522.1120110956242,511.44109516681436,downstairs
7.111853088480801,-0.5058309781072277,-0.0007562198569047024,9.322091952777743,-0.8575517015723957,0.361525899590528,0.7672412258629384,546.7149829680413,484.7462587370282,646.0939655883064,downstairs
7.161936560934891,0.3423484357684537,-0.024943048494935616,8.941782551486797,1.2559690713615905,-1.0721819786511424,1.5840119615522836,505.5033941844129,511.3042701390765,540.563775085988,downstairs
7.212020033388982,0.6168861035095627,0.3786722935470715,8.53294074330732,-0.15161487892685493,-0.35374068215478677,0.11645763297851272,488.47656715155415,508.87289519505623,503.7316988961114,downstairs
7.262103505843072,0.40087383381381386,0.6882036331436479,8.3174192309631,-0.6226906753949546,-0.7487560988138731,-0.6645161735005031,561.0787572357758,432.9482796560253,528.9045201807062,downstairs
7.312186978297162,1.102813734527571,0.7315738122019222,8.86469654170006,-1.1976427423940068,1.2886768175274217,0.16007818700477724,508.92622570737643,434.48179776563006,435.30813769454784,downstairs
7.362270450751252,0.28707867975526125,0.385641397980537,9.05497526156023,-1.4751298943674256,0.702265989235195,-0.08370015280101034,542.3282036114971,579.6090032566326,451.4261800586813,downstairs
7.412353923205343,0.5622979186286174,0.020590008102754187,9.843779931355384,0.09318413110501737,0.3605569282748774,-0.3726591755786337,468.3017398507521,468.05571648141483,523.8617955520301,downstairs
7.462437395659433,0.5109457833019284,-3.330291441614591e-05,10.050684614220664,-0.4875582109225027,0.2700077165164725,1.7363393560121536,563.7514858490647,486.5978795054901,547.5309842615908,downstairs
7.512520868113523,-0.27650029029428463,-0.4626203623677437,11.028017286228964,-0.0188180926019527,-0.199951275451905,-0.6068487910224786,550.0164822307421,485.9581694678963,506.8558690425464,downstairs
7.562604340567613,-0.4075108243303843,-0.46323355918798576,11.01795449344861,-0.3847171091255339,0.7220887743696537,0.009021318064124642,550.2517436865717,492.5010484361869,461.27653031957806,downstairs
7.612687813021703,-0.650799961855838,-0.8996012629814754,11.019866689291074,0.8434538147723932,-0.6680261405799995,0.5426630977016766,489.74078170938907,521.2278501311602,456.9109839112475,downstairs
7.6627712854757934,-0.8640605201104837,-0.8242577599118921,10.629577886008747,0.5179505171525545,-0.12807757414467147,-0.6737763989177381,511.2476665395077,465.4331153920224,555.4479993316495,downstairs
7.712854757929883,-0.3826270458593266,-0.4114259412374765,10.950285269195318,0.44019061071660825,-1.400034790624656,-0.5201436166218414,515.5738722079684,548.4811421305407,504.5936314606928,downstairs
7.762938230383973,-0.8247564791014801,-0.3001100363951483,9.730754826023865,-0.47901553634240623,0.43020907845393574,-0.21693056482856224,490.65423450561633,543.4882519600815,497.6149592626938,downstairs
7.813021702838063,0.25073761357181895,-0.19240679638078045,9.383142822650186,0.38669850231010344,-0.4869414393023683,-0.9547399382817754,495.09961245085276,508.35464294006835,582.679996779717,downstairs
7.863105175292154,0.19346425551473267,0.31408467975061316,9.173913242910377,-0.9490632753659326,0.4446538170194489,-0.7921662133911606,497.0217722159695,524.9039991107438,529.5030941075178,downstairs
7.913188647746244,0.9049127848893186,0.32083997835963607,8.396745358672625,-0.718886666256356,-0.4136059557454096,0.6670275888214329,493.1323625146878,518.0025010600227,525.2663865146333,downstairs
7.963272120200334,0.7213989062861199,0.4918064076223366,8.472281052917417,-0.2209049825614182,0.4731740660496837,-1.4765007360787255,441.0987956598552,544.6209046739627,450.84154785785995,downstairs
8.013355592654424,0.8595643472446373,0.6479011618492854,7.9350632227635876,0.6602593446167847,-0.514117230586665,-0.045824339676576537,506.75248852077345,416.3251222911373,465.98869291049516,downstairs
8.063439065108515,0.5843632429088779,0.24489638668272462,8.661560205854652,0.47013197056784856,-0.22968924411175784,-0.7382510386205305,508.31739465583485,512.0224425775858,511.7875781577927,downstairs
8.113522537562604,0.8105027541021541,0.29477196574482645,9.389973048904679,-0.2331270017935688,-0.05864050977465508,-0.48606467265272435,443.7688073472474,447.54071725155063,480.38738981715477,downstairs
8.163606010016695,0.741311147982841,-0.005217781168291358,9.861111707616026,1.1102131083072824,-1.3003697616616559,-0.33305117315041194,508.33591768258714,502.53689406751494,520.1993514763776,downstairs
8.213689482470786,-0.0708555910672671,-0.48366238247675036,10.759110271026794,-0.4345191811834558,-0.17375899753941096,-0.912095680133542,499.9992028256034,517.8870055923422,505.9957253170686,downstairs
8.263772954924875,-0.42928767797901785,-0.4982161739055699,10.773118835810758,0.20123566713585014,-0.4949002571676668,0.06412250271650513,521.0616635024276,510.0991325074334,516.9890282442905,downstairs
8.313856427378965,-0.6346540745077861,-0.37337761545253856,11.300899583189233,-0.0561459622733175,0.38640823137337377,0.8833354227118336,498.5731424245701,530.8558815943638,529.7691655160938,downstairs
8.363939899833055,-1.0684079712894266,-0.46396523758523117,10.993422408718505,0.8296627382884075,-0.2461055699941202,0.09290699293057071,535.2456148361814,561.3244519184855,538.5241102016618,downstairs
8.414023372287145,-0.9617740878574352,-0.5385901414324457,10.860473365725737,-1.3134808489828182,0.5548832151869775,-1.2235233761292468,544.8562642589278,453.2479922314086,528.1209666016953,downstairs
8.464106844741236,-1.0603057857667537,-0.5982493358624255,10.033421809072884,-0.5440832402087484,-0.4927047753598112,-1.067155012155846,488.17512101159116,480.3504088578293,489.2831245081598,downstairs
8.514190317195325,-0.7266993303212093,-0.09743783607008633,9.697308057797605,0.8998500582782656,0.3037237218633782,0.25682399075126666,443.5070802533894,494.97416257353075,589.3438482434223,downstairs
8.564273789649416,-0.07421845884516927,0.48140999264968065,8.903862730294607,0.3260050525170799,0.48007838611871767,-0.5618328858860503,527.9479928302384,518.2795467089969,453.8849827217579,downstairs
8.614357262103505,0.14260327209375212,0.5568113957239563,8.633443651154467,0.4203722752876033,0.30331247321163457,-0.63758892723493,487.192161339134,435.7983089120582,512.1491869418239,downstairs
8.664440734557596,0.478857448601865,0.2799869843308893,8.013441868120823,0.38217697180251176,-0.7738676316176288,1.160689741567575,466.8969845618103,434.52742345200494,506.6943062465075,downstairs
8.714524207011687,1.0197824852029111,0.5137862829539777,8.549554170731449,0.5406913785922896,-1.299024513548963,-0.041079398386692875,508.4645374242036,439.90304001463255,553.5180025522321,downstairs
8.764607679465776,0.9249556318418367,0.27811005520704224,8.755196182960809,0.5890941421978382,-0.9621589686102544,-0.012217465956409232,478.4952104939087,529.7863172532163,515.8062453948833,downstairs
8.814691151919867,0.7074144440159658,0.27616545496329203,9.533921455043714,1.089384644169106,0.48558970795149003,-0.0698309986963178,476.7027704621558,406.57721469121054,412.85988070447826,downstairs
8.864774624373958,0.47373689161351945,0.329510821116306,10.167827847172983,0.12652739584861908,-0.3723773253460574,-0.3564014125392925,505.2182866031189,534.8429830460985,413.96018199062445,downstairs
8.914858096828047,0.06631894812741602,-0.0725944980417462,10.35613114182659,0.11373415434636726,-0.3506524771413811,0.33001829208830996,543.894078019464,469.6423406610463,502.63137138962503,downstairs
8.964941569282137,-0.09796503352999203,-0.1272064129226641,11.075436397874782,-0.10606405331424573,0.1194642271992683,1.230962277902798,528.968693615934,523.9983059288361,543.7216787071848,downstairs
9.015025041736227,-0.8980513057712103,-0.4290246001328058,11.190343343628275,0.25976997350538533,-0.068730636993558,-0.10148572867431598,506.1412401593104,504.2943262276389,580.273071875872,downstairs
9.065108514190317,-1.021936717189383,-0.82690435493932,11.058101528123517,0.37707165956385247,0.12963749454336973,0.3734909167699408,548.0892813825155,433.1739880568571,546.8100208981605,downstairs
9.115191986644408,-0.6481814847933811,-0.6270919871940357,10.423934061296372,1.244386651178239,-0.7555106817495154,-0.2580188669102899,467.43767169081764,455.3534872375815,480.27487665638796,downstairs
9.165275459098497,-0.9930569981852386,-0.22521264337431063,10.02777274077276,-0.3606075143500614,0.0662124661304866,0.8400781517713563,547.8602935018968,460.0157445262664,541.2976977012047,downstairs
9.215358931552588,-0.5792059563154273,-0.4265883504442943,9.452567272945997,-0.5728656516299288,0.027258094933910775,-0.16923666130295847,498.08411750053205,483.2553983899989,430.2350907448278,downstairs
9.265442404006677,-0.214747713377412,0.03947866579359173,8.858340454221864,1.3975022072014693,0.33154388375060695,0.3501857411293588,492.23675023433714,502.64251615389185,529.4657432141423,downstairs
9.315525876460768,0.17101587852918,0.4596940564636355,8.872679670810111,-0.8339179621851666,-0.24903718862794721,-0.6703055410582783,496.4833126794813,563.5341310549985,579.2889071945854,downstairs
9.365609348914859,0.5215950518917654,0.4979404142020438,8.57995085191871,1.3996205100758838,1.53399057002734,0.11283337914332307,633.7311801700334,570.49140758213,485.1387275245626,downstairs
9.415692821368948,0.6207004310243034,0.5740874838073486,8.800003955287416,0.052580347520639,-0.47040422600022325,-1.1013449373172033,548.7487479999076,479.32055028535945,485.2273499004127,downstairs
9.465776293823039,1.0474509689718214,0.7139462940612216,8.563758252314683,-0.43892844386073515,-1.5734739227522756,1.0508257257548068,502.7596369596636,548.2121145514677,479.21754564136756,downstairs
9.51585976627713,0.8896372551358507,0.09548210097074855,9.500845761074347,0.26857184961123504,0.7458799959549425,-1.585978930867281,469.7704829964762,452.42045434944504,521.9629301552411,downstairs
9.565943238731219,0.5005414347623989,0.030208265341615748,9.631799553191597,-0.3989731213561069,0.25615321522421547,-1.2801741186164668,498.6847871417854,490.36519775761974,534.6461939317815,downstairs
9.61602671118531,0.5477029703730083,-0.2545567423571552,10.104178341323989,1.435171126360287,0.6592705900677818,0.7533317653757002,482.85149094132504,474.4361433569534,400.3894076188676,downstairs
9.666110183639399,-0.32684898462692435,-0.25311341493442385,10.585223876781953,1.0481307727169358,-0.03397228001334824,0.6255102225776906,515.1208662218547,515.8044936735536,472.40251232107113,downstairs
9.71619365609349,-0.4326797041792702,-0.42590423255788723,11.553566120911649,-0.6907431288237873,-0.5271730483046624,-1.5192621546245613,427.28680768892565,576.2943599675071,488.57352755256625,downstairs
9.76627712854758,-0.9523193793239126,-0.5300062745466727,11.047590833413278,-0.4778630915393209,1.3469834006758004,0.8358482526190955,485.6964976462098,523.4050316273141,488.9802145025169,downstairs
9.81636060100167,-0.8008791830836102,-0.48573220165695746,10.669071533124631,0.33893370714055215,-0.00043956708253933873,-0.13136416108066493,536.7523678677383,538.2130433603181,466.7962821041592,downstairs
9.86644407345576,-0.9266476174001206,-0.5307316359620677,10.336979126250743,-0.2874474294799617,1.0387169198079018,1.85792050736738,495.36111858105386,440.07679698791554,481.27655538349154,downstairs
9.91652754590985,-0.6496061606621808,-0.18367507542952408,9.681758957012555,0.32629924043589964,-0.34777008538356446,0.31469346830948175,490.6006082719522,477.6878581132906,482.1438198894268,downstairs
9.96661101836394,-0.38746901719752147,0.654369576524064,9.307926821923052,0.5350708981086625,0.36105259011792085,0.8248612525085184,500.50321226561584,463.52477803359864,519.0069670462032,downstairs
10.01669449081803,0.3084995849914286,0.3685754374621739,8.841300044392684,-0.7082713426668511,-0.02883216646986592,-0.4649255991699254,524.6699276152001,563.6633723152911,417.8415109888342,downstairs
10.06677796327212,0.37562749226119463,0.6668944904093916,8.423687452593509,-1.1920483335514722,-0.08319227642839562,-0.5331472112702534,549.1703739831307,533.1393112375694,459.2056005900489,downstairs
10.11686143572621,1.0038351256421525,0.5674753140573723,8.404619585700981,-0.2829183652583202,0.5785657300681674,-0.28100177168344553,476.88764149457444,516.3589255728664,480.6496289521088,downstairs
10.1669449081803,0.8087845528892862,0.4863117365100456,8.41853891083141,-0.9507373307275362,-0.17409547990074659,0.6589951964914424,525.4287268528209,483.0543343101783,533.7155792490576,downstairs
10.21702838063439,0.8352997669165997,0.20681315973421388,9.47098830634368,-0.07302676731683659,-0.33776573212661437,-0.6717525262953293,486.34025396935715,532.3995301951722,488.1356688081245,downstairs
10.267111853088482,0.6463797187108695,0.14626950806979633,9.53460530041929,-0.4016404559693996,-0.4644845407953568,0.5826328532542737,539.262968933313,527.9464920538256,530.5506603059214,downstairs
10.31719532554257,0.5615742266648336,0.03758897312109202,10.48164991717589,0.4153207491317046,0.010433976575233065,0.2155806677206586,487.15468128049037,498.16911607970394,513.0697852329895,downstairs
10.367278797996661,0.16698673344742226,-0.5610748924968834,10.678555930691235,-0.4780749011675899,1.0819518361377731,0.6200400430874374,494.9063001937796,523.5750984843029,542.7043593102505,downstairs
10.417362270450752,-0.4830674554999967,-0.5183220800702164,11.29242211395436,-1.6444008509098318,0.38973149756362946,0.004502921830009488,412.38184030133226,482.71713822646984,477.5051150155534,downstairs
10.467445742904841,-1.072281127171892,-0.7467659704062259,11.050051864603178,-0.16845648030893517,-0.012352696284821604,0.005149698413182962,467.2816053017388,456.17550370569495,553.8398657203417,downstairs
10.517529215358932,-0.8951136643528054,-0.6299960783903049,11.177902998538963,0.4999808407602286,-0.6791482492076355,-1.2986693935150428,511.63374768743193,518.3882303939879,540.8297819516131,downstairs
10.567612687813021,-0.47629868294822975,-0.8340558440723522,10.30272717179567,0.07869842042336075,0.8094706951529556,0.32917727222187343,459.72833519383346,438.1161662053312,485.3240604743051,downstairs
10.617696160267112,-0.7474386470569669,-0.25419500696640784,9.868588741241357,1.3144998852359506,-0.6843616325339826,-1.0974109162981276,530.2379579680413,459.2917907239306,467.42896731710397,downstairs
10.667779632721203,-0.3271359027868863,-0.07289870019664943,9.425421374612581,0.29581429262407355,0.49340427884969223,0.7273291169375999,489.25602757049046,498.46953510913517,524.5986544240002,downstairs
10.717863105175292,-0.019917836793795107,0.5265089943174386,8.828680415971133,0.19089224521062437,-0.7054172182700928,-0.30306465450787473,435.3036864457471,503.05511889548933,493.3989804784036,downstairs
10.767946577629383,0.5461058990892003,0.3248260776570975,8.743942265775235,-1.1112574721173951,0.10472620705937356,0.025875476738017763,584.5719154512642,523.5613892879957,494.74348957523995,downstairs
10.818030050083472,0.7249632749166327,0.6713629900439537,8.562517750384943,0.20857326224477105,-0.23965949507788425,0.817169786482523,556.1945973360438,500.67787421966545,483.59892919882594,downstairs
10.868113522537563,1.1480594834119056,0.5170834698945775,8.593134147442415,0.19251167557410573,0.4315811168318913,-1.1126648606495144,474.5439249389092,463.190404949564,541.8342867862917,downstairs
10.918196994991654,1.006456606739091,0.48773292502863896,9.158418587613347,1.3185122604857886,-0.08456728023599451,0.1610412585220671,524.4672526511008,596.2782980119292,510.25711137611813,downstairs
10.968280467445743,0.7407525763533231,0.4600341079534569,9.351988431817809,-0.07971165582651737,0.09629695140805777,1.7195398786337808,516.3686453880417,489.11310897215975,506.13162921478386,downstairs
11.018363939899833,0.46058434764905615,0.4422094623680709,10.269223624982926,0.7952211970726472,-0.654263452225113,-0.690916049399744,537.6212306794839,430.11349129195577,477.8142623810387,downstairs
11.068447412353924,0.25765957064115697,0.08257240335927818,10.687786727649446,-0.19323984974220687,0.007347399179077239,0.7017516013777635,426.32458985934795,479.22509425300893,483.06485030094854,downstairs
11.118530884808013,-0.3914254899536281,-0.17325891248206765,11.163632860243805,0.958877149938929,-0.371596879405807,-0.18207174826486786,415.9953720272028,498.0201565611806,489.3722901404367,downstairs
11.168614357262104,-0.7337907752829215,-0.4101999797916416,11.509223646597585,-0.5427251683552357,0.009631287350098458,0.23323121421607942,527.3734233351034,531.537706026195,457.4729595806556,downstairs
11.218697829716193,-0.4641547441958687,-0.4334183970515686,11.221746514916468,-0.039275805428689546,-0.6385573356112403,-0.6794847454618399,475.0186735523032,512.7677088668815,464.2090998324551,downstairs
11.268781302170284,-1.0009299408092311,-0.7553558543629046,10.465562355034821,-1.309139168255224,1.2420840235878474,-0.8206392718520883,463.4974999182578,557.6081995195472,465.99937931659275,downstairs
11.318864774624375,-0.7555893205555975,-0.5309786705645523,10.36771194876701,-0.09567655435159107,0.6867921800161025,1.0769626244500774,515.7824164921904,442.9604943739413,505.62988100923303,downstairs
11.368948247078464,-0.6080382696699141,-0.25064508883816805,9.378380955907076,-0.625696962242998,0.24140690214903396,0.43616048842144456,494.1964727152081,525.2614886288757,436.55540079330365,downstairs
11.419031719532555,-0.5299195638138253,0.058605849024253365,8.783173440166149,0.508146470617124,-0.7143820699543777,-0.4538047302484734,464.93833217303126,495.07610482501264,499.69897260228504,downstairs
11.469115191986644,0.29332957538204646,0.48084092184372434,8.394374224994658,1.2201247181236559,0.626020604842148,-0.77727893894997,450.1659047349891,551.6571153007923,498.3552701422067,downstairs
11.519198664440735,0.7112233059269216,0.37766609863974976,8.404207417623349,1.0520867966305918,-0.09469291769203157,0.23710091568785738,534.9457868595274,469.11620538501757,473.90417144977266,downstairs
11.569282136894826,0.8985007031042277,0.7207643092050671,8.017917510206274,-1.422393043188686,-1.3357150273386789,-0.0958416970629525,599.1876427104702,503.81936509337356,489.82043516612237,downstairs
11.619365609348915,0.8227526971157453,0.8255136918687378,9.013346803271773,-0.7404324337540109,-0.40139386760046597,-0.9283073445096843,612.10288169434,509.7620380942149,553.9250024551563,downstairs
11.669449081803005,0.8085443028339909,0.4326099146690566,9.38713744135695,-0.418888870042324,-0.16524739825064153,-0.3287807422346346,512.1453856500674,519.2649403054215,530.4645339600639,downstairs
11.719532554257096,0.5133740923077037,0.4990190047485879,9.978896350598374,-0.08825542881333293,-0.6527169378812728,-0.8234994887275282,436.94993850566595,513.5642879756998,423.33249674593304,downstairs
11.769616026711185,0.1647200479492934,0.04689852478890369,10.65084960894376,0.084972040890255,1.1964010965279848,1.6069057612658613,498.17879634145606,537.4676913371899,436.7246326671358,downstairs
11.819699499165276,-0.5714333645842421,-0.44466453800376776,10.960630946930827,0.8767084541371657,-0.515876487978939,-0.32948954978875317,527.600188025653,581.4520609609891,436.9271824448719,downstairs
11.869782971619365,-0.44185715974642403,-0.6401727398770429,11.368466075081852,-0.3101510461588048,-0.8476532821405357,0.9972396458841309,524.542008121361,546.3131585045586,433.9494520572498,downstairs
11.919866444073456,-0.5214511114464679,-0.28137788357550747,11.177799344087415,-0.09524646321585871,-1.2782136601634495,-0.6490836339849752,546.8562765838178,455.51047597880955,494.6774001935994,downstairs
11.969949916527547,-0.74041252066003,-0.4860787819471551,10.581074182506574,-1.2968253786369681,0.14666488512206535,0.5089734104798244,566.5736951640376,568.5420152100604,455.14245038200096,downstairs
12.020033388981636,-0.3779713039191691,-0.3332818410442898,10.526362281723955,-0.34848813325416644,0.25097338478291803,0.21559075885077833,453.7988567919676,483.218594510416,577.1078036795295,downstairs
12.070116861435727,-0.5015766036708114,-0.02263030274442425,9.673369151736223,-0.43833248103118866,-1.0477962617550387,-0.7841428834347166,553.0353776390812,484.7666511234258,486.7030003291816,downstairs
12.120200333889816,-0.12470916185993139,-0.25152758256786756,9.18897247837745,-0.08411303734624077,-1.9908127424753976,-0.43786219510383106,472.9655852960015,483.7086554167706,513.9088179750528,downstairs
12.170283806343907,0.15490145279359352,0.21959233971190567,8.62205936251447,0.14642021216098053,0.5639457392788614,0.26139068680017014,515.4844780825318,536.0640008972831,520.0501274375598,downstairs
12.220367278797998,1.060367988269483,0.832718295397703,8.419079722236303,1.434466495292371,0.936149792571013,0.38557167380066276,474.7937644936134,509.16105730301837,461.86854682872706,downstairs
12.270450751252087,0.5131939697146581,0.8636962061414073,8.581398363776728,-1.606905082734577,0.4768258242065268,-0.2859492119079033,489.50674219997467,484.6008272337888,504.308024304576,downstairs
12.320534223706177,0.936287529173618,0.5453901828333833,8.716771542770703,-0.18479467158571025,-0.06942341301218258,0.2108126436062843,536.2729995746208,500.75450062294976,474.41487036755154,downstairs
12.370617696160267,0.7383503578955427,0.09914912954296401,9.162720381025595,1.1592632233332165,-0.42768661463880914,1.046609643320402,533.3613831686836,525.1706065158976,496.1828721353642,downstairs
12.420701168614357,0.6164916566949884,0.13409121148215686,9.880882956955018,-0.1638897406786212,-0.3800391617543921,0.9789024780527306,540.7650421492524,521.8495920426316,458.01001669852013,downstairs
12.470784641068448,-0.2684080531167661,0.2399128418318045,10.845929997001708,0.07472929607570103,0.3985504907948629,-0.47645763976877176,518.117643442291,439.33490292023487,445.127690399783,downstairs
12.520868113522537,-0.10536558319702437,-0.289564144204452,10.84715040122559,-0.46715926996128715,-0.5220317269196595,-0.3277143119879203,449.1537659468205,559.6426532598618,474.2488158017656,downstairs
12.570951585976628,-0.41244014094090325,-0.6538092946450704,10.848618184990077,-0.06990208747413706,0.8556801029367033,0.4944322185109604,497.6264849939392,511.345625926326,486.58954558542683,downstairs
12.621035058430719,-0.9159727018947957,-0.7589959874183116,11.162602450030352,0.4362902096695081,0.5789093753181591,-0.3914915386087187,479.8459069890001,592.8062798768066,469.9725705077304,downstairs
12.671118530884808,-0.6991951138214609,-0.6499727104939073,10.678491756372908,0.4514612253624772,0.5121334703998797,0.14463442995681006,510.8252586745515,522.7407035557324,502.37149938643574,downstairs
12.721202003338899,-0.9643342970562219,-0.6521497755117012,10.436448765046908,-0.996268419691318,1.1506442040918576,0.7107451874257932,542.8827917135314,520.7591928309996,466.66743749875167,downstairs
12.771285475792988,-0.5084192241151936,-0.38578368525256945,9.934471334940618,0.4463393208081578,-0.543201677640792,0.14407297835996435,564.5639770536499,548.356425130702,502.166661039644,downstairs
12.821368948247079,-0.1934143469402964,0.2520275410019109,9.590616723090093,-0.43161714538348395,0.6080867868746671,0.4332107105337607,444.7351342159363,423.7367835899456,541.5972698237164,downstairs
12.87145242070117,0.10082071811634104,0.2681487772207255,8.758692103081026,-0.5996226009417007,-0.5978550432312261,0.8126689817934531,527.3764384720157,507.48633592625663,451.3824703521571,downstairs
12.921535893155259,0.8465340192101292,0.8623774846715393,8.673615045294515,0.350849207302748,0.822373681291264,-0.31536210345893323,485.32792995016257,474.2362324296588,524.3449725156074,downstairs
12.97161936560935,0.8683886545999389,0.7921904516807143,8.243355673263897,-1.2464736399765153,-0.10614528615717546,1.1012757830819242,437.30927551781525,438.1022532569649,547.0431939815678,downstairs
13.021702838063439,0.8447973724495725,0.525395040331621,8.539373125248941,-0.013884408942609283,-0.13111643514197543,-1.1334809822624876,520.0224483839941,557.9009132524858,431.6075591838748,downstairs
13.07178631051753,1.0632699714141283,0.5378354315241909,9.036881318137969,-0.21420748426670483,0.7552334320143095,-0.32283833254906014,573.5865554728526,520.8182031555931,500.71351752996037,downstairs
13.12186978297162,0.5493373828930236,0.05048401074712569,9.552048820420099,-1.027686413062572,-0.09107406700154251,0.25480983630063175,439.12825084860833,452.9746564874365,482.96979721273067,downstairs
13.17195325542571,-0.19153231135470233,-0.027959968041046834,10.333722571069526,-0.7491488890425294,-0.30010204753877295,-0.5895942974114989,425.36634978774947,438.5484665496401,507.73835250302943,downstairs
13.2220367278798,0.029569685084005176,-0.39610252889970066,11.056361414267181,-0.007546317138200611,-0.07061093381066082,0.9690548227593595,529.8833130927736,529.5077374490952,480.77735958219347,downstairs
13.272120200333891,-0.35035065071817145,-0.5988155493555745,10.762858673017138,-0.2846285531871915,0.28900236180383815,-0.006376726484573969,574.4933618357059,572.9466127849154,515.8655430314373,downstairs
13.32220367278798,-0.5458213087347624,-0.09193605762964113,11.318178445716711,0.3467293785436601,0.4870617569984439,0.8392437296914744,519.2021659690608,497.144020387831,535.9314516629419,downstairs
13.37228714524207,-0.9914910297940129,-0.42302209741114527,10.867126878455148,-0.7527999483667083,-0.6784806376596464,1.3281560435405282,526.1358099068543,521.6585601167916,462.2822761875819,downstairs
13.42237061769616,-0.7330597212905979,-0.7062779056390227,10.857059754108278,0.9593057963638968,-0.8276602632966586,0.2596511463477127,508.6743070427989,475.2039566566399,498.2669013572519,downstairs
13.47245409015025,-0.7492072427035015,-0.6102735426399484,9.867335332772427,0.41014032824608154,-0.9459693563762763,0.2129984016113658,469.9438008091055,502.38372824811853,558.2019267601473,downstairs
13.522537562604342,-0.05741162927956861,0.36084458178933143,9.376682168160725,-0.6012141654065408,-0.4017313566657144,0.8983845245806195,533.432193798623,510.582660888657,409.5841784986019,downstairs
13.57262103505843,-0.014758141689452303,0.23501504589336436,9.138962357791613,-0.9541487389053496,0.40522257441442144,-0.3198863699779105,498.10698126990417,481.0135635373945,528.4102755982035,downstairs
13.622704507512521,0.40331617867086544,0.6368707468476078,8.934066191268167,-0.2658538073112696,0.1507967668350083,0.02146608569715742,521.924330768743,551.7128552027448,563.3881817108388,downstairs
13.67278797996661,0.8251639357527064,0.5423571552243369,8.350059846554833,-0.5194694730717396,0.31535621903257577,1.6890150886987019,494.53761151958685,523.612437603567,423.8150956940532,downstairs
13.722871452420701,0.9802089811479132,0.36029382732106163,8.851036465078097,-0.8131498807177232,0.42257940257227844,-0.7356535957703373,500.96538406837004,503.40118795233707,467.1598575265227,downstairs
13.772954924874792,1.0844305258953626,0.46872184125457933,8.70376618603304,-1.1495505225941414,0.3365793842106859,-0.5769270467653771,566.6936083438743,508.10532893884994,543.055531773888,downstairs
13.823038397328881,0.3448961244230526,0.19348241283651504,9.58227975347478,0.7749025556605116,-0.9920104906098862,0.768122932510557,510.732637574723,529.1685613448833,557.1301229561129,downstairs
13.873121869782972,0.48240853248599597,-0.13733364940384724,10.267303358757575,1.0808832284926337,-0.9629366561150755,0.7391976340230686,488.6737998220566,478.51158483149834,549.4749399059999,downstairs
13.923205342237061,-0.03506753514803794,0.03666131566039618,11.189350657301878,0.4255808397646414,0.9226109912468293,0.39079123133105664,534.7821785723667,532.9340162156459,425.2576198406287,downstairs
13.973288814691152,-0.09015744928170771,-0.4122027128589128,11.07603307760583,0.3271391284465435,-1.5056432324713866,1.0348816356751274,486.38161100290375,498.9738146974291,490.606122079247,downstairs
14.023372287145243,-0.9281401946487041,-0.46841792574984714,11.299216615707842,0.22273366565017794,-0.06649327123195899,-0.5185512903331906,528.0267549332048,423.43425456194666,481.5319103241399,downstairs
14.073455759599332,-0.7025385203132879,-0.5161952854829039,10.973156957990534,-0.01560472505893946,0.8226708404130917,-1.0050495345960355,504.3019256596902,578.8675837838833,509.14886713341957,downstairs
14.123539232053423,-1.1245059049468584,-0.38855494505615046,10.672108835936788,0.8230335012621858,-0.8202069530784305,1.3483709503679326,559.2138268729182,463.97015897134503,493.8974408442627,downstairs
14.173622704507514,-0.4861116036218076,-0.32149447830704814,10.041904541922698,-0.18517399586336625,0.22882430878380006,0.7016447389455158,537.699762310901,500.4641867689145,492.1956551910182,downstairs
14.223706176961603,-0.379585323937614,0.16838681242993264,9.62706675541371,0.14806742366768466,1.326029680195444,-0.014959871273678118,457.72774257472344,543.7079800165214,488.04082613215616,downstairs
14.273789649415694,0.22704635617658442,0.2972502686892509,9.067499129277284,-0.807332978502892,-0.0826578487066034,-0.12549632778885,523.0522257772396,477.82995311107436,511.93228938980604,downstairs
14.323873121869783,0.2704198849345651,0.2565891404790868,8.647051771128373,0.019927258583390294,0.85594939943003,-1.1174824245425987,511.2143273244141,527.0233175548605,474.66899042251015,downstairs
14.373956594323873,0.8216177392603662,0.9985528982103777,8.443429095938498,0.43114473832153877,-0.007118619410127152,-0.04070773174359283,440.12662874674237,519.0623048103156,406.69174975434345,downstairs
14.424040066777964,0.7959649321965299,0.25596954272104167,8.444362148364808,-0.011420673175050907,-0.6805428208534652,0.1334924702025407,478.38808023768894,505.1336094825983,477.09086512011754,downstairs
14.474123539232053,0.803276394978303,0.29434273081980533,9.139657080525817,0.40443615307260866,0.46142258659345897,0.5966575912594557,509.0412569032407,494.29526553126925,480.6537799315737,downstairs
14.524207011686144,0.6483819476416752,0.018261216548203785,9.217061939580248,0.153992153532715,-1.5907537520133066,-0.6855794456328888,474.8617293921521,412.2918059635971,496.0502988057817,downstairs
14.574290484140233,0.914474519158463,-0.04195566531865855,9.955423351175957,0.6725701949119809,-0.17095900666778208,1.609482753032184,476.23412382347897,538.6367242290097,474.32499731360423,downstairs
14.624373956594324,0.5656244407785965,-0.3498249210528369,10.783166125057019,0.45827656128223415,0.6889224003365988,-1.5864100400293166,536.2026398867769,500.5839011802319,467.4755559947863,downstairs
14.674457429048415,-0.014243665112707915,-0.3120352746377744,10.953947562917985,-1.6523474092970245,-0.5221916799508364,-0.9408373497664605,486.7410873951786,525.6943991050653,441.68475977675314,downstairs
14.724540901502504,-0.3525030698571546,-0.5428705112076304,11.070951480978653,0.21225688329000028,-0.3559312854461828,1.0821564723317265,495.67823182181746,533.5689461231377,507.78473178835014,downstairs
14.774624373956595,-0.45763747695133844,-0.7496277503137054,11.11360623100146,0.04737572485219307,0.026739807390907703,0.7419640253641521,510.1045509165015,436.9541337704938,529.5636743552075,downstairs
14.824707846410686,-0.8849661923880581,-0.45292622432827084,11.288743344990317,-0.6819394283578618,-0.3633530143359878,-0.0745981343086517,512.5400771828128,576.0186854499119,495.08115278822515,downstairs
14.874791318864775,-0.6041214398302057,-0.17625081740120518,10.199044641799626,-0.8648993605718585,-0.05185995930267243,0.8473436580488062,509.5646110715718,542.4326348352034,497.6729129428197,downstairs
14.924874791318866,-0.3267457980869761,0.13298700209245096,9.21060230352657,0.8420883418940622,0.25489849117653074,0.8688909806561689,495.8640991585809,452.08963968220314,493.29998595203995,downstairs
14.974958263772955,-0.056145886347116564,-0.21529178692918466,9.16471767169517,-1.1903716016812058,0.6259776411582121,0.3206225006359304,518.9966146761584,495.8254814541518,454.10963478982507,downstairs
15.025041736227045,-0.004644253173637786,0.1690538545887233,8.557518123417324,-0.8753987230120315,0.6268262685135336,-0.8545507908112399,513.6528935277616,560.3888887365367,549.7642621055058,downstairs
15.075125208681136,0.8997053866359348,0.46209117361934066,8.742760686402201,-1.647662827650096,0.6388613288778257,0.2614970010963332,405.73106902968016,422.35279364303176,439.3141301579037,downstairs
15.125208681135225,0.9813348549280668,0.8357810023511487,8.359002311345103,0.640908087894445,0.9355157965483227,-0.17352951559308097,483.33729924903656,529.7239630523899,451.85841307479245,downstairs
15.175292153589316,1.0621683553529944,0.5868509525318089,8.617903936961328,-0.5826668557884628,-0.39461580903536225,-0.19197513623105605,532.3892897606152,495.8282398251942,387.28585528860054,downstairs
15.225375626043405,0.3589801191246104,0.7073718858945195,9.298840129773438,-0.11622244038311522,0.06196170826710785,-1.2717575192412696,524.7778852251812,525.4816520469215,512.0918217278745,downstairs
15.275459098497496,0.9180941570146663,-0.05246289850176594,9.759744542030273,-0.18175565777967895,-0.5528640249529554,0.0461412015334488,576.3429098940323,513.3632308201906,404.76775600057164,downstairs
15.325542570951587,0.4528814841171956,-0.41609695317709394,10.370742970664908,-0.5993608600867341,-0.6556848846457204,-0.461308608246272,460.4022825516689,441.8366912300099,508.9992630259809,downstairs
15.375626043405676,0.27256213421680586,-0.22308233725749038,10.894528199280089,0.13642822219664708,0.2255320819985582,0.2852763204036755,492.1719913054605,499.099302364826,526.934593661015,downstairs
15.425709515859767,-0.44574430369488427,-0.7720180248982189,11.197302649212041,0.28196784490628496,0.12239489999430522,-0.5695517171345577,481.896683065262,483.05899638114306,513.2069100794704,downstairs
15.475792988313858,-0.7273009477437813,-0.7663181767595668,11.15975571207002,0.48704483524955006,0.8286893287660748,-0.6967823994961719,585.3660195985979,513.8833042333066,490.8509903515795,downstairs
15.525876460767947,-1.1080306908795885,-0.7464237516362906,11.046278838673016,1.2094335380413717,1.1654799063871273,-0.9250257677288894,492.8601979357399,559.4661948678119,557.1043531542732,downstairs
15.575959933222038,-0.6376464263428416,-0.5673533906820787,10.350708830155721,0.2428060589736348,-0.3959836052710444,-0.24166248196357404,466.12053629100365,535.8421827998395,484.757271077835,downstairs
15.626043405676127,-0.1721169632808291,0.21147706574073455,10.223807878634684,-0.6674257912071611,-0.07035170125064015,-1.0167654233404575,537.696110694827,516.8387044236531,517.9115736905314,downstairs
15.676126878130217,0.08354511086409462,0.10292588159633512,9.015877131051173,-0.5013628581337306,0.31580549703781846,-0.15304169186754799,506.6231084317299,432.2945106545358,466.2257638793962,downstairs
15.726210350584308,0.2113403230259422,0.18192012703080027,8.586550654271237,-0.5423738949257997,-1.2414354021516119,0.6036682291765042,426.52526080931125,568.7648592275542,447.2004770969448,downstairs
15.776293823038397,0.33502807923312916,0.23860030557648199,8.479256137209582,0.9591786832027127,0.04323752667551283,-0.13086223975612238,515.258237293133,510.36240645040914,465.06884461927973,downstairs
15.826377295492488,0.735783797136875,0.4115216149354126,8.239308202659311,0.4892625832671745,1.5431169104808236,-0.9895239523876795,474.58254219159716,523.5491724795626,402.03017843099786,downstairs
15.876460767946577,0.8164437014569668,0.43303350225745857,8.512215795092589,-0.22881018729322938,-0.47506507853973484,0.5420448904491365,469.2857049007763,510.6561254415621,505.8839228816295,downstairs
15.926544240400668,0.8185526239749801,0.8020258095590109,9.168308779507036,0.21879447973102262,0.6380020943815589,0.06437984690089947,462.637330543315,493.38908336368803,503.6092274457665,downstairs
15.976627712854759,0.692034173085782,0.11016855093715311,9.538894104392734,-0.30309064393211466,0.16039621235689455,-0.7089271426305209,571.6522917424517,520.8203466176632,474.53266937378396,downstairs
16.026711185308848,0.3348507115959149,-0.1288770456332456,10.090224940627772,-1.1575375008512108,1.070552968308212,0.28279428081009095,438.00049547810346,517.5236730456375,526.3448855217121,downstairs
16.07679465776294,-0.231686646442115,-0.3181272711556592,10.680779134620698,-0.9213999225234684,-0.686344418927703,-0.38585669428377534,453.2557416182678,573.9774983596551,537.9682739378973,downstairs
16.12687813021703,-0.5127389372124688,-0.8021800050570582,10.960886010515196,0.10999035448752423,0.446434208209754,0.4657730251798471,584.5913295818918,468.51255836775357,565.9365691671937,downstairs
16.17696160267112,-0.9867538890296056,-0.9245288131915459,11.120277603584654,1.3615706677452863,-1.2834448451900426,-0.5144610121218112,476.6058765055319,528.756070216764,486.5730113723566,downstairs
16.227045075125208,-1.1675226370240943,-0.9040622832934584,10.944968804691895,0.06530240402147859,0.824237595480247,-0.19860684147968025,497.7628188130536,518.4953936793914,471.99372278547065,downstairs
16.2771285475793,-0.7418123025764422,-0.3618693086075902,10.94341257900242,-1.257846897666782,-1.0632035146672343,-0.6012689462996784,506.30537035393047,527.0234888721321,481.6317409888031,downstairs
16.32721202003339,-1.0201279332095377,-0.41860453330681924,9.948113331989646,0.09328641392208611,0.6452891021493156,-0.29118738694776064,547.6912644891739,502.7180614566465,506.35581869370253,downstairs
16.37729549248748,-0.14995893278983569,0.1809985014973406,9.242329857436077,-0.7264730538357322,-0.2560449313465975,-0.6786401852249241,543.088425602336,515.8170987083781,518.474751444912,downstairs
16.42737896494157,-0.02174437189045888,0.3305567195326975,8.902854770304907,0.7333198838857802,0.22920676045087504,1.1706434219488906,517.2194678346928,537.1854555810389,563.4359587754359,downstairs
16.47746243739566,0.30210551177925765,0.038333321354896366,9.010176920459811,0.07483393934770341,0.2565037373100534,0.5908258218470522,534.2516407829729,519.5756423239117,469.7328874069209,downstairs
16.52754590984975,0.6934635970181797,0.8768559167567493,8.009358973898504,0.3306485036743081,1.0551516535539613,-0.765401802462804,526.6255115995557,450.3876823762561,486.3638522624228,downstairs
16.57762938230384,0.8145807842466991,0.476888959546326,8.27976654591832,-0.8197208971493297,0.14585507009547286,0.5556611960501421,502.0932147874749,512.1539730788139,440.578546444529,downstairs
16.62771285475793,0.8944735509069487,1.0342685083571834,8.894766753409709,-0.7841538750213527,0.4484899901447853,0.07005680548650797,534.9568196149684,495.65792389767324,496.8509624954787,downstairs
16.67779632721202,0.8934509060200179,0.24760804755643923,9.627307541277066,0.002137645140717883,0.5542469285521024,0.49610201081117006,502.4558837054182,419.67779541309955,550.2500066363688,downstairs
16.72787979966611,0.7261617271394172,0.2536548579762017,10.048923991505502,-0.0752126310134102,1.044971537013815,0.2753084102427353,496.0411481250288,497.17695471080384,510.83767123445824,downstairs
16.7779632721202,0.2376918262865078,0.003200082681545008,10.657848429039985,-1.821914482220151,0.8277887743300978,-0.8282051778047,493.4509580819781,477.77740275981114,527.556522353249,downstairs
16.82804674457429,-0.23114633568178167,-0.2631447034159514,11.46914662343735,-1.2891141095317766,-0.8514485567604642,0.32083334180665407,502.5325381045285,510.87031615864515,554.0717734900383,downstairs
16.87813021702838,-0.6074772014935865,-0.6797323960416808,11.170896639073785,-0.12726272294874688,0.3995129732685472,0.06316208915105152,461.84493100101486,503.1178093946366,518.5496471831916,downstairs
16.928213689482472,-1.3242536427333373,-0.5263340877814522,11.011350203404575,0.35215538931382,-1.1468028524366631,-0.4696817106775393,432.65204497536814,477.6649570301158,494.983950616236,downstairs
16.97829716193656,-0.5546330142964346,-0.5148709739027912,11.025809680045064,0.3748610804951316,0.15676634500553296,0.05506898335770224,465.6958179794761,476.77372494179525,435.15935690116964,downstairs
17.02838063439065,-0.702770479173101,-0.26663035270854263,10.081307623613982,-0.6698379364833331,0.5106347733559123,0.2921892313609589,453.1408195828275,468.1560059880833,421.3065877236262,downstairs
17.07846410684474,-0.4470390854262736,-0.480240476988731,9.525774334779973,-0.7819815971079586,0.0710777242347468,0.09864546052229757,559.9867859232927,466.97380950502696,476.71092915558256,downstairs
17.128547579298832,-0.2275320618363959,0.13709080997155615,8.999872561852532,-0.6398358922264075,0.6266525490984731,-0.33142643721805426,551.8268126514262,508.78954713864033,510.8447533923064,downstairs
17.178631051752923,-0.047164640327782836,0.546372956229892,8.312827262574274,0.3261382794996653,0.32225463935065485,0.139589966695424,592.2986330356491,497.67749090801436,452.9722589423107,downstairs
17.22871452420701,0.670553694035667,0.20386218562239916,8.10857598986817,-0.05908087345386684,-0.7576223646445642,-1.342961485070795,443.9325826776719,499.19888337158727,501.45335029736304,downstairs
17.2787979966611,0.994754579321243,0.43085033311491905,8.245278808029505,-0.29320071238606127,-0.2244012156620313,-0.21468060598733907,507.61883121200697,540.8039082391543,559.9741822647051,downstairs
17.328881469115192,0.916675906694766,0.7759819931641216,8.777007233230043,-0.6604236611847594,-0.14307248523179233,0.1436844940074064,533.3807445452867,472.7296787477461,477.4721630789589,downstairs
17.378964941569283,1.031839376998339,0.6007503284410369,9.265292328389494,0.6474430324259666,-0.9848564630290212,0.5531571183326413,504.2430049886578,411.758799202702,507.38629969052056,downstairs
17.429048414023374,0.7342108231894731,0.014822639811313543,10.080048332396121,-0.8129287920241587,0.2821849736516553,0.024679636097670814,468.5944550471759,527.8070421838228,489.6832538987124,downstairs
17.479131886477465,0.08887422212021685,0.010263955110697776,9.975031681010012,0.9168551663616336,1.0094351125047074,-0.2229569487692336,510.27151304818796,593.2623020546391,460.8622819443375,downstairs
17.529215358931552,-0.11129140172282669,-0.6002347306138662,10.735895229311698,0.8697915170824193,-0.2433284794488561,0.35620150143049434,492.43118625315975,493.4327519695652,497.7847934677443,downstairs
17.579298831385643,-0.44930422658196423,-0.43682430634582875,11.487037661984733,1.2122650905358845,-0.6841739472012744,-0.6822507683087911,509.14252520124415,472.4224723794929,479.3304746559992,downstairs
17.629382303839733,-0.6874718996313907,-0.44106995022765433,11.01549986860153,0.8180014858309489,-0.0018597383416148815,1.1973954933402686,500.4804880419254,478.0371441640851,515.7655183853365,downstairs
17.679465776293824,-0.9821258893114306,-0.5680175934852867,10.693027771080782,0.019871199718643297,0.617471152846389,-0.3665664809210093,537.4811269062507,546.3974632125269,519.5817893336829,downstairs
17.729549248747915,-0.9951965046305844,-0.5042958014429724,10.093852484834676,-0.5198749836419909,-0.42359291608713256,-0.7687628145223945,509.0827865763791,551.7103204316354,509.6789119020227,downstairs
17.779632721202002,-0.7546561509712214,-0.48565155075467353,9.79841997346606,-0.08753207800500977,0.15858580413556767,0.830643734699113,543.2926962908642,497.50290228808643,446.6942036352085,downstairs
17.829716193656093,-0.02747149796036294,0.4580836417684261,9.325875981748442,-0.15459987579377876,0.9072952508338918,0.12892120935450205,494.6378612713914,523.5809942306513,509.7811702553463,downstairs
17.879799666110184,0.37645585015235383,0.6342404828694208,8.696183245285008,-0.2714168798770893,-0.8914192152889991,-0.7844178135070456,461.85802001911355,441.26225804659566,504.3157147068156,downstairs
17.929883138564275,0.7452878749826002,0.18725763608816604,8.210710194702228,0.21370725003198926,0.71318594597044,0.2882721183953529,473.7256467941932,504.04799820124293,552.1488447444533,downstairs
17.979966611018366,0.8209042270147587,0.6808812642208393,8.694032545933752,-0.48643895588158914,0.441459019490871,0.06288667589015165,452.0628567787755,520.0668464432667,510.91072541892,downstairs
18.030050083472453,1.2528761072971983,0.9178101531811622,8.995718042543851,0.8888088766923806,0.8853771817929532,0.16420898406936357,537.6048760087075,483.06738798060866,551.9047886428432,downstairs
18.080133555926544,0.9342658650824672,0.3830618306026084,8.986661692553561,-0.002613226538740938,0.28813762039956464,-0.9559112502325479,489.0591562217411,509.69470899647627,479.68005295480674,downstairs
18.130217028380635,0.4786890203695873,0.31971317942823685,9.686772426798184,-0.6490833369334198,-0.033395915300683,0.14118905362299658,424.13944625856396,502.395437837509,531.797001500837,downstairs
18.180300500834726,0.39791798791236843,-0.2583180879838579,10.119289526741252,0.9274129610390602,-1.6714147440908789,0.3852355197269979,525.1729764738798,495.0453734113556,553.4358690279549,downstairs
18.230383973288816,-0.2579347065174051,-0.17980207345542124,10.623645743592562,-0.45092696167652874,-0.12175032845163015,-0.732355645352079,504.50585499608934,494.92223753760504,480.83873564457764,downstairs
18.280467445742904,-0.44670827654039025,-0.6272796946123782,11.185849071746667,-0.6978412921594637,0.010646556300105005,-1.0693014066139404,541.8518334555032,446.9631664564666,590.9469926340095,downstairs
18.330550918196995,-0.43973681390652,-0.6488703874091333,11.11148883474424,0.09312600715006528,-0.697776359960639,-1.0177311640784203,435.68949761431804,571.5204343804938,510.53567479451164,downstairs
18.380634390651085,-1.2972812919570451,-0.336156449576953,11.013407333832735,-1.3487831047493015,0.03581367129967967,-0.619280524670445,511.24492478256764,518.3805878999107,543.5208226775858,downstairs
18.430717863105176,-0.5185201877698415,-0.5176567680006048,10.435743021957352,-0.2982380240288256,-0.09044970800055926,-0.26605813111280613,459.30098907449457,544.443225530512,546.903433670176,downstairs
18.480801335559267,-0.7985866616556583,-0.20552792061486974,10.005716699585447,-0.002648045533626689,0.0518719434556571,-0.3559597705162979,480.87930331565013,494.333728818699,500.7463897774469,downstairs
18.530884808013354,-0.417256640809207,-0.01713565232555632,9.090582402198404,-0.3251824487806024,-1.2188821886567436,-0.7715428701308464,499.72115486933023,547.6358633196235,504.0350870975259,downstairs
18.580968280467445,0.03622481576828289,0.3855297379231157,8.578024823090189,-1.056837317579058,0.08625165431100514,-1.1359190296749169,444.96058543929684,526.6330148359168,516.5016013938399,downstairs
18.631051752921536,0.5021882053183029,0.7426740184408396,8.385777199733008,-0.5563677580500109,0.0984610821690411,0.12801264752189254,504.45430995745,548.2931679232073,606.8488307944119,downstairs
18.681135225375627,0.84668129026329,0.24653471636989832,8.1452990014893,0.9959671896212476,0.09074374517237685,0.029085843875596287,546.2465709588089,554.1679117481715,534.7017067287683,downstairs
18.731218697829718,0.7319307458054407,0.4821742983074668,8.630441356025202,-0.023677135370789002,-0.6639551929849437,0.03392687483471887,515.6579136002107,556.9308618116665,505.0843927167514,downstairs
18.781302170283805,0.936539360146723,0.30076329645400113,9.226974878013824,0.25939231164353566,0.1848113637013678,-0.0539088111177059,547.3475455928719,424.7953142728762,585.4776130478996,downstairs
18.831385642737896,0.7181902935814698,0.39973137582517393,9.486791636319841,-0.44807510385485644,0.03842880789700919,0.4260355451691247,411.81257329744346,548.5512617991558,489.6007380145256,downstairs
18.881469115191987,0.32603316664325377,-0.09112120441047375,10.051199794569781,0.14444892162759834,1.0013229340596328,-0.605307494920439,466.9783145766883,506.779861591216,466.81649879428346,downstairs
18.931552587646078,-0.2782212460746292,-0.25064509837982796,10.625009742277154,-1.0774286197989853,0.3976110772546437,1.4411865775199595,535.9325554045236,472.5040597558517,560.6425657999556,downstairs
18.98163606010017,-0.7264039101189967,-0.2789121585859353,11.212313682638646,0.576833135343997,-0.39764925674665463,-0.02935502820491498,479.661983239964,488.6961230649098,504.2169328419545,downstairs
19.03171953255426,-0.6455940711033961,-0.669007149826627,11.372875967792018,0.016281953499328403,-0.049576473463355614,-0.051117051000212646,554.974267294925,411.56269365575065,566.52905328158,downstairs
19.081803005008346,-0.30337694160386386,-0.7073988049829887,10.637841363905306,0.6365694623315572,-0.4022806819224884,0.12237352952886969,518.0047561884827,532.1166078652518,485.076500027299,downstairs
19.131886477462437,-0.8442819543327248,-0.6071320408061698,10.780966301188643,-0.30608745629527967,-0.008851576528431658,0.7982902827923103,469.7287074726246,428.09924766103416,499.78096902374756,downstairs
19.181969949916528,-0.3436434328417957,-0.06088366805021006,10.104343407269468,-0.43469882193354537,0.41669532838594914,0.21908654495787602,477.2790390539619,518.7058802863227,472.967371958886,downstairs
19.23205342237062,-0.09544413893834286,-0.13523138927250272,9.32183200113631,1.2044905527034424,-0.11484286748423227,-0.010660564160507138,458.02934714788336,510.3111090915992,496.22724108454565,downstairs
19.28213689482471,0.04139814196573817,0.1559580116843057,8.788479170637892,0.8252514430762726,-0.3318917178311974,0.3593728202818741,474.290069874063,456.6695440584774,549.883671217836,downstairs
19.332220367278797,0.40839728020091404,0.2735283166599938,8.661032765690354,0.22278551414043568,0.15670710106461885,0.11745678296925893,469.9724018105841,491.8448263052587,577.8971422357896,downstairs
19.382303839732888,0.5900290389900665,0.677532078998426,8.010018335978128,0.7887815754013339,0.29598618207599015,-0.8424506816602455,542.1363664926571,496.38897702809066,459.29674814754856,downstairs
19.43238731218698,1.1420058268077513,0.3460397111857244,8.41738042315744,0.051493628218632015,0.6750632075473396,-0.5751504687019815,514.3564409592497,523.7060649091919,512.2453566248171,downstairs
19.48247078464107,0.7970242201703334,0.5020114306545693,9.113235136228026,-0.29257011361712115,0.6205452219632629,0.5653846312602896,478.1936669383801,496.78551123934574,470.19364020850986,downstairs
19.53255425709516,0.8080191447197181,0.6654447904364107,9.48989480062092,-0.37802778393839054,0.9933319241817261,-0.03031116397019729,468.28558872331394,486.59799575487216,499.64213893137816,downstairs
19.582637729549248,0.29746749122408744,-0.10717260037883486,9.861022244575736,0.1754437730354612,0.7892761302039011,0.16163152629756466,475.70258104092994,589.0145089117076,468.0297285047229,downstairs
19.63272120200334,0.14389120433694014,-0.35798574644329395,10.63737525925761,0.3793518432951372,-0.5864535823374636,-0.8563050821583809,466.86255308006236,542.0369188682462,452.2756998105638,downstairs
19.68280467445743,-0.18792867279578865,-0.433386124483019,10.83944517377346,1.3519799020522434,-0.7359765289088996,-0.7055780131358277,523.5686651823632,473.54350232730786,544.5510828687881,downstairs
19.73288814691152,-0.5278234058069755,-0.5109723630622405,11.098450311290117,-0.6587262986129679,0.8939372294304925,-1.4428745648345653,443.23945068068986,556.3933348067056,422.17372956266394,downstairs
19.78297161936561,-0.6464311282113284,-0.6616978076537146,10.854347936705311,-0.30886486927974255,-0.0792833147157563,-0.8610508695929601,504.15170748421366,473.6121268215799,471.53330946267766,downstairs
19.8330550918197,-1.0101804525211358,-0.6216063761436907,10.621254091153855,-0.4142782797842947,-0.5234108667139514,-0.12160528579804812,481.0409973398291,502.1440197796542,486.69414660737624,downstairs
19.88313856427379,-0.8654441839823401,-0.3707019016457179,10.096526032554255,-0.3977536953459801,-0.2948314290552353,-0.7733695468331276,520.3928342354557,448.8082594023514,502.2062565747953,downstairs
19.93322203672788,-0.7470117465515433,0.04246447556009661,9.615301587826448,0.5384395244515667,-0.34992777770286687,-0.8603264776626034,516.5052329026648,478.46800461815775,506.9185152622497,downstairs
19.98330550918197,0.005066081488421609,0.36745047469193076,9.05944490676995,-0.9366489312611331,-0.9189384320916172,-0.26855876017910135,489.21040445240715,527.2959180344703,493.8248158648045,downstairs
20.03338898163606,0.4491317902072062,0.6660933639981819,8.569067485558586,-1.5975396907148522,-0.1811689059857723,1.112753967175536,520.5418616529199,511.08713800799273,560.3482218538996,downstairs
20.08347245409015,0.4994348706808452,0.8638706511993717,8.393355708234829,-0.024289357782700284,-0.8610686877537189,-0.24131507282237843,484.316053317228,558.7824900945071,490.12738775014867,downstairs
20.13355592654424,0.7789342273084647,0.7472035621037487,8.507878950550795,-0.21133138782134855,-0.5688154240863308,-0.315420514160635,457.65604547982554,513.295398889659,474.1989516924581,downstairs
20.18363939899833,0.8882994410839681,0.5537312735717305,8.723739961620389,-0.758437649395652,-0.465290600779084,-0.774913639565641,510.8481030330402,563.8812412632608,576.8587653509563,downstairs
20.23372287145242,0.5992315798380555,0.5178602418387939,9.361796965872225,-0.9517490633102208,-0.18237839858808758,0.5664679316335579,550.837374346621,475.07646561045004,476.64903923078447,downstairs
20.283806343906512,0.3826754474557895,0.10746056493496925,9.477359524122951,0.5574446384912183,0.3218220054362655,-0.07047132273807337,467.568352723815,493.4787460827317,582.2375717721042,downstairs
20.3338898163606,0.4856598781465598,-0.3159813562534761,11.028356936237348,-0.2902304988859324,-0.8817335505181924,0.2812675839504096,426.8572856463908,529.5559067826044,520.757789890814,downstairs
20.38397328881469,-0.3322367939833866,-0.07406383504174685,10.66194788804809,-0.8540887102237409,0.6057640385636959,-0.8737848711919478,489.41621356703297,526.7737558239961,495.92984182601475,downstairs
20.43405676126878,-0.42188610162842616,-0.34556698509563444,11.424449806563963,0.29990544595502133,0.7014067640025053,-0.31855246057617936,465.1859483171449,551.7138239060623,569.0625667993332,downstairs
20.484140233722872,-0.882533494383205,-0.9768309122935479,10.920861865126982,0.5849270617277034,0.23403913424091738,0.05459591860220009,441.5732792416733,479.17798864906615,471.3448289473325,downstairs
20.534223706176963,-0.7715719903491866,-0.4976980829855793,11.003058178401474,-0.08283818119722341,-0.1649989018457364,-0.08952581798877193,478.4380380294959,513.6046247971344,531.2999542020165,downstairs
20.584307178631054,-0.7156902636582692,-0.6259342407444863,10.218942063241993,0.35277776341447536,-0.17355895529629753,-0.337384296982105,460.6750599187018,440.0685667687337,469.6278838766472,downstairs
20.63439065108514,-0.6332613895051746,-0.5027526448285116,9.568005259782435,0.39858718865508086,0.32534893934520676,-0.6083758466555977,453.2503946601256,509.48230773911735,531.9566827436588,downstairs
20.684474123539232,-0.24795959778000443,0.25194152032702166,9.40633224100566,0.1789892340602864,0.20093595437198963,0.2210004265403235,524.1957025041644,528.5629830949199,503.69618874256645,downstairs
20.734557595993323,0.3625330344477916,0.2890482278898504,8.992874838094957,-0.4416345147566904,0.6106799192028227,-0.4301516415185217,498.36091845516034,556.6051585990921,470.11451365417884,downstairs
20.784641068447414,0.6236328302158773,0.5534359773648145,8.176071868726345,-1.2644469601509156,-0.44194619730114854,-1.382443010419098,497.7854849412075,541.3066228701391,476.71797416916775,downstairs
20.834724540901504,0.6678499595640576,0.06322341829496181,8.562378942646777,0.3816685752281521,-0.19314094324734582,-0.44941587300478525,540.4886818704982,474.6686399745516,469.96005884497276,downstairs
20.884808013355592,1.0271591286895072,0.8824743691927144,8.871945534665603,-0.8217042831952427,0.30288129437853395,-0.30900511520478463,556.0666514668379,569.9532091104279,463.6159431992172,downstairs
20.934891485809683,1.0164172854575575,0.11532042612449916,9.308161665399654,0.4252250791166651,1.156931096884906,-0.022192970857209234,479.1701724390369,480.1487087329123,459.48127283766195,downstairs
20.984974958263773,0.6500861443112576,0.5864638256310788,9.61424698454209,-0.7515371553312881,-0.8788952863553977,-0.1935554882594333,526.0183384034623,450.24340068849915,486.75689764092965,downstairs
21.035058430717864,0.5125386394734655,0.09038077384020592,10.657479531201965,0.4633334916166397,0.8787700065028163,1.6389735836666672,459.66628454798865,488.0879642225377,508.8821426086988,downstairs
21.085141903171955,-0.02023709154256667,-0.5431771837281163,10.860514502751748,0.6134046370030813,-0.9774683485190356,-0.9030939339760929,501.1872740507408,473.26717557887525,560.979200331293,downstairs
21.135225375626042,-0.1495546948424059,-0.30391680940011123,11.129085906044603,0.9133749720123769,-0.6168656379504178,0.22682320365445924,435.94137293132155,561.2132184512279,557.5478886913278,downstairs
21.185308848080133,-0.4252258255125617,-0.4234791369452643,10.909692702766318,-0.41945361158820527,-0.9025283720835982,0.5354190146746133,465.0822428554224,495.0006944220888,471.26933727670195,downstairs
21.235392320534224,-0.871689703663307,-0.4033149247620662,11.327805083187155,-0.400037084137807,1.926110007006094,0.5793877000128098,420.1965571911575,435.08788012835817,467.61527304199564,downstairs
21.285475792988315,-0.745057498260336,-0.12169843376923084,10.547217417142326,0.45077358789572125,-0.5196000148908311,0.519002479301744,515.6208266424835,527.9361258924805,494.7775730373745,downstairs
21.335559265442406,-0.44990914688459627,-0.19698595544808484,10.087787533284704,0.19873709147741483,1.015441340982931,-1.155100091288505,444.03488702640027,514.8401664979784,461.6570267890749,downstairs
21.385642737896493,-0.32984749143564696,0.15991654916901485,9.577003747898607,0.4084189142476616,0.15421347492883244,-0.18316315455959106,440.4069795655851,499.8160287311032,480.0007578027961,downstairs
21.435726210350584,-0.1669631842386947,0.35463120897722045,8.639300997099804,1.0102755819875364,-1.2139283902049025,-0.25138058215614156,439.90855750968757,549.691460701986,491.1575572251281,downstairs
21.485809682804675,0.48989153659346324,0.771240951047274,8.494698098046591,0.853252805400102,-1.5863740236250576,-1.559892055999447,481.7512934576361,498.9539098410491,467.51232411031026,downstairs
21.535893155258766,0.7820837371110213,0.9316722892077389,8.447209257788115,0.7607677514496044,-0.7576831465883741,1.2473148660348095,482.8867760088488,504.68747049406073,479.3473315850642,downstairs
21.585976627712856,0.9390318913544521,0.45389519562092595,8.917821790180795,0.9089079385936648,0.6717969718672993,0.8239408557124955,483.8886619831166,510.7766311026701,490.19818485816995,downstairs
21.636060100166944,0.36846439969730527,0.6487473786969526,9.102967041946584,0.17432694968763238,-0.39434442180946977,1.3830739537125571,475.22031963398706,457.1007338938572,550.8579601291566,downstairs
21.686143572621035,0.23291682601809216,0.205819653573933,9.524156239763618,1.3583805484572238,-0.018751092743914274,-0.3613170543848484,467.22418100180977,479.07071250131185,451.39473027515066,downstairs
21.736227045075125,0.45956306367567196,0.2554609875096667,10.506973422019176,-0.13722219994443685,-1.377433683062197,-0.8401767110521876,553.5041325729446,517.2762767220181,527.8353990081317,downstairs
21.786310517529216,0.15078399552265398,-0.24247438684185674,10.882983163505463,-0.4967724506955762,0.25367846502653696,-2.2818106393803035,486.13308616626284,542.1285648499946,513.3304765771175,downstairs
21.836393989983307,-0.3378445234414386,-0.5567243587627579,10.818425306511578,0.7353218840464851,-0.12549914068237725,-0.7248100632082201,522.1485602620477,483.3304994281613,555.4661788975069,downstairs
21.886477462437398,-0.5813588545377146,-0.4004762112708997,11.016636679121593,0.6251958013907564,-1.3939579946372203,0.9642292197341092,538.9857783885764,536.0146841219345,541.6761209989368,downstairs
21.936560934891485,-0.7448394197241793,-0.39958575783966477,11.12527068144478,-0.48723214556453576,-0.029363948439147386,-0.7348931710852404,434.36438371740985,451.8680752617706,502.58254305848624,downstairs
21.986644407345576,-0.6789564446772611,-0.6533173659596687,10.760046022863689,-0.08368778985032328,-0.6506329288118585,-1.076979123261742,581.1509050381331,553.5107358455097,541.4667672056632,downstairs
22.036727879799667,-0.5694485948888471,-0.3518181642470798,10.08826748543127,-0.06491812431764626,-0.041262699789555345,0.34285094620549916,517.9143253725065,426.3534371938906,534.1815779553712,downstairs
22.086811352253758,-0.5362131598392607,0.13038651007740917,9.545710580159612,-0.21350340852185223,0.5932855736524166,0.2303545426026258,547.7399276401841,446.6792645334654,535.5811916694098,downstairs
22.13689482470785,0.0018577600416352924,0.14276170961680837,8.71329176299244,-0.5552128624027903,0.0833885036478353,0.22599319439525875,535.4520397795429,472.126374844478,557.7374268370321,downstairs
22.186978297161936,0.3524881712773993,0.5257935806208213,9.017487906609867,-0.04027058075465424,1.2101927540592978,0.8662228830528096,566.3300646520591,504.80354980932276,517.7575264748667,downstairs
22.237061769616027,0.7606105394223268,0.46765232968715553,8.562185762610216,0.013443125201428563,0.09764432508862399,-0.056649447301803185,424.41854345630395,537.4751899035624,480.92778374680375,downstairs
22.287145242070117,0.9475022454357539,0.6134680363721141,8.038556073241493,0.2108002290150137,0.5834683026927142,-0.3693306359299457,440.61803535022256,480.56097314400984,481.7202048625258,downstairs
22.33722871452421,0.8672365720054391,0.6765048340759143,9.088806415583173,0.28787726939761477,-0.22679491524529583,0.6250674680207795,496.15297253518577,525.4569270364163,516.765547018319,downstairs
22.3873121869783,1.1408211080716797,0.6089771840374725,9.307847239865646,0.7747664192607701,0.20626521132104836,0.2154998456173961,461.61864323597337,424.97374194587826,457.27277364242434,downstairs
22.437395659432386,0.10702310452051318,0.3205408213356829,9.998525912060531,0.6850607379856535,0.18161310970153535,-0.05951186415484184,490.7124826568363,497.49673491010964,418.52023362055013,downstairs
22.487479131886477,-0.17684139160125886,-0.17020337122338494,10.55618576728256,-0.0882266220008804,0.9523858291845181,-1.0520111227621811,485.95738636822784,574.2476936495864,407.7409554748326,downstairs
22.537562604340568,-0.10743836851213406,-0.38842818686804254,10.92032969454658,-0.6075516107742204,-0.7851056057897976,1.0769423187575182,474.6718977862825,532.052428016765,539.7320991762277,downstairs
22.58764607679466,-0.6254847303058533,-0.748450971964105,11.035747046214093,-0.45334361845859683,0.9325030882162109,-1.2213876574504725,437.75668700742864,512.8230093395589,487.71145202616265,downstairs
22.63772954924875,-0.9069886311998505,-0.794335935089197,11.075721315041276,0.15873256586090936,1.9278127191218062,0.34050433197217067,419.70277890553115,535.9591264963931,493.9619731670225,downstairs
22.687813021702837,-0.8899748266058919,-0.6235112443577928,10.764612553439434,-1.1958657570977473,0.022609920883896722,0.20149651861586518,438.4276269088499,470.78351523444456,605.1280895301284,downstairs
22.737896494156928,-0.7894119099550496,-0.5651741849157474,10.272568986677351,-0.7952388912842202,-0.9194770727738878,-0.38700236697640933,498.74257133114935,474.80716579237196,505.20612008903936,downstairs
22.78797996661102,-0.45489436437902814,-0.17379094820574192,9.574211776218963,0.40227076756306224,-0.11008382783860236,0.5419552179287419,475.7366037140148,390.4775343061716,451.16182071423844,downstairs
22.83806343906511,-0.03839668851713875,0.20689758189374313,9.019534385549434,0.19097344185600165,-2.1771390063677214,0.14449242458654285,411.9561226148139,414.72651663018985,533.8736669635657,downstairs
22.8881469115192,-0.0361680655744229,0.1361283310946732,8.709651328485144,-1.4226016667394166,0.450517554553191,-0.9093878892346849,415.7052516635422,589.2054615503592,428.66775204708875,downstairs
22.938230383973288,0.5985649994991993,0.5633600018635114,8.085456708581232,0.3784844735859686,-0.5382399572064152,0.6404408439535836,517.0878104681664,559.8962082859351,482.4047523799227,downstairs
22.98831385642738,0.9405204569921622,0.943144866928753,8.345916301136523,0.5324850086045477,-0.6345954800893153,-0.47178714933886506,515.9560493283017,452.7705399530565,578.3780604848463,downstairs
23.03839732888147,1.1883652509894718,0.5566052045714033,8.433151069835652,0.2451041149772805,-0.04042540704657306,0.002930577120681339,461.30039399584496,524.0627475453651,540.9282977892909,downstairs
23.08848080133556,0.5897664652822415,0.33420463960834934,9.232567343436523,-0.5133220182842523,-0.5516099461896661,-0.46789556109876906,498.520247634587,589.8558108944136,473.186052271722,downstairs
23.13856427378965,0.46734583304364924,-0.08937151448402758,9.808118335312333,-0.2569823180254586,-0.06895234256950068,-0.5657749239618783,511.37964888484294,529.6834732523471,410.9774744330683,downstairs
23.18864774624374,-0.011875535056224296,-0.35128399544612665,10.161560935462232,-0.03285739295186279,0.012431752035214624,-1.4043748100336844,457.83503749315344,493.0125307474061,543.6552099054069,downstairs
23.23873121869783,-0.5660511692338843,-0.5277327916916144,10.749476476154527,-0.28534898828372623,0.4141560194466469,-0.8377312529017286,482.0751813992135,436.8728844869268,506.1649200637042,downstairs
23.28881469115192,-0.5298802365398203,-0.7462672645671369,11.04132022569587,-0.5768984318068194,-0.5562878447743673,1.2519201928559844,583.5115014233522,495.6801347575653,488.0261643367766,downstairs
23.33889816360601,-0.9206110913071351,-0.630117061910789,11.239795684147804,0.10586522420775094,0.15276431342284988,0.1363685581456566,525.765987440063,567.6309199634236,569.5073427732892,downstairs
23.3889816360601,-0.7046778736727211,-0.3457871998169205,11.12118793266596,-0.7710486258383759,0.753754757514953,0.05083183392477682,479.8322832808994,507.549799696461,542.2813141352703,downstairs
23.439065108514193,-0.7624971115839586,-0.662411940389962,10.243995737600144,-0.18493566433420752,0.31760942955701355,-0.0031189542265003148,464.60989759549545,575.5474735299955,565.9691946439737,downstairs
23.48914858096828,-0.4958952453853769,0.0763588819937755,10.040556474929485,-0.6749628712699458,1.0824874163358436,1.154419551263486,480.08665222723323,491.3018465867566,463.81436707473205,downstairs
23.53923205342237,-0.28697166523656426,0.28409265754803636,9.477028928516415,1.0515759446973005,-1.329972365089901,0.3119115477134057,547.447759476221,421.9202319370983,517.0785442344193,downstairs
23.58931552587646,0.17623791195625504,-0.04207831512209331,8.635976030913978,-1.1104873280335794,0.6440758894986014,-0.6923370950903524,537.3635401721901,395.91643221083314,489.8328630281235,downstairs
23.639398998330552,0.7106727664399188,0.6410021176599385,8.149688004166,0.33734610292300865,0.3772395539581408,-0.6041554108505423,513.6158077589974,548.3157232959472,497.5442014674925,downstairs
23.689482470784643,0.6929019991619922,0.5013311689952891,8.223703297982246,-0.03678390503856932,1.5127012996508333,0.7262187669742468,475.60300710723925,497.0773048583984,500.1403661594486,downstairs
23.73956594323873,0.7017884375995747,0.730696716228652,9.000810401259072,0.5937104374359495,-1.2603384849784847,-0.43255566537136736,547.5213014842576,504.7414667267607,549.0795003549883,downstairs
23.78964941569282,0.33079327308428874,0.08340852103135082,9.013568119469568,-0.006028723932874403,0.6324102981850807,0.07473973063346442,503.1227483862573,419.3699869064428,494.19490644805626,downstairs
23.839732888146912,0.5403448344155499,0.11767988042560437,9.971097887908194,0.3591782722051112,-0.46688052099240784,-0.4034011062513491,489.358836644215,556.3222347322112,526.507178712899,downstairs
23.889816360601003,0.436950667108384,-0.28928560033573136,10.418767808699691,0.658925969715371,1.1243244696205827,-0.778125212602791,536.6785447991016,583.1951601916148,536.2256609035325,downstairs
23.939899833055094,-0.10811995194911675,-0.24116790091831097,10.553400395428312,0.5660646442499909,-0.4554803358934112,1.8043617598937163,518.4970931688413,510.9205251947615,452.9636444214029,downstairs
23.98998330550918,-0.9183166803751064,-0.10360376171774943,11.256460228172378,2.074366092833254,0.10467886722466349,-0.23013830735357013,538.0326997760749,558.8099808997489,460.2993092677252,downstairs
24.040066777963272,-0.7684611624248672,-0.8730226722461456,11.36253495125976,-0.6792641271626217,0.31847522355545865,0.10557354379078951,565.9500404439011,519.3679019560473,498.8460245296939,downstairs
24.090150250417363,-0.71087653857556,-0.45038795948432647,10.931984588491174,1.2295269363898296,0.37361032780200404,-0.4213594138357205,515.2585388947917,544.6735165271439,497.5022557227364,downstairs
24.140233722871454,-1.1117345396266471,-0.4692719726421178,10.66320583113202,0.8857188230181208,-0.33271578478816133,1.5531468830838815,497.8149102784981,441.21384106994884,527.4731713020598,downstairs
24.190317195325544,-0.6752767450766782,-0.3257914726360025,10.283418543011056,0.2338938663041738,-0.24396390534121393,0.5351136321850738,503.7959799604824,471.4194453757772,545.4810313717189,downstairs
24.24040066777963,-0.16211331558760558,-0.12531353046713797,9.73760779576059,-0.45281346017233537,-0.5006838548859635,-0.859104161588508,524.5567792118605,509.8754051959431,431.1055636074075,downstairs
24.290484140233723,-0.03898203174006115,0.3551895940016831,9.065740067792502,0.7946333512603931,0.1559451536258955,-1.1674508717573275,472.5208908572741,520.133786364502,550.4341203815065,downstairs
24.340567612687813,0.47953503785209145,0.42673845370114327,8.502795196410252,0.678931444431581,1.5155756558845994,0.1958897313990466,505.80185215697634,493.5531760952235,508.1163419246459,downstairs
24.390651085141904,0.33005556810486203,0.5046130597800719,8.285212769493965,0.3136403880727144,-0.09879983982847318,-0.749773470428246,466.28210554448276,495.66803381851594,489.67821421430176,downstairs
24.440734557595995,0.9428649150881293,0.7125583838458758,8.699064766470077,0.1151076869156971,0.286986087669642,1.5274720732206393,535.2656128758608,456.28100136720445,530.8526573575573,downstairs
24.490818030050082,0.9582110532602012,0.3669680397441599,9.077295422044445,0.34368384384269646,-0.9775678548631648,-0.9298406876217158,452.75926800062604,524.3683450431977,517.1208739377923,downstairs
24.540901502504173,0.9895851644952921,-0.2507754567259763,9.513155886490864,1.278979305515422,0.8012757412764028,0.4144831999478905,486.65828473728425,467.99857184160453,545.9927833375623,downstairs
24.590984974958264,0.28646500567494215,-0.006959248633516296,9.958057481828222,-1.2552207624554137,1.0717777706152167,-0.8523343801151549,450.1410700504097,467.39228445224757,575.1066254742811,downstairs
24.641068447412355,0.1830290451416991,-0.15843225811707673,10.516602464334376,1.5899330104095064,0.04448604704039127,0.9778352675759822,488.6572318157747,522.9094671259397,490.3755926900265,downstairs
24.691151919866446,-0.899431530244871,-0.6557908078751644,11.214452981953931,0.41626622153541365,-0.8236569408304355,0.2618510156671041,500.35062307258687,427.2972229578352,491.13512423121966,downstairs
24.741235392320533,-0.6701554554241743,-0.2826290328320404,11.487242864263525,-1.5544849328563666,-0.40906778451182163,1.0662855307866863,520.8931574355537,479.1157014799376,510.32101002894206,downstairs
24.791318864774624,-0.8952509465556082,-0.6725548232545455,10.654206311705122,0.32673960746215563,1.0305370914111889,0.7218298904604916,506.9890557158515,533.3091239152752,482.5497309805226,downstairs
24.841402337228715,-1.0246604176192067,-1.0422679164269575,10.861389785695154,-0.8308500288466846,1.115212093564663,0.10416943804664143,474.7059145977044,516.6215635617604,513.9763007502889,downstairs
24.891485809682806,-0.522295223555053,-0.40790033525694724,10.187867820214388,-0.6979971446186456,0.8005803915848373,0.2200380797058668,493.3001092130523,497.27438895638795,454.2567103649379,downstairs
24.941569282136896,-0.04677065805694819,-0.17840606708102302,9.653538396778842,-0.9234289686986232,0.5410890305772191,-0.7144452114435722,460.11798254356114,505.51703391041383,480.29225768575253,downstairs
24.991652754590987,0.15270741968366092,0.28781636315860765,8.786538214472143,-0.24535172847618586,-0.13978596584032613,0.0073031724377558725,517.4984009339632,549.9226079522061,498.02755193379477,downstairs
25.041736227045075,0.22054525033602912,0.5859336704048184,8.345528399831288,0.13657388049829572,-0.17111527277476177,-0.24652571242237775,526.085550613368,523.275869663049,500.3210543694189,downstairs
25.091819699499165,0.756575254805205,0.8086489189758213,8.221014592193104,-0.7838308686149392,-0.45230816776846494,1.2582744759603972,455.13368889161194,546.0394622679848,540.28179783754,downstairs
25.141903171953256,0.9505011225622763,0.6693816078054395,8.675696285910487,1.4950837973652147,-0.31413221276748654,1.0410961635369083,558.7388758260169,488.6980339311556,501.96996438728695,downstairs
25.191986644407347,1.1438091186657935,0.6216240996199804,9.097880397880257,-0.8697754952005826,-0.5767879215934884,0.08163798374770254,482.9977147218528,466.87205791799164,508.22919965136293,downstairs
25.242070116861438,0.7077509128979619,0.3398926449851098,9.334107454584238,0.9753771787692951,-0.7501451256017625,-0.47055849873360167,463.56416026939274,467.5147404636646,531.8977899737968,downstairs
25.292153589315525,0.3326558055065202,0.18972017574279276,10.085079520631089,-0.24993710160696478,-0.6622412528656332,-0.32611118985896176,519.8013627559163,465.67633599629613,426.2264410176681,downstairs
25.342237061769616,0.3881804601535418,-0.2226911415668285,10.552405610928117,0.5522627911379436,0.2504840154636807,0.29617306026806695,536.6729275136436,518.61923966834,553.3288813297763,downstairs
25.392320534223707,-0.26843229645376676,-0.2964734585563346,11.206834305331352,-0.2152241598367243,0.9333127646257963,-0.8786203145167729,379.35479625628665,493.12026006648625,538.0960697094364,downstairs
25.442404006677798,-0.4263451103659026,-0.04968697816571599,11.152973983664463,-0.05296865791939954,-0.09606009652611326,-0.6734400865786557,510.65648584997535,486.5648488049366,541.4140799385498,downstairs
25.49248747913189,-0.756104864247501,-0.579821694672612,11.097799425802542,0.14409793308639143,-0.35186987773331274,0.1894866190805814,553.8330779669062,536.5745830496272,522.7617344395417,downstairs
25.542570951585976,-0.620122984860034,-0.5182465942077712,11.207129075995057,0.35022341269820456,-0.3706823166683499,-0.6072265857114368,457.2749871242974,518.6860819502593,529.392582241449,downstairs
25.592654424040067,-1.091488404924716,-0.586546003947366,10.292973033946208,-0.3488649863240912,-0.20585627100978676,0.21361715351424543,433.22180111663357,491.1916622661874,506.30764234081033,downstairs
25.642737896494157,-0.3373478093822173,-0.36400482799334444,9.603918820682958,-0.42114933853786135,0.5907436037413851,0.9161034174675415,507.4569477442942,511.0142541090907,487.69037043168197,downstairs
25.69282136894825,-0.5258148799326523,0.38873489527210664,9.029063676343359,-1.212030972018238,-0.3268265191630063,0.520428912247647,500.8206379304139,511.70866485075015,508.377866957002,downstairs
25.74290484140234,0.3139091634354688,0.03758633153971358,8.686651453275195,-0.051109775402260686,-0.47079931483462756,0.253828782500808,494.4781803243153,443.83012564623914,484.4881211972122,downstairs
25.792988313856426,0.5600956704429942,0.47941138407287254,8.339388045235197,-0.8877476445680114,-1.4859314932229002,0.2449182352252469,492.50600587120545,495.9725170205542,482.3885049494001,downstairs
25.843071786310517,0.6001831326465281,0.7077534491815203,8.438018066094267,0.22260858103855946,-0.7124530282564938,-1.7398897214558435,480.2680235210514,515.8132006474134,415.7578888093286,downstairs
25.893155258764608,1.0075105703132392,0.584568742529884,8.755042425199353,-0.27536803664932563,0.20256582635809214,0.26529726020095284,469.47063404804584,601.9303814429513,497.3984920015098,downstairs
25.9432387312187,1.111829063095179,0.5237445443014832,9.479131788149788,0.14332720977365432,0.9849281892880528,-0.6462712920727846,483.4636014690197,505.1328155356369,512.6831594551915,downstairs
25.99332220367279,0.492929749657767,0.17118253344468715,10.312032548934665,0.34180361003433923,-0.1014243734816487,0.40573761817417214,508.30096501742776,482.640832599432,471.45584435884086,downstairs
26.043405676126877,0.5233981695162786,-0.17343848039709472,10.117465216901849,0.4896960296918228,0.5315680312807124,0.663226965086032,497.34105284129237,501.487666507577,491.8993725810108,downstairs
26.093489148580968,-0.3351793233761192,-0.1522751433142496,10.902541743637547,-0.8772854344615808,0.477080192968541,-0.5552854931149513,544.498790705138,468.8540991273273,571.6008752571129,downstairs
26.14357262103506,-0.47901920083164123,-0.7414170169317686,11.061561515665836,0.5693596747979504,0.6588900145481363,0.4981534970508659,538.9445623985117,535.9539863542583,481.3130553613467,downstairs
26.19365609348915,-0.6906014971928113,-0.5800959487139883,11.211430504100214,-0.6039651600281004,-1.9047088106631318,0.8324434324657003,459.0121157634199,442.8719941748126,503.3547613776809,downstairs
26.24373956594324,-0.9679114144095675,-0.31867283740174124,10.908714209997303,-0.31418317469707924,-0.8820974240753455,1.2330499779251756,416.17223169912324,461.7498166943386,593.9021042079816,downstairs
26.293823038397328,-1.1741901027375872,-0.3086681223070174,10.761773533383785,-1.3053366139736098,0.2538621274809584,-1.4063900101434355,539.0047463303023,484.93432866024017,489.31128955397105,downstairs
26.34390651085142,-0.437308482122857,-0.501867359284109,9.841549877980517,-0.8156978807975255,0.18056838851786094,0.6838670798838296,620.2073259011147,580.6301036589674,488.22777851080906,downstairs
26.39398998330551,-0.23810507360385325,0.16441653801585188,9.44515066100055,-1.252758296491251,0.06458679946670198,-0.4163907048922099,554.2300019186978,505.4753367278209,557.2143142921198,downstairs
26.4440734557596,0.182999208728454,0.6106060838814107,8.7438104233228,0.704375682033396,-0.4180952765910632,-0.38731174694114867,472.7859593470615,589.6554436636444,496.61578575911454,downstairs
26.49415692821369,0.6767282493868019,0.3926107842024953,8.230529535295448,-0.690295014439341,0.01696914597784082,0.4211993726784909,505.8178407213151,494.01206206499637,468.33841703724903,downstairs
26.544240400667782,0.8456829816623873,0.543065288772267,8.063706958503333,-0.09588027592576243,0.2689111533185792,0.3380454417897257,463.96901521612875,428.99613602535055,466.97179026298807,downstairs
26.59432387312187,0.6822276906605218,0.3288856207774117,8.81479418261867,-0.7540402829385318,-0.20855573655763412,0.9729683156072798,471.5125723839452,432.45669103027325,429.54229217729255,downstairs
26.64440734557596,1.1388989621349621,0.48620104763338834,9.000934125925424,0.41227434746128944,0.1591443521873775,0.5254094260860942,527.4418458273578,508.40895385957276,525.5648083912957,downstairs
26.69449081803005,1.0577973230385396,0.2672732143252724,9.475483402625397,0.3240697333781859,-0.1656942104896547,-0.9087679982614987,488.3082461303075,507.51468871191656,496.4710730928251,downstairs
26.74457429048414,0.6477693716517567,-0.4432676351440577,10.050928804481112,0.5739849578955167,-0.5106177739631219,-0.347887618674365,485.7098270366766,492.54128363152716,473.38507260076483,downstairs
26.794657762938233,0.06895249568477883,-0.33684633560773936,10.667398852930658,-0.07832779194036224,-0.41192799649121076,0.2876700618108918,497.688541351366,509.266390587815,508.0399140319333,downstairs
26.84474123539232,-0.5610692580232796,-0.5845747523728435,11.005293173388164,-1.1894907419617762,1.3331626362417142,0.5064002318123119,500.8842604146682,522.938691224774,506.7866487950484,downstairs
26.89482470784641,-0.7598971192615114,-0.9437871388038572,11.31857346580904,0.1703879250796585,0.8365124276096404,0.5686374823439382,526.1422250486326,545.8350998411457,477.59119305172624,downstairs
26.9449081803005,-0.49030830365848677,-0.5142946030584348,10.709119062743873,0.5117110812075435,-0.0652849526604673,-0.23643719836027866,516.1059470580126,482.36987191902455,506.9777614433728,downstairs
26.994991652754592,-0.7851723112819883,-0.8979865379947971,10.765411847620804,0.832293027500313,-0.9117978528069107,0.7866389850539871,488.5455488370865,486.5233227014325,475.291197381242,downstairs
27.045075125208683,-0.8469484821926383,-0.6267028373379209,9.966307594822693,0.6101648721798518,-0.39733494229418714,-0.26446427867229716,480.14123440372026,474.2516663447675,615.3745095915441,downstairs
27.09515859766277,-0.18203690163120542,-0.06935394390600724,9.32238411061923,0.6494792748259477,-0.035095616793184285,-0.7513174744152578,532.2094963624942,461.93101362842793,514.4667268833755,downstairs
27.14524207011686,0.35123236413815134,0.14881280521697032,8.902990274594764,-1.3379085411753266,-0.9768361160955289,1.572329687861816,453.97646431468524,532.571045318661,549.634220760329,downstairs
27.195325542570952,0.5332596888979637,0.19584918997483786,8.555114987442254,-0.5061809867429544,1.112152395518545,-0.38268816963235197,455.21886943518814,498.9087469364054,533.0300267832199,downstairs
27.245409015025043,0.7282009524506694,0.1484883909875908,8.480200048388454,-1.4734534026944335,0.9939073273634327,-1.1163126576307545,522.5066660228599,456.8545701880564,473.0894060207507,downstairs
27.295492487479134,1.014704032284064,0.3482782876140693,8.758984552430224,0.0199247210277492,0.006307233610638934,0.5279112499866491,545.3824178759808,459.6689883158357,490.62925687128995,downstairs
27.34557595993322,0.6937405438654921,0.6718824319182668,8.696398268046366,0.15985586837766166,-0.9530142784620262,1.0831021237512686,476.7083551226005,544.753271245914,521.5726076555538,downstairs
27.395659432387312,0.7189706869712791,0.1535333385046136,9.257152069337105,1.5148013046603181,-0.21806993380366038,0.4974968807744403,545.1842931595289,581.2305129473041,403.43060214711954,downstairs
27.445742904841403,0.6627068492315877,0.09515422689705702,10.164236306168627,-0.17882377178100164,0.07523160078638129,0.1005449816897225,527.3781314935945,495.9945480710771,533.9811766475552,downstairs
27.495826377295494,0.387779430475635,-0.3769945038361001,10.520870690602024,0.8224083392837094,-0.4374871097552897,0.599781730641076,493.02119615955996,546.9586960766286,531.7238097453746,downstairs
27.545909849749584,-0.22813237328197167,-0.4715725152234114,11.13652986635703,1.2500490083710536,-0.6757033022760444,0.032712782247538603,519.8044185636282,477.2881872792884,549.4855804794803,downstairs
27.59599332220367,-0.5915187651711504,-0.9305574272914781,11.263690407498714,0.3526443893863652,1.071929478119609,0.5586215929214993,559.1735466538242,493.6278765329275,458.5715479093122,downstairs
27.646076794657763,-1.1435967954445911,-0.35177525166334456,11.250588833528447,-0.046739278992846564,-0.8924463495200008,0.743599309524404,571.6037103789004,511.0998568809271,457.93925134019463,downstairs
27.696160267111853,-0.9341375191077751,-0.6058794121260196,10.736713718797466,0.027015395837357507,0.8703019003089701,0.08001497898945367,496.5976372299398,524.8827306751396,554.4933862512851,downstairs
27.746243739565944,-0.6913110582258284,-0.10869857655934057,10.056473350399916,0.203242655318703,0.6145295750110434,1.1180688284731084,566.3272931375104,461.5642405502993,460.31288618202706,downstairs
27.796327212020035,-0.596920204044066,-0.08586329536007536,9.598983105466283,0.3291152406434107,0.2308498780237153,-1.165395587972,526.1726528745924,482.392086269177,479.4394701774847,downstairs
27.846410684474122,0.16545754872042934,-0.2064502789882468,8.920607642593273,-1.1359507523746035,-0.377251175018762,0.2572743386968441,542.4706970758025,437.7464421152908,452.4499697296224,downstairs
27.896494156928213,0.3566266441427879,0.07740216321789334,8.067810594511531,0.4882398482087862,0.934783741722707,0.9012666876033794,411.72518683897107,474.27331033874174,458.6388663865634,downstairs
27.946577629382304,0.5357118551378581,0.479087402714524,8.318198386902823,-0.6064871870080657,0.598990239504934,-0.07907382290680295,512.3038404264023,477.7644968083834,506.43633362501186,downstairs
27.996661101836395,0.853991561462312,0.9101190326170872,8.432264453711452,0.44840775225645235,0.782071943444341,0.5874592507963765,573.4242411626182,490.48273893269436,491.92443611789844,downstairs
28.046744574290486,1.3515497605690308,0.3490414838511866,8.773722310143295,0.18504691100222376,-0.654706303083092,-0.11485576477417907,559.3441060374043,523.9905106922986,509.0258571533,downstairs
28.096828046744577,0.90673213775661,0.6533096837987113,8.722279837258682,0.5938401701282108,0.5024962717394307,1.4500107357003933,525.3836815869033,494.11823381772814,578.6557698360308,downstairs
28.146911519198664,0.453394379739719,0.2893000661730114,10.146810258234249,-0.686576018619958,-0.6477609927206565,0.2732524513973051,522.5882533712967,497.76320442955824,558.9846715335681,downstairs
28.196994991652755,0.03543459949854742,-0.0617017162896967,11.026420372733279,0.22154744976331092,-0.8211500944459834,-1.2958724144749665,545.3249157162329,467.9685125057123,413.10177313716974,downstairs
28.247078464106846,-0.29675042668288254,-0.44810336886930696,10.85883369343201,0.11533331480963503,0.8874943247658648,0.46941059023374204,528.90877472575,495.9174925644313,553.7119626614556,downstairs
28.297161936560936,-0.7071574621345349,-0.41098008435860955,11.09893081203856,0.3872614163094934,-0.5575789634865886,-0.2591894164666706,459.4049715897,486.31374653498335,519.7691917552694,downstairs
28.347245409015027,-0.6511599828645387,-0.5901515169442135,11.26735143583772,-0.03802915203022705,1.4233221240146043,0.024738266750208793,539.2088634506791,495.2648099378782,550.220727426466,downstairs
28.397328881469114,-0.6311213982053518,-0.7090372471329125,10.604615995044112,0.35005787057990134,-0.38976543023432786,-0.03772244045073277,513.2447807979217,479.51764189277293,496.13500829926323,downstairs
28.447412353923205,-1.0193008243832296,-0.03479230746421896,10.320962000755959,0.14996699113611034,0.07851113081919475,0.42252061457494966,475.73690340176006,466.41455104895124,527.641982603257,downstairs
28.497495826377296,-0.6852473024446983,-0.17983379978690062,9.97164399615655,0.4693703288720011,0.5580532721965102,0.5367203273756694,566.181261003117,441.81764812286144,444.5979279345508,downstairs
28.547579298831387,-0.0829905656912285,-0.028272827118471122,9.413247042575772,1.0802038107984848,0.8095429638814857,0.045329609863292215,456.42774831994143,476.8744059463248,512.2927065691748,downstairs
28.597662771285478,0.2731552422543476,0.04169954224730965,8.720930096091882,0.7299380900837922,-0.6787802847158029,-0.22472660890637206,516.4818700606122,495.81689325218866,444.3932323842653,downstairs
28.647746243739565,0.485426183979729,0.5645999908256245,8.745610243480977,1.099431403815906,-0.13928508020525304,0.09094061691744014,476.1057077273266,492.870347407141,532.186470908047,downstairs
28.697829716193656,0.826499604517746,0.8275266773897965,8.505620136491006,-0.2240662898397626,0.6384289305461811,0.3840462221364272,459.9003006388041,512.6325933063539,445.6422402250912,downstairs
28.747913188647747,0.5642572364479299,0.7718728224312028,8.92842175343472,-0.7958271282880732,-1.1323555744688885,-0.001248465617560701,498.44773394650673,521.8210472832354,539.0145346896704,downstairs
28.797996661101838,0.6590901103300969,0.6274818699799145,9.014615791423326,0.48661223598254366,0.059976637351180896,-0.8089815750921759,488.5857982832881,461.20410082570197,430.70644866280344,downstairs
28.84808013355593,0.9690449604376298,-0.005064171993277966,10.056119478431146,-1.3168166485833508,0.9727698704997236,0.004847545944372331,520.929887991139,489.58464389110986,516.0351721478039,downstairs
28.898163606010016,0.7030512258117865,0.11111757273914259,10.511844469432894,-0.37506305829598424,1.156302481766705,0.049603179326107874,472.3355503831055,445.03738781366826,446.76128965359794,downstairs
28.948247078464107,0.04568519734600947,-0.056519957983033164,10.48977525997947,-0.14604985795131595,1.2738271861610115,-0.3650153405574772,524.2930055854666,533.6546702338007,521.3294091538452,downstairs
28.998330550918197,-0.514321255706737,-0.8247219352366622,11.486436777598593,-0.5022600673404101,-0.11285191510042945,0.887602360697198,505.7501885917253,499.28982451891625,449.3253587596613,downstairs
29.04841402337229,-0.9214797812536916,-0.4324245304189867,11.091751157450473,0.9326664333213854,-0.45071089706174855,0.3047943853649839,537.4425058240358,471.37678693692794,536.986330260254,downstairs
29.09849749582638,-1.0257362121746885,-0.4846034605167759,10.735829754184126,-0.905712678692583,0.01680135041146491,0.3674958372237422,548.2249245306359,545.2308359633807,498.48345789406534,downstairs
29.148580968280466,-0.9519101664287787,-0.5094263384206725,10.41146402820461,0.8712466695336805,0.13557480276066194,-0.3252137062470031,565.5399763814737,517.7218819564376,535.8525263583928,downstairs
29.198664440734557,-0.6710591872133453,-0.04455112693008806,10.148624481837842,-0.6791171324220249,-0.0837806874118356,0.5897027990461715,533.4881188299914,530.1693749760838,510.96860798880056,downstairs
29.248747913188648,-0.03267588544286698,0.20316629958135718,9.585425141288816,0.40058139868193665,-1.4394346211043498,-1.0981426257533453,477.8927805211113,565.601224789155,454.7673263731313,downstairs
29.29883138564274,-0.16092305994447687,-0.03766194394127381,8.80787579245626,0.06346053882097129,-0.8893361088579648,0.05465879849807144,492.75173698646523,402.4465457446705,526.2453181822314,downstairs
29.34891485809683,0.25614092858276327,0.36685086466418004,8.284825806187422,-0.8563753607598329,0.5284454470967175,-0.7544470470231966,457.552943220208,489.05893080153766,493.5952507141773,downstairs
29.398998330550917,1.094607456084482,0.5426910339596639,8.33493960729412,0.9528586434052037,-0.6087169128025944,0.04947929131557948,565.7396500874078,486.0108533783242,548.5737123208417,downstairs
29.449081803005008,0.8930576098460905,0.5419288046253465,8.32044196357198,-0.03321232762161727,0.09056239442447088,0.08468619297714829,526.5841164119496,541.4452738197383,513.5378437093323,downstairs
29.4991652754591,1.0880566626080528,0.3363175956389557,9.312357426537698,-0.6840379894631587,1.3122571038619946,0.14073268127543734,511.2594835781172,545.7801559899735,487.6710686669594,downstairs
29.54924874791319,0.9598892698006313,0.2993012744258899,9.605426050242215,-0.05813880184776119,0.6272947343322209,0.7216322074158958,520.140996287192,463.84331026270263,521.9331084533086,downstairs
29.59933222036728,0.514430035676983,-0.1620172932902693,10.30748847435512,-0.40673895097592644,0.3644409523331908,-1.3858297643999349,558.9900882034968,500.3252948066196,495.2740889638489,downstairs
29.64941569282137,-0.0009169120365392219,-0.6684583712603203,10.937691159310125,0.5321862167135791,0.5479651007332659,-0.22838856981794972,492.5984644682149,516.605467168233,579.5637551803468,downstairs
29.69949916527546,-0.677661521524033,-0.8293591835114682,11.03540069414684,0.07062250580225161,-0.05748544728355984,-0.39303155701367176,445.216613291767,537.3308609290627,415.93693278920676,downstairs
29.74958263772955,-0.5527863095912551,-0.7547421450101857,11.28994561859908,0.3509004825853434,0.4753272389502747,0.4632588383161258,518.9131864193905,455.10243341760264,549.4663356311603,downstairs
29.79966611018364,-0.964599567651151,-0.517395599763838,11.306000548715405,0.7069021810810325,-0.2895147258162384,-0.7687297463297958,541.756254399489,449.77948188543934,561.8954599299227,downstairs
