timestamp,ax,ay,az,gx,gy,gz,mx,my,mz,label
0.0,-0.0017568010895227804,-0.028766380572387035,9.843741068594532,-0.10450906356124298,-0.2738549953969637,0.6772163967173116,516.8885419777179,469.6581217171455,470.15363575328064,sit
0.05008347245409015,0.011268141536337775,0.018762288790443823,9.793200682829438,-0.20394224155387983,0.23809847261716802,-0.12198968461618688,499.17231648856705,568.466690084214,477.54463223048197,sit
0.1001669449081803,-0.010000619082392276,0.022311097625264835,9.802137370700603,-0.4390990451567023,0.2922832060524168,-0.15228138791440402,560.9845098469286,471.81577254775107,438.80100584751926,sit
0.15025041736227046,-0.039491604100928814,0.021480911577043793,9.81425068371536,0.05259766043643802,0.14641067998636312,0.20672559836581547,475.91142244846515,440.80589864181127,509.9300046729404,sit
0.2003338898163606,0.014677908266245154,0.025612511849391437,9.81039773822798,0.5742350267834323,-0.10900483798907545,0.08885210279866178,509.326705060056,527.3056321176017,544.4736665282269,sit
0.25041736227045075,0.0057190358311973305,-0.013071254391887124,9.815408092634925,0.4800125556191818,-0.020275843830822947,-0.18776185025460626,535.0079334003522,461.68154170462356,514.8598027562808,sit
0.3005008347245409,-0.0045400128849852756,-0.02776622063195361,9.783973124769336,-0.014197815835853424,0.20837642301240641,-0.0027779788750834857,477.29966051821197,487.66174692318634,427.87453181420796,sit
0.35058430717863104,0.023376269366118516,0.04727947292470506,9.778507075873003,0.11722861523370633,-0.18743998970776482,0.3124022457293566,455.274945232147,485.0616972469418,496.8074790894611,sit
0.4006677796327212,0.016740772821625616,-0.009031311726411806,9.783440831917453,0.01666082637744033,-0.09149880632684443,0.3163275267404763,449.82497109865335,505.95203204679865,523.5578044768633,sit
0.4507512520868114,-0.002378128905192775,-0.006511176818748715,9.786819293637183,0.04174882598245545,-0.2927561187529517,-0.043180788815899214,489.4357434744334,462.29401747611115,507.4673017921336,sit
0.5008347245409015,0.00509373523077275,-0.020481776821744305,9.81962078926145,0.33526681299692235,-0.040783007550039656,0.15640320006048636,519.779590117341,427.6730167346223,495.1712395868456,sit
0.5509181969949917,0.05727723674204922,0.016042938977290644,9.776511662414274,-0.07194798082192773,-0.13180321993312305,-0.20137821190963973,438.22260631173674,492.13223010593424,518.7331902338351,sit
0.6010016694490818,-0.01875890475505331,-0.034850558690492695,9.771450275704396,0.16698102679843355,-0.13121404533719064,-0.11116594105712028,528.5916314117012,451.55701161165985,453.87041377928796,sit
0.651085141903172,0.006330050424793565,0.012831497405506598,9.791984668187308,-0.28463430175761617,-0.07534622612947703,0.30428504764627856,431.49330871991515,583.3391672768967,454.7149712704052,sit
0.7011686143572621,0.011273863482849311,0.002881579674036315,9.812069627754326,-0.14269478603424943,0.010430337539939386,0.09338535903583191,476.83681041985324,462.246114871122,446.17129354515953,sit
0.7512520868113522,0.004209840348610799,0.008405166178746704,9.801699957548207,0.29444149420335225,-0.02703572849000287,0.3145235815961919,572.6702507619915,518.8507997891372,539.6577531477327,sit
0.8013355592654424,-0.048301965118633085,0.004564512827178652,9.795754934792416,0.1485164573735294,0.3722936180057686,0.13335860747857298,500.43476924581586,421.63077429311807,456.1087784570411,sit
0.8514190317195326,0.014809140228345077,-0.009583464050422971,9.795183931869115,-0.24536260287362144,0.12645937033596422,-0.2623074811357193,548.6729456064604,561.1071496890077,489.91287596956835,sit
0.9015025041736228,-0.010844547552543271,0.008535751918343382,9.768680727062668,0.0951532099523316,-0.2944408998229705,0.031505356469217476,508.2867225019959,486.65473777343936,516.0344816300345,sit
0.9515859766277128,-0.011576110201171011,0.014606698981191102,9.804950411511165,0.2143394773656554,-0.270200697948172,-0.18663206694311907,496.76698503308853,548.9064019791904,537.3383847747391,sit
1.001669449081803,-0.032181335882370474,-0.02613649478776299,9.813286544362168,-0.11390047788860383,-0.4221877664944144,-0.011350739142847942,471.95062661564816,491.0799728092099,565.5719290452571,sit
1.0517529215358932,-0.02316959010388693,0.0258548646306793,9.78078676922951,-0.21051727757071284,-0.1802898489491038,-0.29770887867869217,538.433812813347,599.7130000650329,579.516802978168,sit
1.1018363939899833,0.012366109725893984,0.02073709889063509,9.807065160279251,-0.15127586887684266,0.27316671515989255,-0.05545982956105045,387.98279717963663,490.0120373664952,558.2171140726139,sit
1.1519198664440735,-0.01316090485255772,-0.026986335351526003,9.804556703074027,-0.05643020307182421,0.222884250583435,0.4275557729215643,450.6425118749244,502.1143904343155,501.5574754814118,sit
1.2020033388981637,-0.033496532986565034,-0.01268566612177896,9.81180190003186,0.17617806634330876,-0.0977689918932417,-0.5133176875984425,522.4135316620911,374.47544339366164,486.8758917387381,sit
1.2520868113522539,-0.01047157202812908,-0.020986377865472722,9.795268933589725,-0.1356150161823258,0.03634707405811457,-0.08217897866865878,541.759040385885,546.8208190723983,461.53016199001684,sit
1.302170283806344,0.0228641080885124,-0.010640443752333847,9.780471648511561,-0.29256175538630785,-0.6688578494450736,-0.28610805220028124,520.9825520035797,462.08812074823726,523.1901026188445,sit
1.352253756260434,-0.013455873163342999,-0.013187707356397058,9.816688348701037,0.04500307826418097,0.09288730330611314,0.2576536277162064,460.1899477211309,528.1966023379655,463.97428331401164,sit
1.4023372287145242,0.011280438248258445,-0.01186650233300815,9.760733479574998,0.1035217727869231,-0.03511244374262023,-0.2985164116592013,580.3195533264252,569.2390131170339,466.8622956002071,sit
1.4524207011686143,-0.0031181389954419575,0.010948905136061546,9.80649546075213,0.01602265396280164,-0.23596224415877448,-0.21181913747834635,509.0836343594642,525.8088648097064,476.6739603269062,sit
1.5025041736227045,0.0033712784628862763,0.028935868591379435,9.819523038063366,0.03626295760324234,0.1841269129668792,-0.09982357347141085,495.03053613255315,501.6231761362404,496.6258462723302,sit
1.5525876460767947,0.035175681636819556,0.03579973518562138,9.835263374506473,-0.24372773754338786,0.2095719800685708,-0.05555813437444528,544.5537243947733,523.1042934599293,460.63336947941497,sit
1.6026711185308848,0.0424039535806755,0.01751837531584005,9.803096130484828,-0.15486622681173245,0.2538954648576379,-0.04626586709877216,453.30865482104093,512.1077487494755,550.686216230054,sit
1.652754590984975,0.0036619940586107708,0.04757543475360736,9.78696036026674,0.3124934971111216,0.09739961048274272,0.08175410959594444,513.0190454191629,541.4841136025075,531.6546540936603,sit
1.7028380634390652,0.028522499914325802,0.007146101090647131,9.806131769573831,0.07047826219413325,-0.2680234045592938,0.1967175960907941,542.3568231698426,505.7683669833492,504.85565795639053,sit
1.7529215358931554,-0.003270089789551428,-0.03630462054981637,9.817769410685486,-0.13133266397535936,0.0600826638910973,-0.7237742225519804,497.2362859976176,429.33367037207745,471.2869660400369,sit
1.8030050083472455,0.021008770510319436,-0.012318472939525177,9.794278884438876,-0.05403751714885482,-0.21659099037132493,0.4242369960762999,505.21661336810394,524.8003290171903,489.01210986162306,sit
1.8530884808013357,-0.0030449357670941785,-0.00038868998424835405,9.814766073795004,0.2802535218169578,0.2391102707111704,-0.33670628791252394,566.9344385050329,568.1622974359517,574.9387689338838,sit
1.9031719532554257,0.0007077025575863843,-0.06006629569738409,9.775030502564748,-0.4223668228156462,-0.39965704388458656,-0.6044982239423935,500.529764209366,510.2541173938192,530.2736207570223,sit
1.9532554257095158,0.0021504964952814842,-0.029423576490918285,9.7981216927237,0.563933631613615,0.33545868041683896,0.25337904806555556,493.00920394927704,499.9696708948006,489.2029453816603,sit
2.003338898163606,0.008273631876038079,0.01626205322134998,9.778518826541047,0.027551217519017297,0.13805539558560662,0.002918210063711811,448.00456585127586,475.59537090720335,495.9230428474845,sit
2.0534223706176964,0.000963819149798123,-0.011402326758848585,9.806796846723,-0.189365036984781,-0.3583634607634424,0.27979693135276257,432.09216886157077,476.85144405699674,516.601405713726,sit
2.1035058430717863,0.03278296304568751,0.036893012706418,9.805645205217866,0.4013909055562463,-0.8893981188658913,0.01002301284357169,504.11229777130916,487.8470632013497,499.69090759588516,sit
2.1535893155258763,0.01765141612551209,-0.010463952678399849,9.806424941923572,-0.052747421376158996,-0.11329780555335386,-0.35385950301356606,524.8488389659251,474.1104753055532,482.41618594687515,sit
2.2036727879799667,-0.032837278597047645,0.0044119042036847855,9.834161574322936,0.03599552418277884,-0.39429591719853196,0.0968005791663706,493.9305959878092,495.70226429049444,495.93645698967805,sit
2.2537562604340566,-0.013017624811775777,-0.01883969669971927,9.818268314273357,-0.2170625969373935,0.16472400122600225,0.2415684853317962,519.6333030990611,587.6365460185233,470.4829350869665,sit
2.303839732888147,0.03144407984528731,0.007465275221800766,9.825479835775829,0.16249085276479905,0.19672497840637376,-0.38105877903912044,569.3223512916777,516.0585684460956,527.0035876326589,sit
2.353923205342237,-0.002503236105730375,-0.027120626379212462,9.833484167904064,-0.04725664134235874,0.08213025412210043,0.021245650845869546,468.54314540547216,550.5546319035014,487.3967180926422,sit
2.4040066777963274,-0.004145087538898279,-0.038896458612412366,9.773102728089286,0.17752541971794106,-0.5963156626835426,0.2192009738345748,433.0642208211484,433.1090954855143,470.54049731118675,sit
2.4540901502504173,0.007123882127730241,-0.015542589388577707,9.803853166365,-0.20776482149090836,-0.489313226551015,-0.19341504733728812,522.4761527320225,494.6917513171838,507.3343295764783,sit
2.5041736227045077,0.023621042072884027,-0.011515416724981478,9.802070988370648,0.3527017589135812,0.046640561679935834,-0.07479108242110072,523.3361444693002,465.5131110729194,539.9632357915682,sit
2.5542570951585977,0.02181522721504918,0.0034532115356287335,9.799469934915074,-0.06464221520757711,-0.12079819155289272,0.5017896137526041,425.0710763604796,533.7638319771495,495.7439670067808,sit
2.604340567612688,-0.025766099420807508,0.015689200389540296,9.805643301164041,-0.34998755255036307,0.08927968693136812,-0.04232797164396702,461.3453894498197,491.3123135811917,518.2040480169749,sit
2.654424040066778,-0.03355008404011449,-0.0501024009896254,9.816979109812602,-0.05236057125920855,0.0684580167904466,-0.5023886221823166,510.4509072510447,412.0070042730865,577.4434364380313,sit
2.704507512520868,0.012865091812869503,0.005869070575268094,9.80927999965616,-0.44010940530248294,0.5377511874176215,-0.18562056031547608,487.30159872395205,468.92259024287955,494.7778305381699,sit
2.7545909849749584,0.0011334945317352657,-0.006465092683667101,9.813404186633772,-0.29756354012762964,0.44914151957418347,0.18848939187747546,416.58202154860174,548.3951450225708,449.6483043932935,sit
2.8046744574290483,0.037861264449097154,0.002741543169475953,9.803912340547493,-0.22235792343440916,0.17575905190736946,-0.09791407735146958,537.8439915508079,513.0594391663915,515.0965084415569,sit
2.8547579298831387,0.029256296456675823,0.026046133934338037,9.843973613009112,-0.0274931950411425,-0.06660171611115248,-0.02097938234987388,460.2997781732614,503.7063243710832,495.84526543903377,sit
2.9048414023372287,-0.008901154449086679,-0.029519218346321513,9.80268770024422,-0.35474451163517084,0.1383353860079041,-0.012173076418622834,553.1853343924859,610.49337787841,558.7215116935919,sit
2.954924874791319,-0.013347219585425396,0.017320025628373557,9.796257955859453,-0.05118086638398605,0.2062751431551885,-0.1491426201538353,523.5207415539337,455.0727775838828,511.37082862331175,sit
3.005008347245409,-0.011414051298409195,0.022342288303024316,9.781626873939414,0.19091645925631037,0.06698047256871101,-0.2827366061261178,452.3907628666776,419.54508376569663,540.866914546044,sit
3.0550918196994994,0.00732505961325991,-0.012987705578647132,9.806075828161914,0.272457360505332,0.11161176632378804,0.4491875945735976,477.4362576915062,444.7982790962156,549.1115736091632,sit
3.1051752921535893,0.002383001423351752,-0.00844990180302449,9.814215278854547,0.3744692627944534,-0.13944503765180705,-0.16033739442211895,497.7035920465342,508.02730761332805,528.1599230010122,sit
3.1552587646076797,-0.005332795156345493,6.178770746691209e-05,9.8225628364557,0.3181178335735848,-0.08791889499316068,-0.0777581884545957,484.8845310626821,518.8264046834104,489.04586740840426,sit
3.2053422370617697,0.002581100314862403,-0.01814255401617626,9.795966153270713,-0.026481758333558418,0.36908967139683163,-0.6484821353969668,523.3556712193355,529.4996589468182,515.4304882161036,sit
3.2554257095158596,0.00606641848270946,0.013063941292550084,9.793055133079857,0.21960961133853946,0.11700460792410088,0.24809458016803929,518.8705048170668,480.31193084125607,506.09096905924804,sit
3.30550918196995,0.024433744975433422,0.006491228186732562,9.809504042781112,0.22773182108256626,0.18582809150809645,0.24647145958099717,453.38871379448506,458.8838447607293,494.9491710356901,sit
3.35559265442404,0.012009366164738175,0.029118714831922896,9.772655553240186,-0.1397541923337109,0.165499487288397,0.11980043177737004,476.8889346970785,432.19932485420395,492.99872986380944,sit
3.4056761268781304,0.013340836489166327,-0.0017543590736483483,9.782998293018055,0.06124431496521935,0.233192653735155,0.29085435400216797,520.1743292309895,508.7828716191004,493.41540050638974,sit
3.4557595993322203,-0.002908028608932786,0.0027879125780566616,9.791657280844706,0.07194948192084355,0.015462183627667344,-0.8018059799229041,487.334831450074,476.8938067380202,510.0322062239701,sit
3.5058430717863107,0.016126678202945985,0.03008934835269141,9.818810200724855,0.02263719220086783,0.09993083938571765,0.0026108417207656403,488.30781810541225,574.5097072301053,480.0494067510058,sit
3.5559265442404007,0.016736965282582353,0.0018292155085365414,9.770888188556635,0.20169421876791163,-0.08835238238099916,0.31671602426343176,534.6909165243629,470.7581536907458,470.0182636308907,sit
3.606010016694491,0.009686437550411195,-0.00641577195495989,9.833560564509847,0.1301054663266571,-0.1436997831838789,0.34508092269580104,453.9201863135688,500.7080036585581,508.59092495605495,sit
3.656093489148581,-0.022216522361678856,-0.026643107720044107,9.797901397465598,0.12310825053077228,0.028710634689131452,-0.3344830510338707,458.4552350613491,499.96335521906803,467.0660413980776,sit
3.7061769616026714,-0.010608307970714437,0.02982745223201924,9.821019424750267,0.633992343022726,-0.08879270624840313,-0.3551975317850221,474.10440376426567,550.8262635778605,486.34560949887117,sit
3.7562604340567614,0.0045699788242283546,0.016705741945118383,9.771303388064778,-0.15610907545484506,0.10250127160465101,-0.25002164024651474,563.5812696978912,544.2382112207329,492.20465263376053,sit
3.8063439065108513,-0.020268462740605217,-0.008458181687742483,9.826840381638977,0.0077588302384344315,0.29117162861010115,-0.1195035392596153,521.2771102647857,576.4243070386575,492.6354305584631,sit
3.8564273789649417,0.004614173843577582,-0.010058274145382101,9.804583564058486,0.23388378875367402,0.014680407679162025,0.07803789632336734,512.4818022662157,460.60034802255063,494.18774905435447,sit
3.9065108514190316,0.0022356993064143182,0.04272107362122281,9.809837100625042,-0.12292447099125928,-0.4144743893619991,0.2071539957892826,551.1122161312288,528.7397727531311,493.15458335243875,sit
3.956594323873122,0.010601133525582895,0.004127752919098886,9.785755074668783,0.18495218015251746,0.07997982993300506,-0.384944563619399,566.013257050431,485.8827780088875,510.8409956355502,sit
4.006677796327212,-0.02928726580919433,-0.010128414023323123,9.824678553254575,0.17918259619197935,-0.11016549871159677,-0.020591001488183446,416.6935156168544,561.2790865353453,439.5087212217796,sit
4.056761268781302,-0.0019887032713943043,0.008726508024931239,9.801587167145271,0.4620761927398869,0.1419734193763134,0.06988918596833353,483.00318393571314,523.1717103333876,456.2071026197882,sit
4.106844741235393,0.023133594659284565,0.010736297901202618,9.803513538600683,-0.021932286552560992,-0.44823510065080546,-0.2380960574199245,479.6063564571184,504.1780425524693,536.0998873601742,sit
4.156928213689483,-0.00933720037450679,-0.029234932143392678,9.780656503719754,0.7723722775216475,-0.22896405631266706,0.5299660664060593,502.6005882895347,560.1916988970135,455.54900126517765,sit
4.207011686143573,0.0057897426662288365,-0.03821220845450857,9.782526714234255,-0.0460732034593336,0.1494391356811586,-0.030668476955906656,528.3058945961899,453.8204119850825,434.618409773678,sit
4.257095158597663,0.027797287721775102,-0.028399871360439213,9.778704404820738,0.03970352833882889,0.00678321597509538,-0.12036488608268782,536.5110313188861,472.8557179257642,446.5760849554221,sit
4.307178631051753,0.01735006752708916,-0.014368378405725912,9.787883045394135,0.06796449765321967,0.08503405778780143,0.027768926146936587,549.4914187455624,378.7015966988224,468.16024076756344,sit
4.357262103505843,0.026993635961503296,-0.03947271268125922,9.800969864384026,0.11611639418980242,0.3195365163116491,-0.10962686598878647,449.77761601340535,528.9552162174556,485.0396642872885,sit
4.407345575959933,0.02305884663175524,-0.012231522868856884,9.778250908729634,-0.07813236268482332,0.5663177786906919,-0.27862028981229786,492.96751462417893,465.0574640785497,563.8121810503699,sit
4.457429048414023,-0.03018276760569255,0.04382513636771428,9.795614190536275,-0.1852436809503944,-0.20947845741786475,0.3672469488470755,450.8383221010635,526.1277416896007,481.8895515633797,sit
4.507512520868113,-0.006135162039765454,-0.009391320731407166,9.815589523048297,0.2759227515769121,0.5080323138854917,0.13139658956441003,520.3680325182856,537.053407737274,532.6023129133634,sit
4.557595993322204,0.01963593379874072,-0.002321406596869982,9.78350349658566,0.006572910170675771,-0.00034458550292861993,-0.006574896143125398,503.91884075327977,477.5429337426501,536.8726793056619,sit
4.607679465776294,0.020273156523256994,0.006803471817411123,9.779283072296998,0.0009618838498719599,-0.35607903039639777,0.18545819141694644,479.6192767186055,475.53430075037585,498.4868969974639,sit
4.657762938230384,0.015377785054161972,-0.011971003671569697,9.841476555822556,0.13452613394313948,0.47215522135621724,-0.2782542004987075,462.47287812072665,497.31251894086074,515.3954868825138,sit
4.707846410684474,-0.018540380452873553,-0.00987205821441317,9.798377511833085,0.29136904802518115,0.1286789738940462,0.2180639471539323,524.0024863422647,447.3637706684634,449.24274449839027,sit
4.757929883138565,-0.029544841356366536,0.002904769584447617,9.808923919534875,0.29188998869155597,0.041628572895222274,-0.5066356099955012,495.04258161816335,490.4075629991222,506.5518086986428,sit
4.808013355592655,-0.01899785660826564,-0.0038095537742239283,9.80164868109836,-0.08504631109603863,0.5211902085160088,-0.056066057417127724,543.0939888227898,506.33546753801016,505.36774378455584,sit
4.858096828046745,0.009362498437138989,-0.012436057935657038,9.77773141371573,-0.2460707420485237,0.2424757868105465,-0.26887472783775335,488.78842058246573,491.0759430061652,493.3165698106457,sit
4.908180300500835,-0.0006846377930428277,-0.025566601149607113,9.79058534577947,0.43916002357488704,-0.2556133361322138,-0.03579181535190472,483.13609333006406,546.924640747622,500.9334407494625,sit
4.958263772954925,0.0008351911823136077,-0.003912261359376432,9.759017809211368,-0.02137039002444989,-0.13166698187322778,0.1830839830430767,473.9352064265999,506.33478311804527,464.63029501935387,sit
5.008347245409015,0.00023243053403840253,0.011252231840496951,9.804978000496607,0.09245673388837886,0.018215522013658416,0.3106242983061719,530.3675853356076,440.50101047715947,529.30978269953,sit
5.058430717863105,-0.010380075058516597,0.004363122278069564,9.798983984215988,-0.2982691768545925,-0.5929586971835837,-0.12994962763892287,545.9680351941203,500.2472334030965,530.8563349707168,sit
5.108514190317195,0.013679949050783596,0.011477320807447768,9.802788476696927,-0.19028665950243412,-0.26503283738872513,-0.13403800231230423,464.50287703974004,584.5976132684917,564.714196416343,sit
5.158597662771285,-0.0307509379452853,-0.019685117519128853,9.81453952856801,-0.06391610181192783,-0.03825639882025284,-0.323228501934912,533.3090751821778,507.11018823312696,503.4471249135678,sit
5.208681135225376,-0.007326668180248089,0.023969611034302944,9.821506385002559,0.007892013144343126,-0.0678193469415683,-0.1016171455017036,539.6062629669615,536.7119166374304,482.4977949301166,sit
5.258764607679466,-0.03872046076250962,-0.017005453171407878,9.82447061467404,0.09748927217477105,-0.26480046235079685,0.11574056315600773,469.323065331846,452.36954583460295,470.7604344021371,sit
5.308848080133556,-0.007316145882211467,-0.030839414922889746,9.811859843816372,0.5980718005974843,0.13497349391975533,0.36527520671755026,456.3478462502749,491.36965213813716,511.5017291402969,sit
5.358931552587646,0.009229738479296909,-0.0049083235577868645,9.820245531374834,-0.10217040252688445,0.15072023915729107,-0.05689498642174949,530.3357947255281,420.31431099720356,572.1391654313769,sit
5.409015025041736,-3.749570239669486e-05,-0.0011027016187482447,9.816769911232782,-0.35356994491135835,-0.031227783859150687,0.34188449109843994,503.7912368835038,531.1516386200506,498.5317695286148,sit
5.459098497495827,0.013537233678736993,0.03182699016622049,9.77643043887088,0.20585137104925189,-0.06130361696901196,-0.023084051193462785,541.2295591453346,493.51803121644997,496.0339205851701,sit
5.509181969949917,-0.004944964289668757,-0.008496611206447666,9.820309159258212,0.14160960322094449,-0.5488050005563007,-0.2086936862799407,498.0186877756131,487.0291793375676,461.46479881994014,sit
5.559265442404007,0.012746032365387253,0.0034722758850930027,9.797563722298685,-0.05714647029417537,0.0929002006082157,-0.03237974890301711,424.23738989461185,516.8014818204937,484.02088893638955,sit
5.609348914858097,-0.010207638561187685,0.031621633006218855,9.7714715857283,0.04436718187744839,-0.09786426053119507,-0.17624527434448417,472.3712151135594,494.69916850375125,531.5116316632885,sit
5.6594323873121875,-0.03786234443068285,-0.022396399823348526,9.799727399113724,0.08944706065580794,-0.3091818145713312,-0.274870997766663,522.4737408109215,389.2155290984772,493.06596405569263,sit
5.709515859766277,-0.029703095811662333,0.024130173561002735,9.779243554880114,0.11903242833601707,0.10187009920699498,0.12134203695770392,460.7036963330726,568.1264114405266,434.7482326622577,sit
5.759599332220367,-0.012954868082844365,0.004021714521406913,9.79442383568417,0.24574357249575313,-0.03160609106673984,0.3702481993708064,474.07727297980045,482.3597206367932,494.0429664997756,sit
5.809682804674457,0.006603061043586059,-0.012661929281798046,9.7929835869346,-0.2601650858341442,-0.005990204382300157,-0.10599185284471256,488.9972978646135,492.2807673192018,453.61548989465575,sit
5.859766277128548,0.02874875022797528,-0.010199753918507193,9.793799458045068,-0.36604993423751914,0.2681301698074911,0.07136638749775687,485.58984962452064,443.7035529455178,501.16128271924634,sit
5.909849749582638,0.016399204900072725,0.01218076855370187,9.782593222274079,-0.06121069105866907,0.3065218892204714,-0.2572362462553279,497.809025982092,517.6874359510857,432.97114416875445,sit
5.959933222036728,0.014733547309437281,0.029829895481448588,9.825632037344628,-0.11903382329780633,0.0839446507822504,-0.19771235546769092,501.63252275939885,477.92428984096045,516.8304263385346,sit
6.010016694490818,0.009942611576980509,0.027760972681926357,9.788023382747653,0.28249471224609307,0.34472647212128915,0.11630951528689948,453.0350780994804,489.6498645071175,555.1602956503228,sit
6.060100166944908,-4.503491378719804e-05,-0.0040944793487013575,9.809846266104303,0.18111391492958803,-0.7651677776197509,-0.0786649173729263,453.77460379365084,492.27722246141394,500.89242805077464,sit
6.110183639398999,0.018607081451109286,0.019693152296559435,9.806380446308472,-0.2999119286497646,0.11370907955769743,-0.2577412535986249,541.2096649932018,530.4047438414655,513.247644829769,sit
6.160267111853089,0.0406667111767834,0.018546083048655904,9.827183989620833,-0.40076354101553796,-0.05596507682823555,0.07095317521672341,506.30553012549024,506.73947988258135,463.75321988059835,sit
6.210350584307179,-0.017594267655109797,-0.00013725758430521012,9.766894629078747,0.1457939474971277,-0.12910250163006623,-0.44873977432568984,527.4297514128683,475.8867579428192,524.109941111072,sit
6.260434056761269,-0.021964263657228963,0.016689840261606456,9.826542616434992,-0.12942479313917615,-0.5460824494950488,0.21936121210593523,567.0068495658961,473.84224180954203,602.2803477132763,sit
6.3105175292153595,-0.00360366915659642,-0.008906028141105596,9.786981538852219,0.15920293424431253,-0.059869165668037724,-0.14911572490848024,467.58122158992336,459.4658416718744,468.65324550572296,sit
6.360601001669449,-0.013549645402548938,0.004743685805651217,9.770127723129088,0.42757458636604456,-0.03415752332023207,0.11010636953271076,447.3672129389074,505.6302917621417,467.31642675259064,sit
6.410684474123539,-0.011702649576821086,-0.012420236886353991,9.781394158483021,0.1802806109667688,0.08082036241636287,-0.17125520238218198,521.4646568030174,510.2066721859413,504.4942427927717,sit
6.460767946577629,-0.005851865259557304,-0.008242677604166901,9.826426230704246,0.039199290770427435,-0.06003885272520249,0.2265987170698754,514.7492440183441,485.44200524533017,421.28746988868136,sit
6.510851419031719,0.0037325959732999042,0.02042130055804524,9.820572174766347,-0.03509114079769945,0.15392461048958309,0.3497085091583554,531.3551091222223,426.08128865219214,505.65125498330934,sit
6.56093489148581,-0.031490948646738556,-0.02390610226275401,9.76471070175818,0.13850860670116763,0.20678825512379628,0.1489518636659628,421.94266810770625,439.56816891347285,469.5846166528086,sit
6.6110183639399,0.02809570163606913,0.016494876842745976,9.750218646409587,-0.5620898004116336,-0.27319809834532477,0.08680078240908815,508.90212473379927,456.7619521010532,447.0784017317992,sit
6.66110183639399,-0.026423405010963658,0.010404233093414005,9.78057214970082,-0.04593238304683791,-0.20617983002137102,-0.2981084938025846,529.5015017742555,543.3774604188709,521.172155779098,sit
6.71118530884808,0.008030073311496952,-0.0010278473963611853,9.816532204718966,-0.052497004939908214,-0.16828443954587116,-0.04980057890107369,484.97902082463656,547.1468407604353,535.8420760355714,sit
6.761268781302171,-0.0022909824586413025,-0.003458455436828642,9.771062351952398,0.5063556282891309,0.28292019817183756,0.11338658411810333,539.264273355975,482.1217616024427,499.5492364962484,sit
6.811352253756261,-0.0074384008426412185,0.02258972171541184,9.78113367988568,-0.3707063359266902,0.5490760529618163,-0.2852731551707546,479.0321266074001,476.6525597020929,448.20187909120887,sit
6.861435726210351,-0.019304044022434116,0.004755089261878266,9.809129463677209,0.21698469599207945,-0.5201499356569342,-0.4954136211864231,474.84570185725886,473.4365567926959,491.18473221602,sit
6.911519198664441,-0.02784903846293682,0.002123179473435606,9.855958010255547,-0.26302398898397067,-0.17738005604993365,0.14245628849339736,493.22560585514094,406.6684201672873,513.8370349399668,sit
6.961602671118531,-0.002696178148396247,0.011107633526546729,9.767558648514491,0.09801831838871966,0.028603264184895776,-0.34131124358599824,530.4879353641894,533.4914373788648,489.1047146157843,sit
7.011686143572621,-0.0169132037715696,0.01735118137072529,9.784920650960581,0.2082189864410962,-0.026873860651696346,-0.04501653114272802,530.2034191809598,523.6344439488913,482.16812626082736,sit
7.061769616026711,-0.002708758053687449,-0.020982087077787107,9.854684295632572,-0.15715246262109014,0.21435583355381782,0.4237049481794126,509.9184784743264,516.172506141924,524.1805256588556,sit
7.111853088480801,-0.006877658636077297,-0.016057922457748258,9.78779486226884,-0.2191258301059334,-0.20811390274730263,0.28194735337793864,511.19064316157227,494.2435289785655,419.2153969574468,sit
7.161936560934891,0.020811705576099154,-0.025401557596896246,9.77678211894607,-0.1808358711718577,-0.016120391770023397,0.013857132929624755,447.5148774813048,532.7738703154446,499.23450518033854,sit
7.212020033388982,0.009006660065011163,-0.011430749851342126,9.826705986868408,-0.11093305101700987,-0.12378056273802988,-0.17174117591133126,437.168759652659,518.2769831277342,514.5332157214501,sit
7.262103505843072,0.005666484108855174,-0.012468033518794747,9.795631150491253,-0.11450474359424333,-0.1920274371855925,0.02497684733301411,496.6666797074579,460.7868005303864,565.8679658065166,sit
7.312186978297162,0.034386745375920735,0.004113247174155947,9.803287089789421,-0.03213083136651096,0.05643453541300306,0.20093841582888897,528.1736300597788,490.234695194272,539.7709878590326,sit
7.362270450751252,0.00020221206540779746,0.004823369588900568,9.824903327427249,0.10523679458395446,-0.12196226576082331,-0.34368102600957523,456.0033427663234,519.9978000504639,516.7631764754516,sit
7.412353923205343,-0.010137077831804162,-0.05161251654742588,9.846825112704922,-0.10653616526468473,0.12056736351473749,-0.03720498426602957,487.2013424543845,535.999178237263,490.84584832672545,sit
7.462437395659433,0.03642038008135921,0.006320272432056323,9.816560778831853,-0.3319239211247614,-0.10679317792276878,-0.2682697239688418,549.6126260579396,507.2067042980671,408.03613859973296,sit
7.512520868113523,0.00710455343872167,0.006746003895395841,9.8021091095145,0.0038728964160132896,0.1531631621126528,-0.16950681091046893,598.7025370336648,536.7072998317644,532.070789816559,sit
7.562604340567613,-0.01094228898972377,-0.03227368943264311,9.778557074419727,-0.08052545057821077,-0.40505042797963425,0.02897416942305452,521.2726824747499,490.4127343096845,474.11235402995476,sit
7.612687813021703,0.00020048209153947227,0.002145915868003334,9.813211173638116,-0.15270230384290367,-0.0563060987898106,0.021377800753223323,474.712676107135,532.4045570659406,528.6733597654529,sit
7.6627712854757934,0.06485422862500013,-0.015603246428025172,9.829666678107172,0.24065559426575997,-0.32688320999881887,0.35476771512416627,495.24256930995386,462.6311900340488,525.1290483895423,sit
7.712854757929883,0.03277808250734206,-0.007794985803513899,9.802701100599597,0.1437247010855328,0.18899376580977917,0.15806983502938474,482.60523565952803,518.4429116337959,451.90789656544223,sit
7.762938230383973,0.022494357227176395,0.05189564798493783,9.797342885667268,0.014381193235915886,0.347758928724501,0.169559452412252,492.19023528172534,452.4288071705705,435.0215104564197,sit
7.813021702838063,-0.004909572045467353,-0.008686098652431432,9.805923757780795,-0.1683027997575792,-0.11230029497379698,-0.02542677698618592,486.3473663182796,478.14664024479225,502.1679927207698,sit
7.863105175292154,-0.011458406768141124,0.03282327083527347,9.798630292985944,0.200782376366014,-0.018285830211379712,-0.6473370648704835,474.2739988863077,455.8048969993955,569.8808354695243,sit
7.913188647746244,0.022200052508860882,-0.008012231121648644,9.778568216278535,0.1562847080912848,-0.13898794010320076,0.15566032557160647,488.168889457394,534.341887267408,453.0836498754964,sit
7.963272120200334,0.004483278206379698,0.004050094926519629,9.820451017700984,-0.18550831163313286,-0.12277295694756549,-0.46060015312527675,519.6601917896633,434.6081534770798,472.5587633167221,sit
8.013355592654424,0.012146755747988583,-0.015007142379245608,9.775500949856587,0.023892419167239894,-0.011026089214814211,0.200430515442394,527.8460449929415,478.70253254564585,579.8518561588382,sit
8.063439065108515,0.015832495133281624,0.00010313289020773969,9.80169354516452,-0.1373425645819447,0.2047942954041193,-0.04877599608930959,551.0035173979953,452.5355326725629,456.7462862975072,sit
8.113522537562604,-0.01948682334103944,-0.019627512833745614,9.772165388885997,-0.07521259242167204,0.016749967916031668,0.01900057931164931,533.9839821823131,538.7881865043114,483.4743334956199,sit
8.163606010016695,-0.00039478282796884256,-0.01694750450276533,9.774331053149956,0.048350092409758905,0.4125453779975806,0.023112380293975957,499.28635287415705,512.6393492192525,507.106883655465,sit
8.213689482470786,-0.05979519348047317,0.002174093886364435,9.780688516446292,-0.06298453964600005,-0.17482336492536837,-0.19855946390178417,501.96556044859653,509.9219983835434,632.1697282817181,sit
8.263772954924875,0.026181390879010807,-0.0006078665837969677,9.82412864066638,0.19989610667306848,-0.26496743460832717,0.11839956144617741,491.6022275897335,508.6228634432161,546.8672468032527,sit
8.313856427378965,-0.008533823979550714,0.022278772292102282,9.80940855059144,0.4546224095869485,0.2304470000664846,-0.038200978726357734,529.714455810122,501.82336474286757,503.07823897075747,sit
8.363939899833055,-0.02301416642749983,-0.00022765444272739715,9.771084440967462,-0.2830678949594076,-0.22462499159475083,-0.30947406073012435,519.0094931625836,485.0843291272725,512.6811414075823,sit
8.414023372287145,-0.004627275472405809,-0.01928547077463781,9.821302290733236,-0.14303730985736357,0.1248061796146304,0.46542169898516705,504.2194720351261,500.62057289809286,558.8791353822712,sit
8.464106844741236,0.007985055953714612,0.014482897214074926,9.804040161507977,0.2498073773367465,0.13813979142592137,0.2173582054961095,619.4200102070728,519.7189826759732,543.0717541916214,sit
8.514190317195325,-0.012015903307658518,0.0196455078996082,9.789143301269881,0.10196989795125318,-0.23647708462430264,-0.1418554095383146,509.8102830207295,512.7710772434483,491.5745626845137,sit
8.564273789649416,-0.007784135347964391,0.01890084631052205,9.798341577663436,-0.16324681164635868,-0.4312477593323697,0.2934163416930732,436.0762393828617,477.0234934782215,447.27315639560175,sit
8.614357262103505,0.0016009684154100756,-0.013743660459739557,9.827055708961243,-0.1734283730325343,-0.7503260917292992,0.06997869076932067,485.65235170472863,576.7417650969709,546.3257321267818,sit
8.664440734557596,-0.015150796196616245,0.01475471480917813,9.81544110881231,0.30404635461712126,0.11848439163769964,0.09559665986591195,533.953075289063,509.7107429664515,452.69021049601054,sit
8.714524207011687,-0.0011902497510094256,-0.01914856985549987,9.803367753059074,0.03105780810453825,0.01624948597323205,0.043495082698756266,416.38412404615525,473.55355788835305,530.1084390897129,sit
8.764607679465776,-0.011779451372298994,-0.0016979165916973862,9.788078562936182,-0.042347643987606445,-0.034750824359061766,-0.4915924193293716,602.2386247284753,511.46463972799665,474.8088946427364,sit
8.814691151919867,0.03249902187499175,0.007900060006051882,9.805435189725435,-0.3057002625558565,0.005921708690700666,0.09548671122286724,507.94464594576783,488.1672964831171,537.4002169952822,sit
8.864774624373958,-0.01653142720520652,-0.010740932656439078,9.79976890400527,0.3139208012033167,0.23912322442208842,-0.3809733789262459,512.6856293995498,421.299041308258,545.1196708427609,sit
8.914858096828047,0.038569233341897755,0.04928441663614033,9.796700197009166,-0.13229670209848174,-0.008517155915824231,-0.12479887682745265,487.6799523917545,549.8668435154605,464.8191207001331,sit
8.964941569282137,-0.0038601361530025274,0.009479848074081886,9.810151040106641,-0.2968142266029008,-2.0028214849676995e-07,0.19426067467404762,496.29278767019537,524.0398366101128,533.6080229711558,sit
9.015025041736227,0.00233851235782101,0.029249239656276665,9.790025531906887,0.3493140113350703,-0.016761570685540014,-0.22936217641609197,429.6797854699767,577.4134972020458,492.99661489766214,sit
9.065108514190317,-0.018564832299339112,-0.026131801190725487,9.833743380084812,-0.31113317385088185,-0.19096310158100244,-0.12198161641558705,435.9916440499427,494.67746293180943,533.8518601117062,sit
9.115191986644408,-0.01182890396174445,-0.015469061739973006,9.810707108743701,-0.13785725091936477,-0.0020807265124647653,-0.3204749666970609,525.2587469647497,497.31341499713267,454.5675411158832,sit
9.165275459098497,-0.004627385702115891,-0.03506350184686852,9.792693612028343,0.25872134528529095,0.06934235094703409,0.34551520485108456,587.370689594835,508.2115422451122,497.1456283827318,sit
9.215358931552588,0.01687647192239232,-0.02499222244478283,9.777890618984294,0.14499724444242446,-0.40574634051447833,-0.4666990755692639,491.0874192342541,597.5890063012495,481.29382774505467,sit
9.265442404006677,-0.016910857261629053,-0.004291019096946097,9.772892732068028,-0.2985746775436394,-0.007739663174168082,0.29136744138673837,587.4784526023266,498.65166490429016,431.8518405418284,sit
9.315525876460768,-0.03306666923314956,-0.015467705547942481,9.817257013355986,-0.4600877411826771,0.2768056610355438,-0.7237779170788565,461.26764003280306,547.5877817383944,483.4762885191625,sit
9.365609348914859,0.030619457803006775,-0.04373339394785883,9.785284298612734,-0.3567716232756542,0.11143848133013269,0.2691837324598113,466.73266420842845,480.75838517022004,529.7408781738685,sit
9.415692821368948,-0.02099642381748297,0.00815665464354244,9.761024981610282,0.1639791996559156,-0.1550205398717086,-0.21186794946549795,480.51825931067197,535.4121684238709,476.1825438177354,sit
9.465776293823039,-0.011285732402506896,-0.01740276422619569,9.778820366410681,0.22030863046925153,-0.15208185217841622,-0.05612613872133871,520.0486538147399,512.2473205996374,575.9257126888799,sit
9.51585976627713,0.013179167800069017,-0.0016592712496739173,9.824533813583121,-0.039854980940580306,-0.0008484116782575499,0.012750061646910348,466.67001184561633,473.2689661401042,525.4147418621453,sit
9.565943238731219,0.02531466542389356,-0.005261372594377298,9.811608792673429,0.4027429591242428,0.40876208788546203,-0.18646473468735103,543.7857165081766,533.8926635975263,495.18121240032656,sit
9.61602671118531,-0.029754492778718583,0.006066761681986388,9.803453376905134,-0.4711591414202803,0.3899383668885902,0.17746036824856679,469.0424189636377,477.89807102745567,445.8898874872183,sit
9.666110183639399,0.008858357185152002,-0.0002576704341669331,9.77178860223563,-0.014942431420691914,-0.0032733804226135984,0.2737640906665311,490.8035942511792,440.0825089034438,473.14320113674756,sit
9.71619365609349,0.030997353835413008,0.017775455136670545,9.807045212024391,-0.19480098217505135,-0.17343690292262506,0.020993589249959827,510.6562986284919,559.4602032691363,512.4623870154085,sit
9.76627712854758,0.008936863733451456,0.0035885804343274916,9.818381491044446,0.3400515051103772,0.10365107909794508,0.22251287696850286,538.775522259777,494.6721105878427,527.0050178582808,sit
9.81636060100167,-0.012018934070544843,-0.04141184211756732,9.817855826327047,-0.10377312267134518,-0.13223770721738462,-0.04314823086830629,472.0526994065423,502.4756298415066,489.40078105921236,sit
9.86644407345576,-0.023003778045632722,0.0001214638760577702,9.805657324012078,0.20144890142024993,0.19167660476218606,0.04290809109048306,499.4050735817067,542.8794175453531,507.56263224129145,sit
9.91652754590985,0.005119523091592262,0.0233264224036532,9.784554945955444,-0.43369573363007374,-0.2639893547573017,-0.03889031638608523,541.1239250427309,503.1998462123744,555.8175496453978,sit
9.96661101836394,0.012807164624548409,-0.004497003758871007,9.820007728422018,-0.050627737010034,0.30901777728159546,0.03885799479169059,526.8800990805277,531.5127939819721,509.86382813181297,sit
10.01669449081803,0.012571588816534487,-0.031058362302834402,9.794424004769176,-0.36957569094857723,-0.14116384663433643,0.08681117691356988,509.3870274717275,424.2270844291079,528.9152951571212,sit
10.06677796327212,0.0033722102646051716,0.012272006963636305,9.800874715894029,-0.1018533776590147,-0.05030961110780126,0.1531531289819881,454.4611166110416,505.1188028143398,553.2768095587162,sit
10.11686143572621,-0.012802201795530266,0.012880517762866785,9.824274944087785,0.5996561183699491,0.047850617278334076,0.15081593530579213,526.360883889941,480.5197482567211,526.3557892296606,sit
10.1669449081803,-0.03836415467279062,-0.026350171331710595,9.82798295689982,0.10385937573963193,0.11106113510736379,0.17725845723788483,509.9672724772113,546.9015255940391,513.3906638751033,sit
10.21702838063439,0.030573112716355932,0.009633277834223616,9.78814317878111,0.02632165294428385,0.47827082180520175,-0.07799161954232693,538.4512929206637,526.3833219472168,485.9990560798177,sit
10.267111853088482,0.005832382556555701,-0.016235238187706336,9.818389794432639,-0.10183765630373352,-0.08720771833772235,-0.3951627448355113,494.65785390994034,483.417598903255,460.8839203472727,sit
10.31719532554257,0.01377309337423098,-0.048502840129645036,9.79122894390352,-0.20211391185013305,-0.4515977798450918,-0.2656316550195617,491.1892596426922,505.8992850573975,524.0493630295441,sit
10.367278797996661,0.009516515327203184,-0.019016283592229122,9.827194781380069,-0.0989138307515802,0.19472579951357918,-0.39155349133901773,496.27289477340287,459.15673322328354,482.53189207321003,sit
10.417362270450752,-0.015997677381487163,0.017318085119121293,9.795234321574089,0.16579819728760714,0.26771432116470556,0.05921306237697611,511.6958878775803,528.6900661584515,475.2654745070098,sit
10.467445742904841,-0.024797206846085884,0.003741502841372861,9.758737760171535,-0.017687455328555073,0.35565413907272675,0.15651576198305397,463.08798207616474,495.76917016624844,513.6942718183988,sit
10.517529215358932,-0.007393850713187919,-0.018847172984655575,9.80664302268687,-0.03176148492744672,0.10111837408341523,0.19662567010163412,536.9385056502036,506.91426036820826,550.5192266595743,sit
10.567612687813021,-0.017171183078290117,0.017470939973210614,9.797769360233104,0.21257730186236573,0.2876556817961498,-0.37562830609678194,520.5053737979199,421.71828272744233,492.5424480081222,sit
10.617696160267112,0.011833627095512,0.002085998280984498,9.803634737185007,-0.09015610251131857,-0.06048662964702335,-0.5355670640885994,475.7789954065747,450.50261283875864,476.5764272221978,sit
10.667779632721203,0.0042120915120406055,-0.0436721367543213,9.843344770080375,0.535513735290726,-0.18429548020359984,-0.29300522766131926,530.8067041382272,521.7060558294472,472.1075038830283,sit
10.717863105175292,0.023720868459907465,0.006400374955849442,9.800912676260477,-0.3316231970940225,-0.06853937516104076,0.1443843698180603,571.6435953457603,519.1838679484694,493.0448250323521,sit
10.767946577629383,-0.0026641383552774844,-0.012512301302723364,9.806885083671858,0.05574239660825901,0.23838459961103428,0.06801273711262339,510.58321883478345,480.36374450067495,487.6454016051638,sit
10.818030050083472,0.026427426118485614,0.034218169644523976,9.780746071296742,-0.024070167286345288,-0.16931490018286133,0.004706487807918881,478.55405227739004,489.9069486436339,485.1471576336609,sit
10.868113522537563,-0.010727947023115636,0.01768366100854219,9.789720113374484,0.25097059452152265,-0.1322665989951646,0.13596716698844905,517.0785701724551,510.0410654054131,441.59662337952506,sit
10.918196994991654,-0.04073537992493772,-0.02998682611424379,9.812477431922842,-0.3617213362770109,-0.14985555185040952,0.12988179476860384,479.5648920061166,437.8248150741075,483.9905542009529,sit
10.968280467445743,0.006010698575098894,-0.07077338466658536,9.794081037667763,-0.037114777224159165,0.07366769142652742,0.33778652961953837,412.08393963053845,445.2996817029942,566.3747404282237,sit
11.018363939899833,-0.013837618852036049,-0.017294094460845122,9.841919562282401,-0.022509100342280056,0.289524700207778,0.24092415441928045,463.67592074435083,470.46577350632475,505.20933697597667,sit
11.068447412353924,0.01135977446940134,0.021919243661572593,9.807641637372312,-0.11359907344557699,0.3948783897496537,0.05922953669596929,534.5852329988522,546.1202479368173,456.22040265477125,sit
11.118530884808013,0.043655773747966295,0.015743578999502954,9.756255336673766,0.0513630587996176,0.22425736180463612,0.10457652977346071,525.3326536226992,469.1592343991669,478.9048303734959,sit
11.168614357262104,0.021761949890611282,0.005779182277694549,9.8195760983733,-0.10147684976898064,0.23532708284829784,-0.24032154396187988,565.4697986087783,500.8254287978411,569.8170233023366,sit
11.218697829716193,-0.005428748667297548,-0.0012994344545727357,9.775806192469105,-0.24679865753985128,-0.36698102528463167,0.06788543934977817,515.094704507443,491.5952549427198,476.76438580163034,sit
11.268781302170284,-0.02029209252581568,-0.008929405315391326,9.772757462340529,-0.1095414030735384,0.13587888636793038,0.13906190708643537,497.18844036479265,546.0786131227667,471.212302146402,sit
11.318864774624375,0.015239985893153327,-0.012966962002939189,9.811876740856452,0.06901287528036679,-0.08903480379428529,-0.07259214103122182,461.1841721623196,544.3704503721494,531.7842345967864,sit
11.368948247078464,-0.013888858133874443,0.009064056186392395,9.769214571189373,0.34330497831339113,-0.14271427413474724,0.07014396138896158,452.8515460550664,538.2631423667489,527.1459307588714,sit
11.419031719532555,0.006086386388841639,0.021040952510744386,9.81045560060185,0.2058494446598515,0.4274207509266246,-0.1518443378486983,511.09790211140637,599.4289445839397,497.73478739622334,sit
11.469115191986644,-0.03950045190980977,-0.010993399857010519,9.819031628677383,-0.26405995498053114,-0.21350519264002674,0.013107667975815017,487.7544405091694,542.6198003363075,500.7844977279084,sit
11.519198664440735,0.008552279510675484,-0.021431584490466282,9.796252600519258,0.1691894017187163,-0.32697893740712497,-0.1921555382024316,561.9811833171199,520.6266787230887,404.3591358208543,sit
11.569282136894826,-0.0009249107367840792,0.039766675256150186,9.78025368233021,-0.1323127952535673,0.15535558062131888,0.2331554426608481,470.06191529652625,475.05758682066767,396.107910327075,sit
11.619365609348915,-0.005475318748927635,-0.024626668385210992,9.759968070695837,0.17628787977880264,-0.1591144666737371,-0.04802729903465753,569.0791579552489,523.316420651158,428.19538561173596,sit
11.669449081803005,0.02190319412418945,-0.015513810875676035,9.806101146774202,-0.028293513521758743,-0.10675483331070154,-0.09922559586475754,547.1597018117341,450.0168327839979,518.4538329036403,sit
11.719532554257096,-0.01066230331522744,-0.02424338678061111,9.831757801805157,0.00027860888325491025,0.21884974516247033,-0.34612518937429615,540.2413637318904,531.6961810168757,558.4507336102441,sit
11.769616026711185,-0.02837936213340104,0.009113808989402977,9.787328581838949,-0.07165141102021791,0.040205076361486035,0.06481127930027489,550.4682153523365,451.4576037283786,501.8242396023081,sit
11.819699499165276,0.0035759405199890654,0.027908432500489945,9.774711744284456,-0.09823646826431293,-0.19604998687278444,-0.04952227449841973,475.3198598740969,477.46530059431444,528.9627239864249,sit
11.869782971619365,-0.018106100362133448,-0.02706090047675444,9.792642185383578,-0.6559471782730959,0.2397099867851895,-0.29409877223152797,478.36689434384084,461.60432452795305,484.3713997307669,sit
11.919866444073456,-0.032984276706396386,-0.0035888879036963667,9.780468712402298,0.05467616020738958,0.2240131422561769,0.09664478158936893,478.18182456321165,506.60172964908196,493.15805823687487,sit
11.969949916527547,0.025383750431912558,-0.0017899304957189471,9.803498993827002,-0.03101496115029541,-0.10383407953439863,0.005471995770993389,505.5498111735955,575.4255331889148,532.8937002198983,sit
12.020033388981636,0.04504848912498084,0.020758625309059336,9.838626077940699,0.6294749940053859,-0.13571322788234072,-0.2275560457765231,520.1543698672464,527.6409856810704,486.23795927986197,sit
12.070116861435727,-0.0054535442280375795,-0.013652572169443947,9.808441813067187,-0.01262769614089921,0.24203672601795645,0.5242291067181568,455.40358567611867,511.3531593857506,521.4725076618679,sit
12.120200333889816,-0.0027932856698721503,0.019416467352420412,9.791482312128046,-0.048242039135961,-0.2887352946137563,-0.1148813754994535,514.3302453750046,540.1928518957934,531.7451798227447,sit
12.170283806343907,-0.012269029603062337,-0.01381933931397468,9.796765406417965,0.0851087317918846,-0.30005465263934084,0.19852485208760914,481.101362763022,534.0748314483411,489.4417345682031,sit
12.220367278797998,-0.021537186516467882,-0.00559570561188015,9.841280940862253,-0.43799576287200076,0.0738661702900919,-0.5336532814906553,417.76935080059013,480.8742111639758,477.3264189179067,sit
12.270450751252087,-0.002869431250611204,-0.012596872203292211,9.778235685335536,0.15562884757682915,0.0011933478174940275,-0.00911543069613011,473.8131858553591,558.3155088142879,467.6015698020394,sit
12.320534223706177,-0.004468846320850164,-0.014454651810027488,9.782137983612229,-0.12965476694024078,-0.6075799385210487,-0.10149406782201309,420.30599532480556,518.4983195839828,489.62775594688367,sit
12.370617696160267,0.01241645988720566,-0.04580131600435472,9.83800092735628,-0.08266211868767573,0.39513139174846046,0.004741969746372588,534.445296410186,545.6650072359794,492.05296864276227,sit
12.420701168614357,-0.001678358590964324,-0.02227032532602788,9.829122322338783,0.0390593693593931,-0.05870638410975565,-0.36131188622400773,486.96129371113534,482.1572697568658,534.6171414947818,sit
12.470784641068448,0.013878029974161502,0.006864062796348179,9.826476752871438,-0.23019040834041374,0.18177672976802303,-0.003110174363874151,537.6418422571155,445.9644329655586,557.9640918821326,sit
12.520868113522537,-0.012500986438657144,-0.01817891436313701,9.814308011236355,-0.13864241064439212,-0.0710505290562704,-0.15936640977301547,526.6511807023056,471.01392271375715,501.49228500377757,sit
12.570951585976628,0.012504799719440782,0.006780176546786761,9.809061433945871,0.23373119615003343,-0.3807999166692668,0.013622840316996407,503.0504337343985,484.3286110345313,524.0896770157897,sit
12.621035058430719,-0.03800043205842278,0.013563075840745273,9.787221502972988,0.10253074253083595,-0.02154464516217935,-0.5654694100232747,526.0513967914793,438.88347090585336,502.90185443586057,sit
12.671118530884808,0.03188750168664341,-0.0007762737009212178,9.860184978158523,0.33276201597129773,-0.061136426990191985,0.19143856485334165,540.8974264165869,552.5822357903834,454.07072143834006,sit
12.721202003338899,-0.011779051423080708,-0.004486628286949457,9.799046993118676,-0.04607036447156417,0.27312816934545714,0.046078663583041836,544.9851131514978,519.0901578680968,460.63755195623395,sit
12.771285475792988,-0.019113674273548723,-0.019341448430428843,9.8308325843108,0.30409336819274163,-0.4631725961296541,-0.033725199746435376,509.54558716002293,535.5849714250977,489.3721276281347,sit
12.821368948247079,-0.03961433920893014,0.009146672197917517,9.804725036496661,-0.012912046663513674,0.2622312913197676,-0.3105352605013403,465.2709865860528,544.1173077436393,531.5955242957758,sit
12.87145242070117,-0.01640267559581164,-0.0008623265629571636,9.790001373079582,0.2536677602571411,0.3258616437445437,0.4175223015652817,527.7985836968039,498.51573248755494,435.58971140358256,sit
12.921535893155259,0.028174685750603723,0.01647331497254821,9.800220901492958,-0.16312354616778488,0.4365608330042771,-0.2230031635144878,482.34764993956423,513.8122614296256,511.7785397475689,sit
12.97161936560935,-0.034593412040360726,-0.01775828127741269,9.82128496812055,0.5124778597775141,0.0032800701665421043,-0.2180685600156661,493.57408008003586,394.90936842132544,458.8697487668987,sit
13.021702838063439,0.01891381126304159,0.034590678109106834,9.793480630871418,-0.09338893749789577,-0.053839885174261054,0.10587622626708204,443.7172444310188,510.19147764517965,487.71895298972964,sit
13.07178631051753,-0.01639733017331002,0.0008833889169230849,9.779937878350871,0.26010333225934346,-0.34618392940103,0.3600239423909444,479.41157612992276,502.4672204028944,501.14632342592625,sit
13.12186978297162,0.012560958040869,-0.022090692756478625,9.788967547419771,0.1566145058934297,0.06709483574675572,0.4062085700132951,549.5680110669788,430.95759580008024,505.99546575763173,sit
13.17195325542571,0.007414070119242888,-0.019400594501202892,9.789454699655558,0.23353744282925248,-0.03785031413540309,-0.06235303982538877,517.0204330056804,499.9700281216983,487.1347758737408,sit
13.2220367278798,0.009553976411563733,0.001254334725216015,9.77609474369407,-0.18122560311598077,-0.14374160729996732,-0.14850348525767537,445.41106261192124,537.008403923145,475.7878672561916,sit
13.272120200333891,0.0009164296371427377,0.025984143138815197,9.796689598199967,0.2866194799929916,-0.27800772001714663,-0.12983993486343387,455.93179260110554,513.1420619082037,483.5747504458192,sit
13.32220367278798,-0.017193387929911833,-0.00670002165652564,9.786981467324226,-0.16167323899893318,-0.05389113940448121,-0.2711887500046185,486.0325209252629,494.3127167514984,506.7745541389959,sit
13.37228714524207,0.009604831283304263,-0.015630470648443834,9.779258995740994,0.06600692873551363,0.31883192670208377,0.11543872228592744,525.7133918768188,512.2621094800321,522.8297499186432,sit
13.42237061769616,0.008705115225418225,0.024758418916576846,9.827657036606897,0.06040723168507828,-0.21443787577324797,-0.09735004636595987,470.0566772258153,539.5428882047829,448.1370760170835,sit
13.47245409015025,0.0010330577266098595,-0.023199445011194503,9.761274582388436,-0.2271670198746981,-0.15123442098260226,0.3190070855203421,452.1695216226829,512.1300833507889,518.3529553553738,sit
13.522537562604342,-0.01663529095893286,-0.04200194421091366,9.814549286428194,-0.12982451248469554,0.11481364389620524,0.3034794484534824,505.9014111277381,459.58823388292893,413.30011880138915,sit
13.57262103505843,0.006228709248137676,-0.02648921506078887,9.805558724968272,-0.10259878788031525,0.6546093191946356,0.30914539901951227,499.6104021901798,473.6268579642771,428.43706792738203,sit
13.622704507512521,0.011619322288263415,0.012231805796523186,9.810775625265622,-0.06305698036485928,0.16060145014231808,-0.5053950021104113,537.3113259497982,469.9798926703654,510.5409673262225,sit
13.67278797996661,-0.05768523224183196,-0.04151243464166582,9.790657708859147,-0.15746002206651422,-0.304958061648266,0.07677382748293703,513.7273528027789,469.99842101926345,530.1108746120881,sit
13.722871452420701,0.008227440816296977,0.027010424524832405,9.781939286010543,0.0077872328517554976,-0.190500206347457,-0.4023592885981292,553.5503968636829,543.1320890511715,484.12267849707877,sit
13.772954924874792,0.007011777309834558,-0.030086634313162386,9.77489676871793,0.6109737728078349,0.2564012029106297,0.24576926149975326,502.28157727158464,486.66816004821953,506.6162104203187,sit
13.823038397328881,0.004934180483443754,0.017597113028878238,9.774076972905165,0.03940034562079928,-0.3189819382684672,-0.6917083978683749,481.8927408156698,554.6917122655674,535.4185556342705,sit
13.873121869782972,0.021851265213628165,-0.0025403221750115307,9.756264118370925,-0.22620514785554624,0.13129991500136307,0.12291768115678083,523.646611796871,433.8726848514864,500.6033643238726,sit
13.923205342237061,0.021063178936695112,-0.02885797117855836,9.809119814210531,-0.17193018398365942,0.4314644458950765,-0.1685763498792273,519.985110448488,544.848600605036,535.876374178452,sit
13.973288814691152,0.0005637464867900011,0.03723732396290454,9.800551759306227,-0.07605892580019187,0.07375161812593523,0.10428097398271785,531.4444183698637,488.4225413188235,464.97001488606986,sit
14.023372287145243,-0.03208921103288262,-0.01464679958104985,9.796018025637219,-0.3827744802878812,-0.16909573315353493,0.2949784540166996,494.4786077423396,551.4989682701749,512.0367222672847,sit
14.073455759599332,-0.018951071920519993,-0.001139627419931885,9.798778754836363,-0.0595948147899815,-0.44313016116757264,0.04416638052416797,451.5587816066742,544.464752297275,517.1419219133095,sit
14.123539232053423,-0.006793211971292262,0.017429265366115734,9.796130912495697,0.31225792490170245,-0.12936847148998445,-0.3083239266566586,568.5645219686086,522.0781437013555,469.8567483441764,sit
14.173622704507514,-0.004996115004488627,0.026737671363133715,9.791843965641919,-0.02329703298948703,-0.05855429300386337,-0.007038519528956034,501.9027054014575,510.68826892135,530.9366035086041,sit
14.223706176961603,-0.02598632074586947,0.005613666402188945,9.798935447888036,0.04895195048275805,-0.0020232864065014592,-0.07048126361994163,533.9821801325415,530.6781936858762,442.92522859734055,sit
14.273789649415694,0.01710913530213469,-0.007691148717916707,9.812958758092478,0.13677987670313632,0.1949722719400604,-0.30441930813507145,526.1533231341893,519.6398510483808,484.94517334346244,sit
14.323873121869783,-0.028028354805941964,0.028225480083095,9.810483560759467,-0.27000123495321415,0.2986973692838049,0.3006931579052003,420.6319693002153,451.8012225148545,481.1135650574246,sit
14.373956594323873,-0.004603735402061548,0.004794346307737216,9.80475708557353,-0.054072644414263446,-0.1674204012304886,0.4484431251182008,539.3160806014215,486.62460719901173,547.7311500231908,sit
14.424040066777964,0.009598172823854709,-0.0008940457093844431,9.776607222305227,0.2660581298291685,0.40795769413508914,0.18979235094972766,485.42706164603965,564.514631830481,506.48065642760673,sit
14.474123539232053,0.026959017490028075,0.02717933304100069,9.796075572404057,0.15390313846980735,0.4616265877126965,-0.09484590293305709,534.0838359670607,545.7963714913536,417.2131668974107,sit
14.524207011686144,0.013489778167569882,0.03694634773994105,9.819946763749298,-0.3004113740638425,-0.012451914879386072,0.12544497713113345,482.43145154133595,548.4713551529366,473.93064518147065,sit
14.574290484140233,-0.012120111268461756,-0.0041235484111719345,9.82865393286912,0.15697742056331798,-0.14593290858091051,0.06182077455174431,484.364938116963,549.00764412817,502.8904897748532,sit
14.624373956594324,0.01367225697542307,0.009584180059642525,9.761930257984522,0.10959579981055727,-0.011163800969149594,-0.3746508123647803,467.3660639051265,561.304578272504,451.88967423710966,sit
14.674457429048415,-0.00623212091776805,0.005380696942482929,9.761104773198653,-0.4747447960057495,-0.3999453142651652,-0.7808752917777182,455.92965880081783,489.1564163046538,512.0981036312188,sit
14.724540901502504,0.01659321727847486,0.007809921051593942,9.816305080081268,0.35979893363610366,-0.03155367581333123,-0.473599519067716,537.1160380756735,473.63266231007356,540.6080920932882,sit
14.774624373956595,-0.03907392917580309,0.013703961405980174,9.790481413163654,-0.3451559713820985,-0.3431831585013264,0.07284686166506339,490.7002277474749,516.0440138452053,502.8551757070015,sit
14.824707846410686,0.002264057655354465,-0.00016750376983767218,9.801637667604714,-0.18157832985001018,0.18201955822156551,0.18476692588952207,445.45561506012854,522.9553037482613,462.6079642498015,sit
14.874791318864775,0.014466431420146628,0.025934728133434767,9.843716619749197,-0.10067922035685589,0.272959063930315,0.6495670890409787,481.86202802381985,525.5700494324522,454.07252747265653,sit
14.924874791318866,-0.026705536074424302,-0.001176304614543211,9.793977063197213,0.19849157782198595,-0.17297231797136262,-0.5335450926902882,549.2054630129581,542.981878087621,488.44865836771817,sit
14.974958263772955,0.019924350496699134,-0.006679445830791289,9.801974576476299,-0.27037379744435336,0.23245669061163507,-0.016341544187321616,541.0694813637833,544.3465950448542,455.8874869145951,sit
15.025041736227045,-0.01318975203372065,0.0013556552537059702,9.79496265098155,-0.14177778307243336,-0.11814837137020222,0.2350853175350282,509.9467497761755,499.5787710659098,488.75928743445456,sit
15.075125208681136,-0.0006480220674810466,-0.013595994634476596,9.77775306182131,-0.23164151320307597,-0.29978851609507895,-0.30551320590013253,539.4442335557843,532.8379563434853,518.3414328225598,sit
15.125208681135225,0.004725296930452136,0.01360966674619249,9.787401881353368,-0.25291000024146115,-0.09379827864875104,-0.02753548941349791,572.4224434090183,528.6666579688399,508.7680307912637,sit
15.175292153589316,0.006280774019374491,-0.00491198429596737,9.782205163717679,-0.15303406698685537,-0.1242792926464449,-0.1081340829284839,501.68626774940924,502.89654820310466,491.6292287709166,sit
15.225375626043405,0.006708214075741473,0.022512941969003303,9.838131889969969,0.15789654180207766,-0.1673279059885459,0.2619779655847623,587.2692138433072,511.17509676984207,480.0258325467408,sit
15.275459098497496,0.001877578266184704,0.03115516998546868,9.773694043829503,0.22547790852901622,-0.3616311197273446,-0.042253170177449416,539.2714264500923,441.1052923909924,513.0433316324466,sit
15.325542570951587,-0.0038836824904216055,-0.004799983229773902,9.8114354430265,-0.4789338010606981,-0.21237645255980775,-0.2208477676641555,529.398221077107,495.35352310762215,483.4353394424349,sit
15.375626043405676,0.0020606028215754413,0.025774660075387076,9.800380585343998,0.09354393991693628,-0.04360894700606964,-0.0013139530984940513,532.8203164222538,512.9566148078678,607.0288964241422,sit
15.425709515859767,-0.014703002679972765,-0.01679947801182735,9.801969458993913,-0.020012285697341207,0.11944283966035595,-0.3727526242368138,499.6990183091543,465.93593016200407,465.14319021034004,sit
15.475792988313858,-0.02947008829999658,0.027955827108991013,9.79242452834047,0.13942728761653855,0.06959109019131969,0.11366348601808249,504.46692863271795,528.8461895823488,446.8639057824413,sit
15.525876460767947,-0.02970095726798145,0.0019313403817503016,9.799706070222603,0.21116959868701202,-0.20714869133648775,-0.4032358689612401,417.37530805353015,480.24364678304437,530.0144838076931,sit
15.575959933222038,0.024809458058384568,-0.03636696452725416,9.838461231077776,0.18109966441224737,0.22979694504218728,0.21840371018843008,428.94203414580915,471.41208210966647,467.40252639736894,sit
15.626043405676127,-0.0263200470708954,-0.003947102688582713,9.805826088596266,0.19625681980405965,0.22547335959983525,-0.03199205428730738,480.0219884851897,530.8243732534423,512.6725715845139,sit
15.676126878130217,0.03273383126535359,0.019180288204168,9.76859577336663,0.12248432579257675,-0.12052407236792369,-0.5573619683334428,461.3027026026621,525.718613610837,414.25124146018,sit
15.726210350584308,0.006748059658925901,-0.016988858436506674,9.797517399790912,0.057310503286945896,0.18194301654560896,0.07116711125998043,433.63822304112966,503.7564319910705,471.4728861830684,sit
15.776293823038397,0.007704982770657107,0.049168988688468314,9.790012850432609,0.4146157945196483,0.1489285915122343,-0.2757082118921371,523.8126275369598,561.3083815137867,538.8276606272177,sit
15.826377295492488,-0.012041611043620212,0.0031563338707794805,9.800623319061335,-0.1842179301272099,0.09609547893808056,-0.02431867585330554,518.6294539572042,476.84653299477037,508.40276375622295,sit
15.876460767946577,-0.03730877138621241,0.00828800001643789,9.81043179695601,-0.13355932940407525,0.542317133233613,0.2890354793292697,425.1002587037421,467.74286914379275,540.3991914950309,sit
15.926544240400668,0.01929650006623375,0.01257825525846612,9.797269889835574,-0.09774804451448652,-0.01804703228913273,0.046258899052389196,538.0475437176615,516.3996439068802,540.7612481380721,sit
15.976627712854759,-0.022558744605841896,-0.026884748289750113,9.827067284062077,-0.1307614423348376,-0.3340353268861905,-0.29565681745303524,518.8286874496255,518.8970470587889,547.785995618464,sit
16.026711185308848,0.0002987755415373994,0.003513287888406845,9.798175495128687,-0.06897458943739039,-0.41376217844328184,0.33619038306019294,457.88172304951075,503.01075706179523,512.7346920414093,sit
16.07679465776294,-0.027021198342003505,0.008820944103620186,9.787305058330087,0.1594548101492312,0.13355270550636045,0.12668940681257823,490.4510236508542,522.7176432930261,456.1356332077379,sit
16.12687813021703,0.012103134339973273,-0.03335644941556651,9.812941910961051,-0.06091564046674218,0.116644799853933,-0.15138116817162678,540.8005382784879,535.1162613942633,520.4551539837387,sit
16.17696160267112,-0.01838184766784344,-0.008336487439180515,9.76314772452019,0.3005206933533096,0.033938628478308114,0.2814250770531579,530.9048572014204,514.8629966089176,448.44649766160137,sit
16.227045075125208,0.02177802673541089,0.005865534710076573,9.796186907226785,-0.2321770261139193,-0.041128411429057855,0.3985837046006895,506.5840361383419,537.2602491950055,380.76740603914266,sit
16.2771285475793,0.005307433395992114,-0.0012189913198841426,9.813733721540483,0.20704298067625973,0.025505039693707765,0.11600952457030879,437.05365973864224,526.4209738497218,477.89017693472164,sit
16.32721202003339,0.020477549716255594,-0.020481948963258972,9.798229275307465,0.25942251037977987,-0.11697098023324408,0.39101561592177264,444.2463954123613,475.1071537699775,527.9512887597101,sit
16.37729549248748,-0.002463194779107919,-0.020745893341757887,9.79283704098621,0.03704619314269971,-0.21648298026786783,0.12263579446155276,514.5328664686994,579.1248302297715,480.03612620880733,sit
16.42737896494157,-0.020639715377306113,0.025688843144284948,9.756825411142188,0.4476390268653571,0.14109482838770046,-0.18991236942782508,514.302802594677,470.4519592043466,466.84364224194616,sit
16.47746243739566,0.008283769638610577,-0.01848910651909194,9.800841524176938,-0.025714083031457245,-0.11830968484385061,0.11735783106336646,556.435447437569,447.2902052080709,507.7674152006304,sit
16.52754590984975,0.0037841648173257136,-0.014386891934564744,9.77087214040486,-0.3974646384081804,-0.26749506359378394,-0.3147972463185127,590.9784668982392,507.3990812859767,501.5625169664771,sit
16.57762938230384,0.01742149627473004,-0.018167513350602127,9.76773036726855,0.3977349618673296,0.14496056488955164,0.19565194008964854,576.2786942141705,544.4790220577745,451.3589670338034,sit
16.62771285475793,-0.02804583590718525,0.01359002605978861,9.855789474186611,-0.44521784410674925,-0.3186496795548954,-0.21754698785941595,550.440428216805,511.9120454575898,528.120395643698,sit
16.67779632721202,0.015345718083833199,0.020663841086701204,9.821855245048617,0.2603010929134249,-0.5345923245470725,-0.10600158585025299,607.4559572459523,498.7652228189011,538.8510383533496,sit
16.72787979966611,-0.00204582618739807,0.020529592420127613,9.799141000683631,-0.2192447840727212,0.2348609889914179,-0.041803628450924335,524.4219115746406,463.5654171535574,554.642729377471,sit
16.7779632721202,0.0005702875048249206,0.004397587651560467,9.820717446481538,-0.11824112865137346,0.059778894654935064,0.22443091918987534,531.572046441173,453.14866324211687,471.13355147928036,sit
16.82804674457429,-0.019334035541730993,0.010175215714624888,9.805438567857713,0.1851529136918618,-0.010860288096571231,0.10096318460051952,459.61039965996497,431.6827452867573,503.6208344895903,sit
16.87813021702838,0.020490810560419806,0.007988371929390427,9.784077225407028,0.26468048995504706,0.004200761349688592,-0.1878180421860536,521.5812247336762,514.5622370675063,412.5989733499469,sit
16.928213689482472,-0.016338385904697703,-0.025140425472778644,9.787086119120698,-0.3896462055119823,-0.2291347984897996,0.025447675245189493,551.6180247468723,480.7459336619815,485.3553038346136,sit
16.97829716193656,-0.006657226108993372,0.02516351576374065,9.787327881964393,-0.13257351212625967,0.14165234233140905,-0.2705649894667655,459.7304126063484,466.93818017202665,525.4970205028618,sit
17.02838063439065,-0.01173048475625331,0.012333415332678135,9.81624105128444,0.15521981117225825,-0.2002750645452823,-0.09776066785263539,436.93573745543705,441.9024256219307,522.4482910912462,sit
17.07846410684474,0.03942025500863704,0.03110716484593329,9.77690106609075,-0.21501286869902667,0.03519028006966834,-0.05510981418228563,504.0701433758039,458.89265784787585,473.32011327849193,sit
17.128547579298832,0.011169122591996705,-0.011358349975621462,9.788442339749846,-0.2591095662461567,-0.15253062586987381,0.16787247706198297,498.73166541240107,512.2834681147369,581.0594097728624,sit
17.178631051752923,0.0015878401264741437,0.01196468246134879,9.793840286396728,-0.09228172873268516,0.1565138730766301,-0.06563518767674975,477.27675377370883,547.0231124196436,603.5432160668354,sit
17.22871452420701,-0.029799739850060965,-0.017949074546640187,9.802209664449697,-0.09476542719841595,0.21962321320406714,-0.3767039599640059,522.6846951120541,519.504195101496,482.57552753493053,sit
17.2787979966611,0.020107678772046056,0.007700394716910107,9.786511904468941,-0.6671697969949015,-0.07581292061404454,-0.2754163817384009,547.3228951833089,471.0933162864818,535.985707947513,sit
17.328881469115192,0.013094140252986913,0.027500967679544824,9.794926732528525,-0.03908929044385556,0.2632427103010901,0.20238427280633225,482.6006270020459,489.6300670728751,540.6023791271815,sit
17.378964941569283,0.0014534193256003497,0.013605979586733888,9.8438120374273,-0.05033771417427344,0.19296578921086274,-0.18613012957414266,474.45181168864184,470.87651428162434,525.2425113643151,sit
17.429048414023374,-0.01361264862924573,-0.005515844656119512,9.777209313863407,0.1561896239216388,-0.2967249121613184,0.46201863287715855,444.0157765836356,536.7819431838028,550.0943707751926,sit
17.479131886477465,-0.006026036369531015,-0.017745899701150744,9.8161135216884,0.10627478827136448,-0.17538478008953187,0.19131272144351338,546.9588696225534,421.9195830228073,513.0812605811681,sit
17.529215358931552,-0.03245363184930013,0.0006456435069950653,9.770213258215362,0.040261163039738965,0.18610030237267824,-0.3846159738377131,463.9634438133967,428.0334559549089,527.0060074079362,sit
17.579298831385643,-0.00764940990982628,-0.006414974408018442,9.77679598777154,-0.1585043490080081,0.1670763977647458,0.19541682219885195,444.1379388364954,506.9788031028301,530.4679566700714,sit
17.629382303839733,0.035244352487931285,0.031151052586968795,9.836920407265605,-0.10366562328108778,-0.24116231695869275,-0.1492091528069047,464.04379185372056,506.9855288668805,465.5772981621266,sit
17.679465776293824,-0.0481241606761342,-0.01803970074088694,9.793734651098587,0.40734298174205646,-0.47800280800403133,-0.1334219749361581,517.8471766936589,482.3517835808119,494.42617026978206,sit
17.729549248747915,-0.017724711298206255,-0.015087184368256484,9.817144595042182,0.17371385722498825,-0.5807458178117767,0.21371777250182836,511.2301739175443,554.314529020459,551.1909654014884,sit
17.779632721202002,0.0003247651424798381,-0.018326989995903653,9.808451069381563,-0.3481170118108771,-0.19897336047621803,-0.149224159061116,456.62524326110776,527.7507725141968,467.63191098022213,sit
17.829716193656093,0.01763226142854886,0.012066027762003897,9.783888542260401,0.29078410502007723,-0.29852541352254097,-0.03453694250759833,499.8291864150918,451.04335859486406,616.4217560801648,sit
17.879799666110184,0.006865835251345903,-0.0005173300215517776,9.818606156200692,0.0790228215216036,-0.31894564684044263,0.15143327526128286,445.7582986072191,519.1668861739934,548.570879697748,sit
17.929883138564275,0.03040864816782432,-0.02402994127631536,9.7986260099127,0.07932097617295107,0.4629971289818223,0.11996354819848996,475.52819794578284,478.9631623537835,516.2438619162771,sit
17.979966611018366,-0.008736018327554981,-0.020282147754638297,9.799525180354317,0.10981534495809922,0.03937847026334491,0.06922561910013915,464.54919497566306,473.46243336437135,452.52446591649374,sit
18.030050083472453,-0.03311231454009848,0.004814923716098228,9.79185229100243,-0.02414290456388961,-0.43622674577513965,-0.05640585069454671,503.3027707110327,499.277328349062,500.261213975013,sit
18.080133555926544,-0.020865324214864457,0.01608742195905616,9.80421494169851,-0.17434328733318274,0.05637584726252069,-0.04685666557436114,499.9750046021097,520.1620942297083,555.2564065434791,sit
18.130217028380635,0.022617837452766798,-0.002888485912866487,9.820673969620035,-0.3035302804620205,-0.23171711826978725,0.3203019163457154,440.3112178016623,553.9615165853066,536.7475034295038,sit
18.180300500834726,0.009481778428545556,0.012433876095922752,9.785602819743003,-0.45805527382063294,0.07141268102703699,0.04187520674912014,492.98000499341447,435.10363562286454,511.7978485214651,sit
18.230383973288816,0.011606979410327137,0.010844050317213652,9.79149006300452,0.8441018831832721,-0.019006654352053617,-0.3261525940567345,418.5656266964077,497.1805822192896,487.18059074751733,sit
18.280467445742904,0.0065281382671446425,-0.0033475661241675475,9.82431205343255,0.24410437073814056,0.3692902536015575,-0.21618716533358825,450.8270881738612,504.6482070299857,473.74298501757335,sit
18.330550918196995,0.008790822312647245,0.011165616420802722,9.814595197149583,-0.1282103589055746,-0.054031548356737444,0.05155554548435694,494.67674173389787,529.3002628289657,491.4568687700345,sit
18.380634390651085,-0.0006979134696958461,0.020199222720749824,9.784290745615126,-0.08734858278485141,0.4063156066197398,-0.28550554218055585,519.344849005242,501.7700656474323,495.37228128916166,sit
18.430717863105176,0.020432942218262723,-0.00500921802296736,9.8107416739455,-0.04874576328996698,0.31033854410782435,-0.14226029684617947,538.077992166645,453.1528658129735,539.3351137294105,sit
18.480801335559267,0.0283062971607866,-0.01665978400760619,9.792984353079316,-0.26120735557309255,0.28232054214189983,-0.6922691062342695,494.81445397539306,491.84831310806334,547.2693180465795,sit
18.530884808013354,-0.0003174332594450824,-0.030255461373778603,9.793548934914682,-0.20828069960178308,-0.3364459678650383,-0.3826888267505273,511.2269614971563,533.1659853964957,501.17664477061976,sit
18.580968280467445,0.0013440241594282754,-0.010760331783718102,9.813948582058059,-0.2060285152399692,0.14882706977721621,0.106351649119473,442.9015151185632,522.4312586740148,547.5724454742026,sit
18.631051752921536,0.048331102562939335,0.006464599595550291,9.774178363836974,-0.014722138656850969,-0.30397405980554876,-0.06592463078233894,458.87460595107495,514.7815230293195,489.5688241062724,sit
18.681135225375627,0.025194708362718157,0.012693669954482636,9.787081954004423,0.0835405097893293,-0.06771691677576933,-0.1534245680949188,467.46210830715086,543.4284902045649,481.0063852897383,sit
18.731218697829718,0.011259514706633555,0.010135163252825152,9.79389823477405,-0.3135127914749326,-0.2877486039457625,-0.05085750292325602,512.5019128577591,586.1207356201071,478.21172588338294,sit
18.781302170283805,0.041129719789771396,-0.043603903766724586,9.840557808763782,0.01611207541987149,-0.23294313143148623,-0.3557030876537239,503.5764623356313,421.23914365009614,495.8848556550236,sit
18.831385642737896,-0.004152654924810581,0.022237528075251603,9.809681893054158,0.17416722282981165,-0.3310516702089117,-0.11013212876357256,494.304389044381,548.2507994455025,497.4286567094317,sit
18.881469115191987,0.019799782014356365,0.02455465103869499,9.787938226354985,-0.16293666224009015,-0.16933739625969987,0.008143017798271661,511.3507149651069,503.0188789785346,408.72564958363836,sit
18.931552587646078,-0.024593658727861158,0.05795228577510781,9.798508850683671,-0.34078286915599965,-0.008114131229222412,0.11744332377103166,459.26208013614195,439.689382322878,491.28239229898844,sit
18.98163606010017,0.031984601851425334,-0.002281880092179965,9.781819507110024,-0.11318190395349444,-0.280348220381379,0.10006127968834896,506.5063503592277,443.2875827252116,541.4588762386533,sit
19.03171953255426,0.013220535076863868,0.015530888462967601,9.804412751815338,-0.007189497157906843,-0.06320495659961865,-0.10311396210232329,473.6580295168718,530.8762629836792,521.7142754246797,sit
19.081803005008346,-0.021352779705106725,-0.03405339328760584,9.787279846561736,0.25347883921573217,-0.13895868728425187,-0.2553650328119158,503.8994768172828,484.84557928430354,511.3242151152104,sit
19.131886477462437,-0.021062797221124883,-0.029837277607402818,9.828119890910934,0.21961233420984583,-0.34766214618085894,0.1566327082692327,507.0799186293568,484.22026423081564,450.7542765656651,sit
19.181969949916528,0.009759981575219678,-0.007108547392816605,9.809054555613876,-0.4389502110513599,0.16559711675489022,0.17169108261402385,485.18340499022196,513.9547508625745,440.1633056497342,sit
19.23205342237062,0.015395502984655307,0.004816694111949148,9.814832726333178,-0.2124214503464675,0.02911249620511483,0.02453097158824363,463.6308881326559,525.0101273633887,490.01123740294804,sit
19.28213689482471,0.001040167348208984,-0.030162848844050072,9.748761424971235,-0.13185752700975914,0.17545307737831964,-0.015242945114884221,492.3879476668779,557.0991547781721,521.9603230378143,sit
19.332220367278797,0.018069953232942318,-0.016267770708219637,9.807093219232472,0.788084763009911,-0.2115248799084569,0.17250931651854745,466.5096863982112,546.0392778181883,500.30825597431385,sit
19.382303839732888,0.050758555462009566,0.004335350595673325,9.86913320594086,-0.09018123052373019,-0.13701042098864202,-0.5037384809519093,495.5762198685857,568.5508216014338,510.116253070517,sit
19.43238731218698,-0.011860124764181024,-0.0009723527078775926,9.802213061065622,-0.13872887807250714,-0.259291938483933,0.04031659225554925,473.4336353857498,432.3795956365796,510.6137805905051,sit
19.48247078464107,-0.003220575036078782,0.0005172800929625146,9.816731845029594,0.17560219226621657,0.09014801585893874,-0.03969258643126384,472.3366383015652,555.8980924155355,468.1018561342827,sit
19.53255425709516,-0.007638452198607426,0.019557337827922697,9.768212507132986,-0.028027595279398732,0.5545419813692833,0.01132970589814885,473.23147879271545,569.2780632335113,412.28687898722836,sit
19.582637729549248,0.012855966942548952,0.004790103714097778,9.807231152110573,0.06693626357150356,0.15443620379327883,-0.07467768349781273,539.2298391488969,511.5219675004503,494.49547511456,sit
19.63272120200334,0.010993956938670765,-0.00992297067323264,9.791233765737068,0.02092263890604756,0.21371735431728034,0.1524492830110588,496.04143879477436,530.212619919854,487.2252647338256,sit
19.68280467445743,0.014046686781705939,-0.01769356458107775,9.8417482976395,-0.2697951559230998,0.047502952087193594,0.4699566700530995,566.2555906041094,574.5414322641222,491.1881504664488,sit
19.73288814691152,-0.01865240724338952,-0.016014561393075555,9.796808338680297,0.22607359367721752,-0.5339775664027501,0.2415595788797619,526.9292599456984,490.853835145331,508.54773383068516,sit
19.78297161936561,-0.011390621389930036,0.009727215830164067,9.776282672288858,0.08360723485818819,0.14222739037882678,-0.014132617162701273,424.1916466732739,523.8324765602283,496.7782724140078,sit
19.8330550918197,0.00862826223236049,-0.002236162161451352,9.77302165813107,-0.008155487460145843,0.5038545367928198,0.71285662165838,393.31357927598657,474.9914513635176,486.71911125360873,sit
19.88313856427379,-0.03710430421759405,0.022190147091195704,9.792062180285868,-0.27283089418876333,0.13784196137803034,-0.6272398751468953,440.81604449581386,478.2241704554904,464.9759601070712,sit
19.93322203672788,0.033150949066894364,-0.0012594289562742333,9.824591744735201,-0.16396676688551132,0.06067911276532866,-0.06844433095227365,448.02562858748104,463.60806942965337,546.7624538670932,sit
19.98330550918197,-0.01143035440738989,-0.008650001545278244,9.85225610915533,-0.1062976157316644,0.09512978811840378,0.05127091847378257,520.1718084523956,483.32828045698193,411.03365516107027,sit
20.03338898163606,-0.023594671441943438,0.023293470118035967,9.796817661783937,0.058729290307941925,0.07156734589657233,0.048079950175720025,529.1156438039218,496.079829711877,459.61799601450383,sit
20.08347245409015,-0.035270777239649664,0.017971221727376502,9.821004149583375,0.31126858801892954,0.07528636790719814,-0.002889623370435448,528.0492490773453,445.3948338921119,501.0554650892135,sit
20.13355592654424,0.017222593609949863,0.03405892472707281,9.819988269581982,-0.3159048135974405,0.07571029494586265,-0.25111784186452646,564.0871599618628,554.6985850077947,516.3914045513059,sit
20.18363939899833,-0.008055785448040809,0.000879498513279453,9.78303315379654,0.2130813818720973,-0.04667183346739363,-0.06151520353072221,497.40894668866514,555.3994564867737,506.3068951560821,sit
20.23372287145242,0.03468586468972744,-0.012706238326692806,9.810024191153888,-0.03546908823156011,-0.17850474183183468,0.20310738795445363,525.5988739433996,502.1676489280767,411.1557541169156,sit
20.283806343906512,0.0011046538942610373,-0.03723618044092411,9.785880110710265,-0.14096531350542077,-0.19437256279837986,-0.3725095498257972,473.8034545443808,523.7194644638478,476.06797225011326,sit
20.3338898163606,0.010568457073363346,-0.00250769853592131,9.800900217502358,0.27661271799730835,0.5126116024159169,0.02816206579060417,471.4577608783807,472.8274916317866,481.3162550609111,sit
20.38397328881469,-0.022100128698426688,0.036854158584365054,9.806925902036504,0.01094760573018949,-0.28891243668132915,-0.04744674066335076,538.518132671479,462.58967892542233,505.43980160934444,sit
20.43405676126878,0.022077265761740336,-0.0015958012032742594,9.811531314360995,-0.15340694092154677,-0.25957823161949595,-0.1139011288397037,547.4150183967943,434.7052580390425,476.4287098112375,sit
20.484140233722872,-0.0069317092304527345,0.013395477835432393,9.766021713479262,-0.03769687242928405,0.09138693296743405,0.2508983816193609,530.5309534643096,541.3044775456618,427.16287406209403,sit
20.534223706176963,0.0035749833200169334,-0.005790171391593574,9.820976323693223,-0.15606699811068758,0.005175846427303664,-0.286901023594299,488.72800387786054,528.2553867311655,584.564776593819,sit
20.584307178631054,0.002422403237787654,-0.0011974127943259194,9.782249413143992,0.3190004029652666,0.41823629455743466,0.07225974297901695,527.1377696382201,483.41389707518306,489.7828844463169,sit
20.63439065108514,0.0120422749658302,0.05920403847727429,9.800654585131586,0.34123869828925457,-0.008017883422204618,-0.27250004393911653,417.82627052951415,540.4448426053325,545.6800288021778,sit
20.684474123539232,-0.03447560079719653,-0.01266889228162793,9.804683480181454,0.03733817556683701,-0.09496392644896579,0.3633874302560957,428.7510097555915,504.62232843661707,550.1654789139262,sit
20.734557595993323,0.024708179663945673,0.015550881243422368,9.789234647616071,-0.15803921717018707,-0.12501587522949367,0.5462754734977537,533.9834510334824,518.9308640347036,542.4217698212303,sit
20.784641068447414,0.0050911359385353155,0.006279329897547495,9.779148380649673,0.18551068722694106,0.18306459500042674,0.11137638543975938,534.4608773479075,522.5726240636426,444.09606321374207,sit
20.834724540901504,-0.02397372902948028,0.030642588475043975,9.823214106814714,-0.04733178842963147,0.043469901086299646,-0.2583285021802407,496.2799875895412,477.054070145682,525.8881454450528,sit
20.884808013355592,0.025649853036497153,0.019830578576662844,9.779276376612936,-0.2082393477281363,-0.32745245608463813,0.3368201081727481,445.7538054571209,514.1969361729512,501.2406913105909,sit
20.934891485809683,0.006957119162963488,0.011210108624504472,9.805198501394678,-0.31824674719050244,0.020685707499325127,-0.5304232501766987,460.2804390982431,446.86825204008426,518.9114475849789,sit
20.984974958263773,-0.01141174234158894,-0.002880322693998516,9.812242457951186,0.03412510302953269,-0.08790446455808276,-0.02737040129821878,523.8303174893503,516.3073476951832,548.1243191578168,sit
21.035058430717864,0.012261821401578527,-0.024390597812054424,9.815338976345496,0.05177401324731875,-0.18783666263558296,-0.2278717184227184,494.8134144144237,496.8309730406062,543.2212208163373,sit
21.085141903171955,0.006160432247328887,-0.018538071633494302,9.830517880098304,-0.24068694085801612,0.24523081864134988,0.4697289430774777,392.7574602218184,642.0056259674392,481.6560557194568,sit
21.135225375626042,-0.0034425687803320837,-0.016164081954319398,9.788351886525964,0.2524501158988594,-0.3058288800184498,-0.17787390029998681,500.5695459667182,497.5475681391545,541.353510156883,sit
21.185308848080133,0.01366563222924587,-0.004694049063802622,9.790241155382194,0.37224388386847596,-0.21168949394975636,-0.26017789078612497,543.953548516692,419.4363119962181,478.34291598390803,sit
21.235392320534224,0.0177356484811403,0.05442561604791628,9.826747625337937,0.00922979994153068,0.25472803236141056,0.09694544654413133,501.5793139067604,527.1760534340333,526.1758773541671,sit
21.285475792988315,0.0029035731288662714,-0.011862449756345372,9.803320626138301,0.08330029481262352,-0.20537282859399586,-0.2804309999281604,526.2530135353301,480.7223859627232,423.12442405625995,sit
21.335559265442406,0.025001229802103758,-0.0005646281301321596,9.808212663765252,0.01383063958696702,-0.11554137428046626,0.14350651806183826,483.7922523550389,405.73616682719756,450.4629146757793,sit
21.385642737896493,-0.03076891734647346,-0.008382059182829138,9.804118917095122,-0.15744408016595346,-0.27562033094152927,0.08756649077071418,457.61652869590296,473.15274983931783,522.9068076285663,sit
21.435726210350584,-0.0033474393182960083,-0.02167003032129232,9.803212235659394,-0.1655919974388526,0.06992148429244108,0.11644673747919268,411.2874772101751,526.5691297003575,486.4893132805389,sit
21.485809682804675,-0.0011496059749302456,0.011705269395259406,9.786674374081782,-0.39397478426074223,0.157396837794192,-0.03280764695218968,476.77940714302764,506.5123103921599,407.04706189643974,sit
21.535893155258766,0.0007120820136633371,0.027348908475561,9.780370388165148,-0.07385461260660081,-0.1328018858766131,-0.20160854858567906,447.26869101236923,484.4880702911005,447.4551363763571,sit
21.585976627712856,-0.000582145494624306,0.01984878435908348,9.811943373883132,-0.6595788720787837,-0.034827557034254344,-0.316280295020851,539.1512075506259,548.1549065655547,505.46192893702937,sit
21.636060100166944,0.008435071414068726,0.026406959352800352,9.76950561929489,0.09232933764217773,-0.5688426638945364,0.40496501927322753,426.92918566191514,538.3800331692066,453.041787154651,sit
21.686143572621035,-0.015575054390294385,-0.0073605592007251475,9.814777175101932,-0.21427064549630037,0.225461227527058,-0.0844436119324772,550.3861794135455,460.46284585232394,433.1575885525079,sit
21.736227045075125,0.011233106643322582,-0.012243447974115806,9.827924268383388,0.014185102977030224,0.11851117590584888,0.18734839185018096,545.5454381497582,512.1884616129396,520.7111711715982,sit
21.786310517529216,-0.009704005214425396,-0.02122257697959401,9.781573451767764,-0.3422818942199259,-0.02474669992382508,-0.25425947985823916,517.4429568767131,497.8654307603347,511.8715742277979,sit
21.836393989983307,-0.009102380718868833,-0.00340296637541862,9.779421126927275,0.045910844178794305,0.0630314426311724,-0.10561671722658227,499.97920747525734,503.2149967054037,532.0417675989676,sit
21.886477462437398,0.011402358642959798,0.028165035485842344,9.82585665172089,0.05341787168291608,-0.3786526308386205,0.39601326537860676,510.8439042004205,544.5193794770793,484.03196571314606,sit
21.936560934891485,0.023455628278714433,-0.011790136420920458,9.803699174843361,-0.3809590894795342,-0.21123939300202926,0.1667379003679513,552.909999583468,495.54498959904515,502.31072663277666,sit
21.986644407345576,-0.006545608509891776,0.01950433616876296,9.788336363259914,-0.05238193627838572,0.11766010974156398,-0.25501338989915356,559.2608211169768,499.32548229166673,485.2761283323596,sit
22.036727879799667,0.015596246252985183,0.00820047063641767,9.809357567490457,-0.3945892619905437,0.3434433235566669,0.07542404532219056,514.3380786200607,539.3584276431458,463.6074793066913,sit
22.086811352253758,0.02587958348865968,-0.0012802603310098151,9.79036321977804,-0.09907579223304482,0.0895649364304641,0.3106911325107338,439.68728617094496,509.70869918760667,475.2233669246878,sit
22.13689482470785,0.014619422931440959,0.004656753919408584,9.846607281340061,-0.32981823029868257,0.22653682970687272,0.19852203138455618,548.7851336938922,507.130102875605,468.4591700454469,sit
22.186978297161936,-0.005220076622183101,0.02039447194644281,9.847712359784508,0.1317468325791093,0.08220152142227337,0.20233636863602178,511.86910085882744,440.5787294887012,537.2635343943949,sit
22.237061769616027,-0.01961274546806281,-0.003915530048727259,9.823991795982543,-0.13519992699899533,0.37385532527073123,0.02659706900017798,392.8540180159508,559.5700468110906,530.3907357034747,sit
22.287145242070117,0.023087278183834922,-0.02317605622153711,9.811495911532344,0.062101707288124156,0.32647317246172036,0.27830159840146645,552.2046808626126,517.9023647560456,486.78400600290473,sit
22.33722871452421,0.01336420493262322,0.007829817973825877,9.799849290867458,0.1396243736180106,0.44118734626951467,0.2178862502770064,466.1420265003375,468.19181107926977,406.17891239327014,sit
22.3873121869783,-0.0061523269101883965,0.009178525423216191,9.827647274964827,0.11608713389084156,-0.08606015793600198,0.3542745976358542,469.03724875673953,503.9994518499602,529.1612657902456,sit
22.437395659432386,-0.029712720274749582,0.0055109318254281114,9.79547160122811,-0.1501277801316439,0.07817085936802387,-0.41935571247317205,440.125631320887,482.0162097630395,528.3671296792253,sit
22.487479131886477,0.022896167018188238,-0.026705275854726457,9.776797953565483,0.0934014027638707,-0.2271299121474826,0.1282856858590343,450.4341871044291,499.7562484702174,426.0578574297175,sit
22.537562604340568,-0.05294597698714555,-0.0005290644136712874,9.811361975865642,0.15289346712679616,-0.2528969857450439,-0.3340170769854975,502.32492141024164,550.6160521115099,468.727516935976,sit
22.58764607679466,0.010416867877068609,-0.002941019483954088,9.818165287039482,0.5498405860755252,-0.027603313010773133,-0.26389386636632073,572.676776070795,425.23847874674124,455.76513994607825,sit
22.63772954924875,0.0007650016128100401,-0.024321067598455814,9.819931824456207,-0.19063847781162765,-0.016636885159743604,0.6644669837931708,454.73627084629874,517.7319101257573,491.5264906645946,sit
22.687813021702837,-0.011238507819310586,-0.011774811641088123,9.780723724329322,-0.31859243545620286,-0.0913005260985192,0.02938793333864122,412.0169785796883,556.4583873677698,507.88468135701504,sit
22.737896494156928,-0.006431403784347395,0.028949088494248973,9.756245972165315,-0.41412179884127226,0.29365368987991924,0.28612456404536707,531.9167084278857,498.98070065628724,548.503937235952,sit
22.78797996661102,0.027832953527349505,-0.008474140967784205,9.799574233404593,-0.07566657099026221,0.5948859416310207,0.026300217043771192,516.2631059054531,486.0429123385007,489.2502281296855,sit
22.83806343906511,-0.0016178362855138878,0.026171195942600894,9.809737098801818,0.24223889990267855,0.4425664485274856,0.01701426787538561,498.6019521292011,468.4588509702439,428.0185278078703,sit
22.8881469115192,0.010506317780398178,-0.024922117547232392,9.789756363120082,-0.5281040717506733,0.34511911066855727,-0.09124027866956597,511.45194793232366,528.2327046449676,534.6784043354314,sit
22.938230383973288,0.049263290262191214,-0.021883100286463175,9.804868698930855,-0.10278353316466513,-0.2541086368814657,0.22897727608227408,498.15437689513703,430.0602779143758,587.8581496656651,sit
22.98831385642738,0.014559624610216065,0.008780649341400826,9.827778887741704,-0.0207146553461824,0.10881286810786842,-0.3578785340527163,499.8999078892616,577.1414900504769,457.159730386873,sit
23.03839732888147,0.016523217885889577,-0.014251620743790189,9.819793731978406,-0.0760216592718357,0.17051080163032328,0.4300387401667528,544.313647750051,537.564000842249,487.0878985246447,sit
23.08848080133556,-0.024898141288181685,0.02052355679302542,9.794005406512925,-0.020752864414112414,0.3463389095081428,-0.007456628436707284,493.12842814974033,542.323226932094,458.2681525101995,sit
23.13856427378965,0.0003419034596187226,-0.0006590643415588168,9.801500867171429,-0.14109902040080016,0.10814854717631411,0.19786654018919828,590.525680227167,502.2601864805263,450.48606413495577,sit
23.18864774624374,0.02259741962337891,-0.010220420846477299,9.79081181749921,0.06794035118721888,-0.32888825877112615,-0.0667643937617509,492.3955712256028,473.93995379208235,519.9428717766508,sit
23.23873121869783,0.0035375360822184343,-0.023523803077190403,9.793043174848368,-0.16648341153065727,-0.031818932899024856,-0.06719164172312526,471.7650111654268,436.6848591459029,483.7903366603704,sit
23.28881469115192,-0.039302543673188875,0.0027180096255493766,9.813495828521352,0.08727698589954787,0.7526220072214387,-0.064358658416721,504.3958343851877,488.6905952911905,480.01478782444633,sit
23.33889816360601,0.005140267368992452,0.025631777375672536,9.786955979456904,0.23531443420581663,0.344737646311478,0.12394418052529325,529.4724700473798,557.3707913334392,470.6774073253747,sit
23.3889816360601,-0.04466587830567262,-0.00022892100125605774,9.787419004770092,0.37667598239187766,0.07046661980039318,-0.276874755049902,477.109463800219,540.488416483371,532.5945364490047,sit
23.439065108514193,0.022181694399816307,0.01543191688992307,9.791867512588768,-0.33129326698156397,0.00020030048959904955,0.16675196511423834,441.41362854157785,451.4873348714023,443.4458701364873,sit
23.48914858096828,-0.006417351645399208,-0.003390077743873912,9.8069561671013,-0.05888875830652687,-0.2925306044195844,-0.05592626024138042,557.549366029493,481.90767415834847,478.2303659635043,sit
23.53923205342237,0.002192882521418596,0.00041879661295714937,9.789209764804767,-0.02373984596055245,0.4115484469382469,-0.2364678122602591,526.4662026080721,493.8394994661289,490.63225548873277,sit
23.58931552587646,0.024625195266921765,-0.016102145866061082,9.778230006538212,-0.20111479592132026,0.1528096669473926,-0.20930660414982985,517.0631161631394,576.6406336665929,505.751556823341,sit
23.639398998330552,0.020414988034689996,-0.01637363310205464,9.795892784507302,-0.1789419810298378,-0.2032185904227437,-0.2861378801967621,557.3929712783263,457.5503177859485,508.8868035453351,sit
23.689482470784643,0.013978947513117207,-0.010906955514732364,9.822053603570293,-0.3113241938719639,0.04776922831482669,-0.1271798411643143,497.9164827867178,533.2660213268421,430.64342893033927,sit
23.73956594323873,0.019343487285384597,0.004313851499629352,9.821175488172859,0.13626193852298116,-0.2463670833830304,0.06274810802112643,473.3622887032409,508.4983489664677,540.2260129035087,sit
23.78964941569282,0.011296132061046363,-0.012841620352482416,9.798545706659754,-0.2281039150261895,-0.0796242888659954,0.006215450963478217,517.7592122111431,572.5338395070833,535.4076221535,sit
23.839732888146912,0.02068008713507906,0.006441093377048547,9.815223236732916,-0.5564787828857698,0.11852953623565292,0.1557266928840621,510.6053160045437,475.9736243510508,464.61498283023957,sit
23.889816360601003,0.008677819944065676,-0.02459535836932754,9.76137726983063,-0.0016375421861547495,-0.045309401207197106,0.1201852755850373,586.0740359708971,467.0396933857184,530.1485079756386,sit
23.939899833055094,0.02027193635327995,0.012434304483874628,9.815394521414868,-0.2273805441032301,0.24399020637106258,-0.1462668142172657,433.9452834255693,522.5776435487825,476.31964819207013,sit
23.98998330550918,0.008882895760733256,-0.00315237874951399,9.79237269729831,0.4591285508600467,0.4419537158634494,-0.18883094123731547,486.94202806511584,540.3972249579747,461.25020538251573,sit
24.040066777963272,0.009782337664298438,0.023511283875468192,9.818399289595554,0.11651074794739077,0.1368288592276896,0.3531283805016282,569.9838269518541,478.87955575291056,527.2203054904074,sit
24.090150250417363,-0.03730408827619352,0.010691603858308515,9.812162416020387,-0.15846955401406404,-0.11000393337741336,0.1250147670135294,473.38464396139756,480.0513209279452,502.1844198026554,sit
24.140233722871454,-0.010887752048581001,-0.0035971144293957674,9.81000996558264,-0.2325422267538135,-0.2895961623656466,-0.20902249709784054,465.51325351132914,489.29998623819915,481.60842044358554,sit
24.190317195325544,-0.01923826082224034,-0.003162159463982739,9.847439899594793,-0.3928954634886314,-0.004270338074696639,0.1973756874165225,482.5423291934884,525.60719613912,517.4829212885546,sit
24.24040066777963,-0.0032982390596143635,-0.008373920001033083,9.774942173521817,0.08583681288846268,0.11803808437186693,0.36491810977476874,476.0366496961017,468.89299394940684,539.0952240245905,sit
24.290484140233723,0.008618908080382709,0.028167865857195995,9.804315061717869,-0.2397341455561606,0.1828505027648187,-0.12625990051978223,512.7412812646791,466.6359888035039,481.5346161047567,sit
24.340567612687813,-0.00911079278529095,-0.02627724353326913,9.78012216595733,0.13747711265140314,-0.16841970374904414,0.10089609535365798,522.5120281712566,533.8323391661775,428.4274180672883,sit
24.390651085141904,0.005100034069409384,0.007848036520301041,9.80655408129725,0.08723838648157911,0.3195244683437606,-0.1384119541262599,540.6427523231,416.2707358443317,517.9240182407922,sit
24.440734557595995,-0.0023154084948687065,0.007867045909155476,9.80841011636288,-0.05110149231815668,-0.12182022318564198,0.07875991181864657,491.21535271906635,565.9536864268264,495.01040940740023,sit
24.490818030050082,-0.001341573614636632,0.022171484688230193,9.813893807695992,0.031170760846989075,0.13062296768646153,-0.24765577902985447,513.2089337923334,469.9441740890877,508.7517130348244,sit
24.540901502504173,-0.010576879977293105,0.007013367679737953,9.756549035502063,0.5384328409162525,0.19158134846963784,-0.10994586217201686,479.87058847717833,508.84544410248566,564.9047155319315,sit
24.590984974958264,-0.0022891803273499683,-0.014278132066030402,9.804352004395053,-0.040721527015860286,0.3020660423032299,0.24890425690020068,480.0419574848424,476.3875467399745,543.2655577434878,sit
24.641068447412355,-0.03531509318788039,0.021403602341021816,9.7949534116909,-0.037525915423036925,-0.04061083464828217,-0.4454905170476642,502.30369858754335,496.8730662688494,446.7394351853431,sit
24.691151919866446,-0.0017593666301680133,0.0012576635348758303,9.855233145287151,0.0727950058107364,-0.12437521823857219,-0.13801376081051425,520.9501806798094,519.7375190665564,471.02957824040243,sit
24.741235392320533,-0.020655580404636872,0.01578619020085297,9.763329557503736,0.12520651181837256,-0.26900299757615564,-0.14577458295965867,444.63679379833155,506.0932662963054,504.00139447330355,sit
24.791318864774624,0.00218813965966283,0.019276272797929872,9.823390655013034,-0.18424281275819754,0.3901418845691811,0.31459629864502947,453.0758669180654,579.3499561219533,476.39755683179214,sit
24.841402337228715,-0.01429710109500873,-0.001837888133242191,9.785233872918864,0.19969094488604008,-0.15356440021093423,-0.32774852338821336,482.2225140671991,460.8131705202023,477.12471825901093,sit
24.891485809682806,-0.0007746491917953041,-0.015572026814222859,9.804654532705893,0.3822560236502312,-0.15242203052837344,0.34079525649607983,494.6689414561643,533.5421721377674,539.4771818276234,sit
24.941569282136896,-0.011220670020851267,-1.685389297984008e-06,9.826709915273923,-0.19286327772136788,-0.37386810292228884,-0.016636341390535186,521.7892216686818,493.87479104111173,591.175333029048,sit
24.991652754590987,0.02554406354295928,-0.020468159363946636,9.80837442336993,0.15028957059386133,0.17983399182792184,0.24269194042387374,486.6257965963104,477.15261812169547,462.5564888203785,sit
25.041736227045075,0.021595735420918485,0.02432524604262845,9.79188031472351,0.10428481154881737,0.16354661169439555,0.30743699443583905,460.51167734094213,495.00195089789185,489.0098023501294,sit
25.091819699499165,0.012464058510464365,-0.013425242483124641,9.803857693374484,0.13818255273495667,-0.025274804665629667,0.1480429668860832,445.94543899887697,474.0107939313081,486.24285465976635,sit
25.141903171953256,0.025800717185866545,-0.0009319138257389767,9.798764494120444,-0.30103839656184733,-0.19855129690529186,0.16438269534250619,523.0779123369036,545.3363668775428,550.0084343702197,sit
25.191986644407347,-0.00964925844131545,0.011767986291430464,9.806864269532229,-0.11383774071938142,-0.41226268555198387,-0.18012407038020978,493.2892836201634,578.2514692222818,471.1590155803391,sit
25.242070116861438,-0.00020545185541621935,-0.012367442177874347,9.82950551099996,0.320086004288169,0.10335367445643551,-0.026087612630494875,584.3909478242039,540.7305379045548,457.4581190457567,sit
25.292153589315525,-0.004300734618773783,0.01907085806506545,9.864921565018854,-0.1489745918460535,-0.04001415277807038,0.3912810341764337,550.6860672512825,480.88653751132085,513.2927849376887,sit
25.342237061769616,0.006739173785515862,0.009949564323160201,9.755914940558565,0.035839365927060954,-0.5630313943981501,-0.3410651486968189,490.1405814299236,503.0053414973882,483.91277446006694,sit
25.392320534223707,-0.003274286290479128,-0.011920957332088172,9.776290097210405,0.013950430067534013,-0.07678921930804612,0.13894997096731868,503.11150297012347,495.14963004844464,477.8275076270599,sit
25.442404006677798,-0.003222899660313014,-0.009101710154161488,9.772712779689943,0.04876828755095803,-0.40117307633324567,-0.1300026272127939,413.1133334437801,540.8534095160412,458.6446180872891,sit
25.49248747913189,0.0011650069757008913,0.04466877562289368,9.79703758978246,-0.15409180725382995,0.15039366324970763,-0.04223382838645165,469.09866135668875,469.53386007778107,460.10641495321073,sit
25.542570951585976,-0.004983518659666286,-0.0008686470774362451,9.812326440307787,-0.1560574362354243,0.03372799878669918,0.3651034232194816,512.9992874711681,445.9082954893662,527.6907576877271,sit
25.592654424040067,0.024805181924304018,0.019939424339669456,9.809487735262294,0.3921577302288186,0.09116365050208901,0.28088534208885446,506.4695943837925,583.8635325448224,494.9398814440269,sit
25.642737896494157,-0.0101532251637865,0.011259133947611404,9.822148396488325,-0.04145184453795313,0.30348541358821957,-0.41411689890359565,521.9622503600463,497.87065152540765,450.3812998059857,sit
25.69282136894825,-0.001623630904426368,0.029363776399057986,9.820598084248344,-0.5979123255959008,0.10279233973042273,-0.10732646722617789,504.2491689863532,462.8712974233087,504.6625568982818,sit
25.74290484140234,-0.017103078132084767,0.018093783817158524,9.769125328573828,-0.28524040615880397,-0.24834027253250895,-0.03631370413803132,444.74497777061754,485.88168889462116,469.18537183173794,sit
25.792988313856426,0.027668063691899503,0.004766066600115727,9.805170094699234,0.030934436953951337,-0.4278922303457703,0.23723812649559373,543.8853661930382,447.99938843435604,565.0780898581768,sit
25.843071786310517,0.02659508294193809,-0.010409985911141839,9.800179188061358,-0.24000619463556785,0.3128258430684254,0.20571827774926077,443.00922397996686,485.8685218355456,538.637001364827,sit
25.893155258764608,-0.01361066568299911,-0.0034078502000255834,9.752241126674674,0.22657929308116007,-0.06662460868860691,0.04232526032202939,461.8734655714279,542.6839680061871,475.43764717433436,sit
25.9432387312187,-0.009775682807071848,0.01134556749200747,9.81090991055893,0.06468868154430825,0.45039597474323473,0.22294933588034135,520.2521110740579,501.070411207969,478.68155077510244,sit
25.99332220367279,-0.03352933016825218,0.01230957759223271,9.782133998395203,-0.04860233735866122,-0.28134197547828216,-0.5236240963596922,456.3775059696147,480.5905928217799,503.19061010596647,sit
26.043405676126877,-0.04186857974814287,0.016189704923054965,9.767857134941078,0.4459110405421714,0.006921708848527994,0.38032167858703986,476.86408856523724,458.0724750385062,530.8023287762228,sit
26.093489148580968,-0.008301671493476478,-0.02419689795185548,9.822266167229916,-0.19014664752798627,-0.2749482162915627,0.09031787382124708,488.64268558035883,495.1282855902131,503.555292946593,sit
26.14357262103506,-0.013577308289475717,0.009970894856872824,9.827717373027353,0.22781609098254438,-0.26673913839719837,0.19347868792700013,466.17209205074096,504.97334738674397,522.9300546383198,sit
26.19365609348915,0.0051622398309683765,0.034155485462603836,9.80726317543754,0.4797519950372791,0.3235367379692355,-0.01304702404374514,489.3117821391147,456.0865554126447,526.3895348643322,sit
26.24373956594324,-0.009357038829842027,-0.01827951148067103,9.825786284287881,-0.16900128574563092,-0.2161289290332833,0.21513625584594515,483.4084477528601,482.9530217060154,481.53312420645904,sit
26.293823038397328,0.026378076902600897,-0.03612677677786599,9.799785745417836,-0.22692161348736586,0.2554408781985679,-0.0019295904073960686,479.3937147146342,551.2187440279432,552.3174764856344,sit
26.34390651085142,-0.0345125109829259,-0.01200974926685075,9.832605196487824,-0.24371050602653274,0.46436625013227834,0.21341813142446409,522.0404921265875,484.35105648852914,564.5474738427068,sit
26.39398998330551,0.010995641818984686,0.005923064071130413,9.794542560353447,0.018861046155350277,0.10958704097102624,0.07314970485198731,580.8475981858957,516.3149188105039,532.9918810891685,sit
26.4440734557596,-0.027626844785871185,-0.012215742942647184,9.81731592848067,0.2894253185327444,-0.12511185790935409,0.23461805492153445,495.1089312552843,552.5439900993558,492.73621569081087,sit
26.49415692821369,0.008771060400615316,0.010426733236878157,9.761153147472811,-0.05279036404544154,0.18820773080160716,0.009859486005679064,402.3941939987803,461.565985964971,537.7361610228108,sit
26.544240400667782,0.015178974067450071,-0.019685199289759855,9.818528070671434,-0.012417006431360003,0.35217941617810733,0.7454333240346599,453.4888691722183,482.116956041578,494.9131975500267,sit
26.59432387312187,-0.005695774576584753,0.014240595922915253,9.763477039140806,-0.17934664512082196,-0.1664570481601547,-0.24701800076492417,450.57368587001145,527.5415294629545,467.5842056553688,sit
26.64440734557596,-0.013242307677778689,0.024244423787902925,9.82138154621752,-0.3646447913237977,-0.10308383740748056,0.47142965117495356,476.8187856766118,520.3596845173155,569.4629437970704,sit
26.69449081803005,0.03804207673076877,-0.007360200276066459,9.804300873901163,0.3979338332997807,0.5595863829957053,0.30937275757805904,468.91333023680767,474.7989693008097,495.98265462630206,sit
26.74457429048414,0.007974091342422218,0.014821569263479814,9.813387813718233,0.4331342425347538,-0.29103306220567204,0.3003000495553377,551.2982272761341,528.0171689743768,420.55943816455664,sit
26.794657762938233,-0.01573292928589333,0.023071463750931068,9.814417555213534,-0.09177776856449281,0.17044327014885802,-0.08318240498257484,490.36791801366417,467.865808046502,428.8535822817961,sit
26.84474123539232,0.012776115470050517,0.01528675465087595,9.792221326585091,0.0799965286907077,0.23830696588946151,0.2511917969329836,435.1994490589698,479.19505123039744,413.97118013540285,sit
26.89482470784641,-0.0200374304274087,-0.03158893829093072,9.835344291412058,0.1958992690938095,0.08175152517832002,-0.24578986549310272,476.661705846855,565.5439416017414,489.13567883264034,sit
26.9449081803005,-0.0028940701876051106,-0.007939794968865904,9.814905218670937,-0.08904855667774364,-0.06002963708364845,0.33069166615180035,453.3708558560502,509.6480323011028,508.61996296384353,sit
26.994991652754592,-0.004969417104714685,-0.017306933851484074,9.811052487781499,0.11591520962723104,-0.2731012231593199,-0.15673220394789494,471.23887986461347,488.3615366736576,514.7281802316578,sit
27.045075125208683,0.03424198427619886,-0.005950585226589783,9.781756464167296,0.2768792214056535,-0.17801992028162036,0.14178308268603548,491.1700984338067,530.6397536471903,542.9907287861885,sit
27.09515859766277,-0.002939482529386153,-0.017354966226819354,9.742519302658025,-0.09363788773147191,0.37462366918461654,0.08898439585342463,550.4755370851764,554.9699092413096,494.9263351592935,sit
27.14524207011686,-0.029511739257055136,0.013876913648469866,9.779229149115395,-0.22986010539075,0.02674291081110382,-0.46333037118986237,503.00879838239666,499.92088528704215,516.0227412053997,sit
27.195325542570952,-0.019621348844203607,0.03908474684390361,9.83038832171813,0.004492701913495371,-0.4000420445159751,0.13705129128601562,497.0178236418931,448.2914201765886,586.1224774890848,sit
27.245409015025043,0.0313832093582133,0.001848557042007773,9.792776914069883,-0.4723633222163675,-0.09763544664559151,-0.24733234738809717,539.1972562323305,570.8693793175969,631.9696835855228,sit
27.295492487479134,0.03777830387009151,-0.03612653807308107,9.775456889380534,-0.06255915326181853,-0.35634187751496693,-0.26709222263839755,507.1485383294728,461.22998740050224,517.638626632761,sit
27.34557595993322,-0.02143094186361858,-0.0028131757324380557,9.81350930217651,0.010921856657162714,-0.037985451146523526,-0.33747127233016766,505.356038803212,472.1733881166077,527.9169516038013,sit
27.395659432387312,0.016678569811963986,-0.010947161681027856,9.800033374805961,0.3005817157287954,-0.2715835145247463,-0.3240119792242899,536.4038986922991,492.8612563475103,515.9714146483898,sit
27.445742904841403,0.0061900814020759976,0.03397490414807,9.847637624513688,0.18173516409409377,-0.5360169944858155,-0.22491615384603317,563.6768779703887,527.1642870154785,526.5475231839271,sit
27.495826377295494,-0.007786254498975145,-0.030053321661944257,9.79203366709571,0.40166607346363115,-0.01621645551194794,-0.2031860240375746,436.7389545362647,492.7124690760693,513.6566564479344,sit
27.545909849749584,-0.021940513909549604,0.002681155874788288,9.796865789003508,-0.5777571464150595,-0.1504793435930225,-0.13565605883826656,554.4747816163919,491.26179035822435,490.26124753195404,sit
27.59599332220367,0.03307298186645219,0.014698574049630216,9.803517544257367,-0.07654599347563357,0.04461643044702031,0.18445527632995287,540.7330219017072,466.79848338209047,453.02340086798137,sit
27.646076794657763,0.013282973550048524,0.013095635282396934,9.785442276676713,-0.16644480896025737,0.2347331003867299,0.1698723192292794,535.8215633008105,495.5848779735858,490.63511633359457,sit
27.696160267111853,-0.013652621677354274,0.007614860238429555,9.775477372171135,-0.07810761112665977,-0.23897524426720612,0.17579871832476077,513.8395428592079,462.29957172607345,480.45643627681994,sit
27.746243739565944,0.0001969264157935524,0.018126234573291697,9.780376990755967,0.2225684253823916,-0.3487761076881925,-0.03273468545819525,509.73338752839584,462.9343958533615,490.56366010113055,sit
27.796327212020035,-0.041548937949696454,0.002526182818807239,9.795218386580492,0.10451838304697442,-0.028623395138961893,-0.19914360713143345,517.8034137767331,552.2771154698069,455.57396546474206,sit
27.846410684474122,0.0037124748559038273,-0.005996805712827374,9.821749544824728,-0.014590865934228852,-0.4451117592820427,-0.0376942646345614,466.54203175196824,539.5364158253306,541.6292736102905,sit
27.896494156928213,0.01906184927248797,0.022098737463684612,9.813991246636004,-0.3258246046236477,-0.38759245043123475,0.100433202535569,446.8134590810164,521.1749410447783,472.7871093640793,sit
27.946577629382304,-0.015694270288693024,0.00296854884854849,9.800354029077997,-0.29484216742711744,-0.27441316331020543,0.05985999686542062,445.1341666479491,491.0484803866555,496.8476373985995,sit
27.996661101836395,-0.018434262326033263,-0.010873758713481813,9.813398606685729,-0.2297024556616901,0.19218179975156843,0.1778284773162567,430.5513121881814,522.064763393455,481.686938455618,sit
28.046744574290486,-0.0222978298347207,0.03015595151276346,9.81316191496379,0.09121153787764053,0.17048503697546877,-0.23381103180362692,465.5248765588348,470.69551594693905,457.5234402678523,sit
28.096828046744577,-0.003506185967258005,-0.001861999030896573,9.78503749074359,0.24401098193453472,-0.20698165654348302,0.06373346644020879,514.195221533917,464.8773531745915,500.8868459741235,sit
28.146911519198664,-0.007585136845953633,-0.012367923546995452,9.818522727827654,0.0278297852275564,-0.3459775566079013,-0.16791911149333918,521.7853967277902,458.60982548090794,434.2044635692982,sit
28.196994991652755,-0.01207520674419535,0.009805068682202156,9.77222296695826,0.5797564555424695,-0.035804716041265824,0.09366117465304721,570.5532681890569,448.19445564699356,514.3501763266681,sit
28.247078464106846,0.01399204763970921,0.004751440644665997,9.815037366680109,-0.018665435542201837,0.00427931761811222,-0.34315570639532544,499.2365238269957,482.1734057728501,547.6369600271792,sit
28.297161936560936,0.017043453451169324,0.009165844646602209,9.800003650798656,-0.010373807158219088,0.0391632342914623,0.09517158111063453,479.1633771613172,517.2835156598801,527.0269900687493,sit
28.347245409015027,0.013294355259635751,-0.027079987950100193,9.778672332402246,0.286614408178357,0.09988651192024582,0.5079784888106513,549.8922193628397,475.03849747463227,541.8126210531701,sit
28.397328881469114,-0.017673341159952227,-0.0017723659608476147,9.798135232649482,-0.20086139941991324,-0.30666866912507706,0.06727285168517028,554.0785777031996,480.02226500833393,428.52424234357267,sit
28.447412353923205,0.02571369511635134,-0.0016624957833907134,9.785236603922481,-0.14175276700201367,-0.12600738734059194,-0.0572292616269101,481.3796935454034,574.4572855579146,473.00420790179163,sit
28.497495826377296,-0.019397471392411852,0.01722084601602885,9.82541682419514,-0.12860223650322034,0.2862283368269368,0.3825553942163683,467.75125054623203,478.7692342043924,437.9753413329774,sit
28.547579298831387,-0.02278560289943067,0.014797621032356198,9.768318010300067,0.13471164800270713,0.0742433691750146,-0.033830943274400116,490.1902454656884,554.4033254407344,474.989126696818,sit
28.597662771285478,0.005119609378977111,-0.0031926317997998943,9.820677973404289,0.19803167094728732,0.07906156980132549,-0.014890428368562171,448.35400597736225,516.1665468681059,513.8137263587095,sit
28.647746243739565,0.0261874078003001,0.015891498895354017,9.76359068053474,-0.7131098258951097,0.2940077785349968,0.0375249062264309,401.1233703309105,385.35628676437796,539.0823667848699,sit
28.697829716193656,-0.025174721467689176,0.020585329039692228,9.798576130672817,-0.5472277341168602,-0.199350696808883,-0.01837826790744012,506.38132150652507,550.4790783907216,500.7962274087318,sit
28.747913188647747,0.00011851683985811268,0.027517012302685308,9.831661440816768,-0.07448989580567751,0.18440527501432014,-0.3053163363314037,523.4956901138498,455.92330040253626,435.897519670591,sit
28.797996661101838,0.03308588301074698,-0.0168395632011544,9.798459376868578,-0.1266465988812122,-0.47332939829423154,-0.04376357567248681,493.7318652205747,459.58904150356864,460.0661927517135,sit
28.84808013355593,0.0077968592308061,-0.008317914082853553,9.82144831755321,0.5336110095634446,0.08702000729426411,-0.062086959219611694,490.19746280994457,496.6912921579198,467.8912801012507,sit
28.898163606010016,-0.030807692450738236,-0.023311254492475217,9.791991466263065,-0.04739651616276268,0.21333134013546326,-0.3060898792771031,494.67499719148464,510.51674948843254,482.08601201094166,sit
28.948247078464107,-0.0011713986855052677,0.0017824237169589072,9.829743586893159,-0.016535967867698398,-0.08905232154731602,0.34493392426655106,555.687525448028,492.7227406420648,412.8073399099954,sit
28.998330550918197,-0.017437551908402196,-0.011770060241839783,9.803375171703681,-0.1362492753030286,0.03445304427645609,-0.23612670558410956,487.4435702061591,525.4762115552116,509.82296579075177,sit
29.04841402337229,-0.01695389788562246,-0.004907696389094052,9.824228656733377,-0.4090921151071875,-0.1824955951943674,-0.3632457447192949,541.9427640093949,487.8880149919676,484.8997897270096,sit
29.09849749582638,0.019620631612906475,0.031644829836851594,9.804141797003522,-0.11985050689936483,0.7355009034171649,-0.00454474328697854,471.9598922858928,563.550668976949,548.7665250505706,sit
29.148580968280466,0.003088121820959522,-0.010310491735869093,9.800933099999439,0.4073966398463325,0.36682089632005754,0.14340369980862566,492.6067111709674,538.6057807616372,473.6131603481235,sit
29.198664440734557,-0.0033190991751463755,-0.026760656698244067,9.803953686363641,0.05158149052948162,0.24600906802800918,-0.11472530083762802,514.3788514210836,509.29410188362766,524.9629596543258,sit
29.248747913188648,0.01815497420471443,6.422309650842145e-05,9.837149975448442,-0.22569447682731703,0.19479689340081485,-0.11864668038678071,541.4625358359267,483.2636613698657,506.9507564950075,sit
29.29883138564274,0.011370069439159483,0.02895510293053241,9.804646126879161,-0.36254206768985053,-0.0726712766941425,-0.2828775298031981,489.38626237702005,466.2450027714227,474.6221618969013,sit
29.34891485809683,-0.00387458416150592,0.010362702728724603,9.793839885752936,0.004309990512723238,0.04114174348926075,0.1436228931079732,524.7507239503522,519.1826999932749,515.0263870846879,sit
29.398998330550917,-0.0037183722941741826,-0.007575796621926881,9.833735394576333,-0.060859517384209874,-0.2188779346003766,0.3180688652014527,496.35440018472633,576.5339250706253,479.7514610403514,sit
29.449081803005008,-0.011124568329601,0.04762355317938328,9.789128126802943,0.14220511169490246,0.2844877266183493,-0.2341176037273428,427.95814905571143,545.7096724649844,520.0859038535433,sit
29.4991652754591,0.0001677259900626782,0.01675113941664877,9.82380305988858,-0.3952779412164095,-0.19952700969164694,-0.034779992558987595,529.3478584936365,514.9718381390522,519.5069514944854,sit
29.54924874791319,0.011581298927292455,-0.02199177410534124,9.798167060667273,0.014616115394505635,-0.10774815218938145,0.11856038823104866,538.7331602411095,493.7283689063264,482.96827762336426,sit
29.59933222036728,0.024990786639720278,-0.04870377248691116,9.822355336358271,0.11366881643849439,0.18031147520494983,-0.10323777010832398,507.11830643330137,479.9408380153852,577.2481341903708,sit
29.64941569282137,0.0033803754142816694,-0.005469745818119112,9.837031252818536,0.16945946369148412,0.14047535448754106,-0.3931635223601135,497.97240107481747,626.7722027246261,541.1515399793612,sit
29.69949916527546,-0.004886870123673462,-0.003076374357198902,9.837331264054693,0.15451436619019893,-0.003959767686194793,-0.1880832709947076,406.62878234066415,480.6394918526495,412.0968304070698,sit
29.74958263772955,0.024591038583130748,0.008157059932420933,9.791235342399261,0.16483504778657054,-0.3320818754743258,-0.12039146936406629,473.92859900162284,617.8186495438036,500.29796352340554,sit
29.79966611018364,-0.03129298353834583,-0.010380265136029243,9.806918580290166,-0.11543807014596753,0.09622144058233476,0.21481373150697222,486.674621064337,546.0996188438767,510.1046148553896,sit
29.84974958263773,-0.018773431087973927,0.004427289121840254,9.772185769216904,-0.019637458440361525,0.05300843080564922,0.11193234119572833,465.86199784417454,507.516636722169,563.6604490268484,sit
29.899833055091822,0.017619304074111677,-0.006415065661840205,9.817745308123161,-0.223214601197067,-0.18461461045793034,0.4736409688603179,445.6717983923457,535.5104818889068,466.2633991334671,sit
29.94991652754591,0.02132098802981064,0.006238661982549049,9.790977800833373,0.05404590416226246,0.014104415721233192,-0.0627783794984057,456.16421983652765,491.35988394927335,531.771592232247,sit
30.0,-0.003253859428604386,-0.0011832546489009763,9.799101591567164,0.2108767182236282,0.1261749022193898,-0.1236859308901274,483.6488964365611,533.1513252940103,469.4110672081757,sit
