timestamp,ax,ay,az,gx,gy,gz,mx,my,mz,label
0.0,0.07947283588673971,0.2874504185112836,11.358676680184157,0.9932532859020251,-0.16406801023921525,0.0057901491293710725,511.4941455683811,494.58589054566994,449.0727493561433,upstairs
0.05008347245409015,0.6312985292172373,0.6810144830400957,11.549858898483523,1.8146747259058476,-0.6261461077908934,1.3499520131871028,414.41912198287207,576.9666249184515,414.2874206893935,upstairs
0.1001669449081803,1.0425262517099987,0.7133127036402991,11.31241965386075,-0.05699016715191587,-0.4360756104186916,0.6662323513266977,477.2823661514804,443.3258555682469,549.8006197222749,upstairs
0.15025041736227046,0.8983019965558311,0.8095106304566861,10.975678212792603,-1.4171307898187293,0.3297328599382191,-0.8530185918993399,460.61895577088853,483.4254066619442,509.7617077289435,upstairs
0.2003338898163606,0.7374072296803802,0.3973705027050542,10.092555054557586,0.754356773210962,-1.27926935665231,0.7284451622308665,540.5617977102709,472.72439750744553,529.6403500731083,upstairs
0.25041736227045075,0.33285420465375803,0.11318594861255006,9.126147723871096,-0.33498524399288204,-0.8408427192244451,0.05566545911768925,485.0138687987545,544.0463581046785,503.433195824563,upstairs
0.3005008347245409,-0.036594994489371147,0.019628621267837043,8.784707769336062,-0.15101152462955575,-0.6902492620636339,0.25185260093380935,485.3517601044494,464.75762730121045,522.1666648301889,upstairs
0.35058430717863104,-0.3009647976035229,-0.42773170847667036,8.670486720898413,-0.17486377142912649,-0.28112620915605097,-1.5287406116250724,517.6190426239942,549.0616967906653,505.9748686149625,upstairs
0.4006677796327212,-0.49364175861229137,-0.7690124544705843,8.103986717799945,0.2319565415296199,0.6212539065938231,0.5733509747207226,521.6275733702203,484.94414010401965,426.22267596070526,upstairs
0.4507512520868114,-1.180743882113022,-0.8746627685580599,8.528084659434848,0.42295790341144096,-0.08367266502623741,1.7879558678206746,509.35348218498063,484.6941772324759,494.3795947174099,upstairs
0.5008347245409015,-0.5918007391746353,-0.6340054151854,9.255298486968469,-0.144236800877263,0.370804717322978,-0.381941500512481,434.73095056069945,543.5760806191404,473.83516339682393,upstairs
0.5509181969949917,-0.7334737693012289,-0.2130175604446854,9.87004310228314,0.2639160576609708,0.07669918822933817,-1.0208859096365068,527.3690053067254,525.9666439558321,437.0702074020083,upstairs
0.6010016694490818,-0.4950056582847915,0.2242125574435631,10.775267952106725,-0.4960348227128829,-0.49957795683832623,0.287314599834804,530.0559433010133,480.4364615850233,448.26077395542114,upstairs
0.651085141903172,0.3202501402046689,0.605458481340494,11.090574251701437,0.7012093123230719,0.1972391757638739,0.19304352163494248,590.8480310397911,439.66386919348685,492.80099137391807,upstairs
0.7011686143572621,0.8089706424135965,0.4166121268972929,11.353481858124567,-0.5649377306544409,0.39459354140069386,0.7924897979490011,544.9380998011782,443.9305421006363,564.3780076437434,upstairs
0.7512520868113522,0.7708410897212705,0.39582401711438936,11.555020453368758,1.463424332420249,-0.5852034036728786,0.9678897234877402,510.9823224370986,481.0693014052196,518.666740139673,upstairs
0.8013355592654424,1.0711087404314126,0.43205806148800446,10.677241859054233,-0.622615381139581,-0.3162301472524632,-0.3755100454101205,470.27754778010734,555.3306904911684,519.5758868762736,upstairs
0.8514190317195326,0.9615994896538581,0.23424616557680492,9.652582836687019,-0.6576343031512499,0.4900703956154175,-0.09321420478693387,465.43865064204635,519.0017958428408,423.6678707021203,upstairs
0.9015025041736228,0.3207971871477234,-0.3064833942354007,9.086033960035184,0.3817290995363323,0.8437300661298647,0.3363783890173178,437.0704315782281,475.7050856876707,514.6680625959459,upstairs
0.9515859766277128,-0.03625647276083005,-0.2508936649120985,8.595642872947408,0.21797153084285167,0.11994901679605856,0.16318104369071978,492.3972900986126,526.3904306537237,505.3995439137899,upstairs
1.001669449081803,-0.4418019197033642,-0.5727166866981876,8.219226298627005,0.8805249062201096,0.6067968852279821,-0.1435906302294949,545.9164315688421,523.8427494797365,612.947429416055,upstairs
1.0517529215358932,-0.9697202138798067,-0.5895097966565601,8.485767395774271,0.1722824792450778,-0.037652274181905844,0.5366018644262631,577.441832384575,541.0811509014152,499.9876934433493,upstairs
1.1018363939899833,-1.16052827592724,-0.8771226213697005,8.867405591768385,0.5088274684997236,0.44503151802445745,-0.7429029176820445,542.4002181296593,478.6158499734688,487.8733134090785,upstairs
1.1519198664440735,-0.9090553927111894,-0.4380385524892254,9.741650303747136,0.4791211512324834,0.7509978030286477,0.4353987137877997,546.4160636610468,541.6999330469135,543.523543457612,upstairs
1.2020033388981637,-0.648455989016945,0.13750660878666066,10.30385715310282,0.6453705115853092,-0.18251839711098441,0.34343556000651143,500.20677486684656,533.6156740040695,512.8630198097552,upstairs
1.2520868113522539,0.4496595127076954,0.9529718755045979,10.910125338451087,0.5143690077232157,1.587265410604567,-0.4418414016395233,525.5328033272027,493.5721442262876,469.2867226573709,upstairs
1.302170283806344,0.3117018830989387,0.30934304324175727,10.86358983923807,-0.2906917367302832,0.14145224430052622,0.1358477334987797,445.1045584085992,496.92047004948574,519.8546895488305,upstairs
1.352253756260434,0.9417057924015232,0.8913882917832923,11.191835962249028,0.2479251261021967,0.05681704465347763,0.057082285230998064,486.97933721860153,502.319787181939,521.5412753220285,upstairs
1.4023372287145242,0.6169755879250488,0.23292461342714899,10.94908987101822,-0.2672526132315393,-1.0216321713682162,-0.0818830352204381,484.61374897776705,454.75411931414226,489.7661822839891,upstairs
1.4524207011686143,0.9193553821492875,0.441126081035643,10.39409698191042,0.22108516383868113,0.13424013109353036,0.28701388555390533,473.00692959242235,465.44699221994927,506.72721147066056,upstairs
1.5025041736227045,0.6590775732443941,0.30721368232053703,8.980901325423067,0.4284626901894036,1.5982060131161775,-0.7580727494883481,519.3711331578513,574.8717660281576,539.2775268367396,upstairs
1.5525876460767947,0.07890123892067764,-0.08743429869528882,8.72918225978589,1.1719928957523085,-0.41478975980527527,-0.41314455584120613,503.5868916359831,538.7301883089665,551.5849524742423,upstairs
1.6026711185308848,-0.6140852387133161,-0.5438325907253758,8.49800211792951,-0.423293838614617,0.8913289244965382,-0.06698662488368841,553.9650278654378,499.7522247295829,458.8259583912411,upstairs
1.652754590984975,-0.8100263839080797,-0.7533360140880652,7.8245794020233115,0.8199622832237328,-0.47747983212964573,1.4830155349152447,485.564844561812,507.49149341732686,466.97142682928876,upstairs
1.7028380634390652,-0.670969893165642,-0.27289750848506134,8.388483784246308,-0.029305178483340615,0.10108971456833801,0.3410753993492718,490.0808420222622,511.43209985608735,515.3952234193345,upstairs
1.7529215358931554,-0.8909801691040559,-0.3650707287427628,9.540128506422272,0.4122808196035588,-0.6613621171863023,0.32680720879623615,479.2768923831763,534.8797490101396,540.9267422866425,upstairs
1.8030050083472455,-0.4293301489127773,-0.16383521176664653,9.762344415911176,0.39956875973997513,-0.7006324854783355,0.04126314257242298,487.32795057647166,483.3304998458388,502.69966288841647,upstairs
1.8530884808013357,-0.15669361163909648,0.0698386489479175,11.113021473417056,-0.21714564331217961,0.10672917958681136,-0.4139870568420708,508.0626077124576,473.8547367524378,470.6815905858703,upstairs
1.9031719532554257,0.25349849798029944,0.42735859580966556,11.254267931635848,0.6471498946701807,-0.42546176936070823,-0.5421058074548414,470.7382118964728,478.7392625814962,504.4409372038388,upstairs
1.9532554257095158,0.8276844861207239,0.695760908702771,11.176517104015867,1.9260409304243271,0.3065408079074804,0.34325066500705703,537.0429606521529,505.4270311600732,467.28716197766266,upstairs
2.003338898163606,0.7816582122633916,0.8300053758396402,11.260993665695288,-0.1688390738447055,-0.42829991748131985,0.3867161030331748,460.90306098400504,515.2784637195549,490.33037538971473,upstairs
2.0534223706176964,1.145606482574733,0.54645234311062,10.685742717095057,1.2780913904529883,-0.14360143413981266,-0.004730840318613295,479.675117582905,499.3977222519345,539.7180962633485,upstairs
2.1035058430717863,1.0437771051759268,0.3536148654532026,9.781243542885319,0.8262567447600223,0.15959991958431666,-0.5379466865565545,465.9722577326733,515.5940712285911,552.8797887894173,upstairs
2.1535893155258763,0.7130091213934435,-0.2797508221894859,9.004538634723376,1.2746210121345591,-0.056853876459731986,-0.5439455891969461,499.78200762366146,491.1793112493223,526.3266069800078,upstairs
2.2036727879799667,-0.39075311597853646,-0.33912384031978304,8.27038580139623,-0.7935447898926896,-1.4378389583498343,0.21832441402439892,535.5797541495973,493.10176408148095,434.2784024499466,upstairs
2.2537562604340566,-0.630236009320354,-0.5744674004395558,8.602472448400288,0.3419572963009666,-0.32027943024020694,1.3868976758531428,524.1008383830457,556.9206258406057,496.70041063469483,upstairs
2.303839732888147,-0.8944779575121271,-0.9616828471817043,8.357261372718572,0.5278288059356613,0.02721772676576846,0.2330939136617032,486.31482417721884,463.02385994066964,531.2554526567519,upstairs
2.353923205342237,-1.2435073917480994,-0.9308922104073822,8.934382742655718,0.43678063343011286,0.5409148004794917,-0.9916328976938115,466.3944382679797,504.8357073531969,418.23156906721937,upstairs
2.4040066777963274,-0.9369366257402967,-0.05709809193930515,9.355125738609427,1.135331361237985,1.3778264496135617,-0.6348513800678871,492.49109575777254,468.43554101219314,485.4838968497765,upstairs
2.4540901502504173,-0.568322875332576,-0.009116758762097402,10.343088195917916,-0.16966100020501196,-0.2758437651909161,0.6964933853648635,428.76813828032624,473.7954584609357,580.2566604968608,upstairs
2.5041736227045077,0.228619915368246,0.41551555191022055,11.228540436108023,0.005183421790135156,-0.30598793879024844,-0.10777579493331832,526.3549891190464,452.1214411776869,440.2806290778111,upstairs
2.5542570951585977,0.36742342606647027,0.6209440431346658,11.348137571517901,-0.17887926479178076,0.532317245654626,-0.49023103890331865,582.4698959979792,436.4733391112177,521.6108290520305,upstairs
2.604340567612688,1.1138482419549278,0.6420059907370428,11.207722311267176,0.8640646869205274,-0.1526095809884132,-1.4109425292452484,491.0321392937436,513.2246265082106,480.38996051785523,upstairs
2.654424040066778,1.0000222160931607,0.27733506390021,10.443162742948376,-0.6728694726046092,-0.32175228431224007,1.6342723966778119,519.3609075689982,532.5505001135097,493.4696735091695,upstairs
2.704507512520868,1.0184068233208254,0.19326516279504427,10.079234254460411,0.24620179812648565,-0.06486452079911875,0.12854428111726407,493.83350998897623,504.4257692227663,495.72097123154424,upstairs
2.7545909849749584,0.6124638240072995,0.21914510613308338,9.330090395510371,-0.7423045435435917,0.5945951404199901,-0.4635293652574919,523.056926139242,434.43635356675696,518.4640044865063,upstairs
2.8046744574290483,-0.14391343525270683,-0.4761717685437548,8.368888359688025,-0.22192785449003752,-1.3639636940729651,-0.4915821688853392,542.9831293079856,562.6744576123778,507.7814740958197,upstairs
2.8547579298831387,-0.4087771792894416,-0.6021811451837378,8.200937856882723,1.894289785734803,-0.8671310777494116,-0.5089111488472536,505.2564768657325,504.2960368666122,435.53224230744013,upstairs
2.9048414023372287,-0.6313190446054966,-0.5486301276120906,8.13937611571762,-0.0015054966466389822,-0.44740166660923514,-0.11791641784989919,556.7454669503685,496.50404630986526,506.5549370210328,upstairs
2.954924874791319,-1.1111238864419921,-0.4210663852324057,8.56241520111839,0.48009858565450453,-0.07592383487659113,0.5838689708069857,528.882529826935,502.77002587751883,474.2267652668756,upstairs
3.005008347245409,-0.6841385690871176,-0.6643130511275619,9.22682605534148,-0.5494709841930571,-1.124703338272775,-0.5011126942293813,550.0500805296649,570.0957246799522,499.59181101485495,upstairs
3.0550918196994994,-0.8007271652022151,-0.19876392903085294,9.962163556026702,-0.055785729306721384,0.902554749940702,-0.5668745122520379,538.231695736831,514.5596522853094,493.68100331956566,upstairs
3.1051752921535893,0.0014885020214028266,0.1239361304824122,10.950330774854615,0.040322955435965535,-1.1656751161243153,1.1888429847536468,578.5119643186912,562.5243239374562,504.22768597047906,upstairs
3.1552587646076797,-0.1356026153440345,0.3298006991742898,11.220116422553762,-0.8210953315003197,0.1819949765720593,-0.1106812291572525,498.94085471429327,442.8749269835797,529.6584812681432,upstairs
3.2053422370617697,0.6559744967665424,0.7078559526125101,11.203336164178085,-0.7374092563500332,-0.750030478926419,-0.23566133446142176,477.7501563044717,539.7340711654058,551.7305954117242,upstairs
3.2554257095158596,0.9866060962953497,1.0109730267336599,11.313229542847298,0.5114332872323467,-1.3609748703999622,0.28754855632959353,501.49081879569127,472.85770717025184,577.242735443943,upstairs
3.30550918196995,0.7351292018074852,0.4337460841511061,10.37122876927282,1.050177599029795,0.31939932194283055,0.592206179673735,540.0240509008643,448.0337861746658,517.9149521013761,upstairs
3.35559265442404,0.6611116789706267,0.06396479937476848,9.835216115946798,0.11840152491866299,-1.0679047165928448,0.28668362225477945,540.3537431591448,558.5534713776481,511.0135498014627,upstairs
3.4056761268781304,0.3216031845581566,-0.11338180684124213,8.962677955924175,0.004519134227941744,-1.4121077037489111,1.545155641637078,562.9681845027542,464.23288965586505,482.4747794935593,upstairs
3.4557595993322203,-0.3581473184574928,-0.34065044177184833,8.527897796396667,-0.62849245850063,0.05591093020367143,-0.670664019265797,546.1487908151762,524.7216428773162,427.08737891195113,upstairs
3.5058430717863107,-0.47593212140718955,-0.7635184409589115,8.152318157506215,0.04628362843164392,-0.013011214510236435,1.136389766367963,487.8066597006368,509.795262687415,493.35564607612497,upstairs
3.5559265442404007,-0.8324965417122088,-0.37835000606421376,8.548294362058353,0.3591123435899262,0.023368047501875946,0.11043645271522702,523.9352442327857,497.99452953058966,570.1250222199145,upstairs
3.606010016694491,-1.0342330280532475,-0.3419377716691242,8.681834176486005,-0.46745407196410893,1.6047808070665175,-2.1087127523735782,559.0086803526307,537.8898924531746,477.6361359520605,upstairs
3.656093489148581,-0.9430299524549433,-0.36171277110263084,10.063797445051247,0.6491377860403358,0.8341422293479788,0.80449921335984,520.9244180018794,485.62753316793237,588.3897189780505,upstairs
3.7061769616026714,0.11491537610952975,0.2301633842975967,10.49029476148526,1.2043502622125855,0.6430666408755061,0.45836932345225606,406.62130786668916,458.74662690892745,536.0771816309372,upstairs
3.7562604340567614,0.2539509868154106,0.28178353376466747,11.20880688704947,1.388498909620354,-0.5630257196358918,-0.9829899190550779,548.469466619596,476.4935557362887,557.7009499711819,upstairs
3.8063439065108513,0.39402171894943816,0.34039767206847854,11.406083921560157,-0.41186480399516945,0.06356614021354709,-0.9206112988160721,511.9418528224733,529.0268245261216,506.9741363533113,upstairs
3.8564273789649417,0.827142722415091,0.8279525266465768,11.37623148632575,-0.642210408957568,0.05990217544042006,0.8739392112709958,531.0513093615622,611.6135167119187,471.87156282480225,upstairs
3.9065108514190316,0.9304281010113252,0.10228496596621528,10.761910553612346,-0.11000976962524468,-0.2842339201881245,-0.5682002495238563,453.2501613000835,504.04018233849837,496.8377615101625,upstairs
3.956594323873122,0.8055953222616234,0.3823416191054877,10.301561667912774,-0.837662870852178,-0.4952973059050437,0.5496164964238631,526.023340875134,488.17147290118425,488.0395250166761,upstairs
4.006677796327212,0.49964740758622456,0.0064638335225186,9.438184095407467,0.96021012265791,-0.07125376167000586,-0.11002916923856776,474.5601517984007,510.1046087036954,545.3734026413154,upstairs
4.056761268781302,0.03236844388291134,-0.495989465940413,8.851991123779706,-0.7028725531170278,0.1380819763024806,-0.814014731712601,556.2796853151981,542.3956996401529,465.7960758710545,upstairs
4.106844741235393,-0.5910032919290806,-0.6044173056763686,8.398198247981222,-0.7748013032622739,0.713238356851778,-0.23608351116492043,486.81966352900025,600.6088192193976,551.5339315939062,upstairs
4.156928213689483,-0.6339944525501426,-0.6448148238524738,8.372007876596077,-0.6622477098480107,0.4539953178565237,-1.0354554548383854,459.5159794006368,553.4180911080921,453.52966073215816,upstairs
4.207011686143573,-1.2157753392263693,-0.9787965353918977,8.640913707614233,0.5926193817133731,-0.5430161560349932,0.9124380158568894,559.0959844390123,483.4687191579198,457.3890811103032,upstairs
4.257095158597663,-0.9986099988753615,-0.4159751951599832,9.537236748301822,0.22459219274978576,1.6339823284567254,0.7639838631794518,501.7811150850496,527.9338316333568,539.6887659921306,upstairs
4.307178631051753,-0.5897767467760212,-0.33320191617385214,10.149419829955912,0.46504426074220917,-0.251565456188512,0.6914887976911076,520.48896609541,500.8921551301418,497.7842202038356,upstairs
4.357262103505843,-0.48374214911026114,0.13161077400929433,10.369307170180315,-0.3602348908984717,-0.3933098309075141,-0.684891829906923,477.8977034935611,506.65172576029005,496.77579445720926,upstairs
4.407345575959933,0.41141077805046256,0.6584913337200493,11.670899497971908,-0.4687115164374963,0.6655579604657434,-0.6633603866261762,544.1725424990889,439.0252896899257,532.7150024815878,upstairs
4.457429048414023,1.0519079324220726,0.5721056509631528,11.48706554323492,-0.15759016279309365,0.3006955884151346,0.6888736103404098,509.71288035654004,481.25444536642044,540.0813687721633,upstairs
4.507512520868113,0.4723901512652529,0.5003006530719539,10.896954561249037,-0.3256056427980791,0.6209821070711014,-1.2627252284904842,533.6949159495649,426.20516966995115,502.0878289605361,upstairs
4.557595993322204,1.1478803570630611,0.5814116559387639,9.833942488959991,-0.08210852349925436,0.7526438757286678,-0.04050132403017145,523.0775864172512,526.4726810528589,513.0202518698117,upstairs
4.607679465776294,0.9232572518456684,0.2802822397141381,9.648342727222182,-0.5013669943841863,1.516892709894039,1.485188453001257,500.8846967065017,480.19190364961133,502.5572065607551,upstairs
4.657762938230384,0.7211380149987021,-0.20513772891710785,8.836424946660513,-0.5935369393453331,0.27057107867507985,-0.09789952632846308,519.7639678549205,526.3652777165381,526.1675699216653,upstairs
4.707846410684474,-0.48150087134349384,-0.6702417114446517,8.209412303014574,-1.118289918312933,-0.25783119519481956,-0.6408280411745829,494.41339038936985,531.7751162344913,491.61471300481355,upstairs
4.757929883138565,-0.738566695269631,-0.9391247849069009,8.322204329940432,0.10641008905243511,-0.812241558636415,1.052762995268027,493.3098218071219,476.63614503275556,503.9986920258253,upstairs
4.808013355592655,-0.4736261221475198,-0.5914589406631063,8.519648799707937,-0.6459010261546735,-0.3772605664036092,0.8266811015760127,468.6336676106773,520.7524625428755,504.9542113539775,upstairs
4.858096828046745,-0.9740499053762574,-0.5235828829029756,8.935326914895299,0.03875895281270812,0.3148143189112842,0.20514726852275963,489.64455485053054,476.74757281747816,514.5821295024223,upstairs
4.908180300500835,-0.47582622280892123,-0.4989910325905261,9.681728991698728,-0.6008377634603885,0.7784140718445718,0.11076676501969825,577.035669958007,453.29660676026674,458.20178080717767,upstairs
4.958263772954925,-0.4627705138378578,0.4245109701031482,10.818760490741017,-0.691249753318225,-1.1185659027859136,0.2961281530622127,435.74824957709467,453.34246140778527,606.6233349778222,upstairs
5.008347245409015,0.3055808092881486,-0.22241410829855296,10.916016666254055,0.22292068558506736,-0.6037129531525702,0.008561536536688725,507.27027598834303,425.4908193573734,515.6957281443605,upstairs
5.058430717863105,0.846714046524575,0.719471864652123,11.188385331293382,-0.19073549102627127,-0.24158692508998947,-0.9171834048470556,496.71913528688395,498.4712096857321,588.1661852070077,upstairs
5.108514190317195,0.9386393241954977,0.525838875508373,11.254512713991392,0.06577034317425814,-0.2598953397077873,0.2876747869080412,533.8461077591579,499.67694767714846,508.5943311449533,upstairs
5.158597662771285,0.9741879815293125,0.6150469780752823,10.603340826261602,-0.8971897119533454,-0.19315190313625064,1.1768103994223014,471.8820574607204,469.098947896894,439.35654082071244,upstairs
5.208681135225376,0.6342317651552373,0.7175576295862613,10.28242783191659,-1.3618015918718591,0.847189534595273,-0.5501249563600369,528.6425965594531,557.9063131515229,515.2728759316118,upstairs
5.258764607679466,0.8475879971045344,-0.37647798723647496,9.502748108120242,0.43124763175341974,-1.336051699100435,0.403131955738284,527.3309948788491,511.82423565447726,480.08549334127986,upstairs
5.308848080133556,0.2676941347695618,-0.07780312665532008,8.57557804139676,-0.07774259397996508,-0.7186864266642975,-0.6849128315674622,537.9038034434666,533.6450612710944,511.17193413787925,upstairs
5.358931552587646,-0.6755030937106449,-0.3511411894121903,8.38146451460546,-0.21205389614300318,-0.19366870106890582,-1.052143407158222,468.7447652878804,495.09136400751083,512.7671151679485,upstairs
5.409015025041736,-0.9603896910082936,-0.693869818228054,7.991381757575559,-0.5263365526310464,-0.6634330684882424,-0.6783914733716639,503.7490661081662,584.0194431117862,575.152991161666,upstairs
5.459098497495827,-1.0900246878925794,-0.6846083491111299,8.803387343815064,-0.7625585221097994,-0.643799274723899,-0.11002313062125509,574.2837216212874,525.6340412195943,454.4276942718906,upstairs
5.509181969949917,-1.076232151350013,-0.40123967538592625,9.142677083985458,0.5318275505016271,0.07717116930063614,0.15487539508245934,468.37164133216896,505.3822617017235,495.0583213395857,upstairs
5.559265442404007,-0.9022577152595177,-0.27983540497362136,10.597003794397358,0.5396226965896236,-0.41605952167315774,0.6937851739136854,475.68567634194045,557.7546607628165,500.0287153404468,upstairs
5.609348914858097,0.08513056865942627,0.524635865391409,10.86602320002941,-0.36120327746090075,-1.5948861759769795,-0.3843009576754367,485.42031807344426,540.4147646208248,510.8841067267029,upstairs
5.6594323873121875,0.6131169797768456,0.4916037487448488,11.223121747934549,-0.5060970175032764,0.1287090512896373,0.2615676152359126,518.0022161921955,561.2625787304856,482.5025117175786,upstairs
5.709515859766277,0.8512157702441876,0.4572765549783776,11.190210000645557,0.08970744869904337,-0.12395522613812648,1.181150824850802,547.3409341328751,480.1357680217526,445.3838738104925,upstairs
5.759599332220367,0.5517740192251448,0.8592878676940543,11.17074695795055,0.7214235529640559,-0.47053074913437193,0.8151984730539172,539.3512424259719,557.4664244152966,492.5356819616102,upstairs
5.809682804674457,0.8562320681823625,0.3994651620176651,10.60412229191831,-0.4310812992101392,-0.11542595905656208,0.005679185821453858,461.44101212902837,437.44643169467406,504.9885414045727,upstairs
5.859766277128548,0.8256616805167559,0.05258045573639383,9.5315605147543,-0.3381075032694691,-1.0822409321342137,-0.03604761016078904,565.5116883482397,520.0541820190572,537.1535932619047,upstairs
5.909849749582638,0.49392128577629607,-0.2476533685844785,8.480395912733448,-0.03946648288905284,0.20952808707461837,0.11848623720520779,511.3699300371809,557.0097361757489,390.3694950530263,upstairs
5.959933222036728,0.02397945201503443,-0.5806148997228573,7.839044406366907,0.2551214602342711,-0.7242131520727594,1.4963544935276367,521.9105195244581,532.8906774324312,500.8113823132202,upstairs
6.010016694490818,-0.9523563410209396,-0.6533176811196197,7.9167377948428355,0.9137186478126613,-0.0040430349496969,0.6901305190090278,464.61794525363246,606.2696740166446,463.93359859474555,upstairs
6.060100166944908,-0.9438955628602518,-0.5874433117741502,8.74641067815981,-0.33351785532349587,0.05806928190829079,-0.6621624645282814,581.8773519203027,472.77851775277617,535.9250642163655,upstairs
6.110183639398999,-0.9699292017872763,-0.3574369697601677,8.945723077827886,1.1644149227603136,-0.3873807882891381,-0.46745855318168233,538.9117887647583,488.5585947382978,531.8672428814277,upstairs
6.160267111853089,-0.6384974723214951,-0.11140331153469235,9.757900909294573,0.6740783525755687,0.10882758847512587,0.09727769538024134,523.5229580216431,490.3873145835396,404.9721432609032,upstairs
6.210350584307179,-0.5374320602466413,-0.23172726434612517,10.358495161782404,1.5131709647070761,-0.9609769595398816,-0.547578962147268,485.0227176554732,497.31514881704595,470.06476255480953,upstairs
6.260434056761269,0.1833802807749222,0.586979897609136,11.189771008887469,1.3269457856831186,-0.20369454651787866,0.1550307212887442,465.30160901653136,428.19241134499975,507.46815967096666,upstairs
6.3105175292153595,0.5462554785511289,0.6932279666813992,11.196885602377423,-0.22875825603922004,-0.669892301934536,-0.12410168621062898,499.19889833673477,541.5026381089442,508.1503491114051,upstairs
6.360601001669449,0.7268670635445365,0.8751895124796676,11.53732043724831,0.5401790861944897,-0.6129929926398116,-0.1562069567981187,462.8672813349967,527.4798288099619,559.4734974171893,upstairs
6.410684474123539,1.2489253132905542,0.4531886382364001,10.854640568432451,-0.2985820068423039,0.24559763536841,-0.27555586416219346,505.1195879973617,492.66546060324094,540.1016284810192,upstairs
6.460767946577629,1.0899683266882514,0.4472050314524695,10.14936511518221,-1.3320224745911777,0.13488656227580348,0.5143071894548582,529.6300636288385,525.0231264849757,514.3534769384572,upstairs
6.510851419031719,0.6742901301898283,-0.15198023612445777,9.343981641445447,-0.4022193160050912,0.799440104281131,0.38126995444327744,462.45464233675614,506.9836381818967,516.4810800421013,upstairs
6.56093489148581,0.05868556284138819,-0.18306477698570137,8.716263001245988,-1.3085687188273947,0.17950954339501254,-0.23367790343173364,404.1330166429288,585.836263405359,504.9496348591065,upstairs
6.6110183639399,-0.3666076671214547,-0.2377032675832747,8.030739646149971,0.7800210529838134,-0.8359035273005915,-0.039604929910438444,480.2469006297475,470.83129564109976,538.9263940302945,upstairs
6.66110183639399,-0.8247715025310834,-0.49018634471046757,7.998691509956525,0.3653239858903368,-0.30045999297034565,0.5031379500371073,460.5554600892238,508.17957541090493,509.600242211318,upstairs
6.71118530884808,-0.9886676790383117,-0.8105113504846502,8.835098227645974,-0.21859851569316485,-0.20852702242613685,-1.0432780404065676,564.8632274681269,455.0820286058818,535.7384903917664,upstairs
6.761268781302171,-0.5640203322974451,-0.44529713560624123,9.321057624214534,-0.8067391087457086,-1.0818151861030383,0.8718041202863401,522.1741772480506,527.6972563844444,470.6182210552434,upstairs
6.811352253756261,-0.4661384906499008,-0.02767397009281583,9.914935456968248,0.3512637989992742,-0.5765360334086571,0.6822160196040186,472.09231011785255,499.190788950831,469.5306172017579,upstairs
6.861435726210351,-0.5447833713697582,0.18673010752335287,10.641587373282427,-1.628841205407448,0.41251745414798785,0.6428318141231255,442.11969985413026,416.29193706945523,523.9199823852043,upstairs
6.911519198664441,0.7055472341192541,0.20397164969476217,11.710238423853683,-1.5009623666684124,0.4633812944571965,-0.4825448185080131,578.1609811595056,565.3092977446074,435.7849558528501,upstairs
6.961602671118531,0.514828050193899,0.9182801804462124,11.443312554885033,-0.6889254002233728,-0.12939506273092385,-0.11428157876117745,502.67711048425696,546.811307099814,503.3319251409712,upstairs
7.011686143572621,0.7818529450446743,0.7243089286741722,10.853486709326699,0.49325332463023414,0.3752033240884557,-0.2176185734334002,553.8042895374931,638.3230567559165,526.7085724686032,upstairs
7.061769616026711,0.8908488570464549,0.7063133894679066,10.442464337207829,0.12056385513262208,0.6013496885390242,-0.524394971864228,547.7216955331744,525.6224481680921,546.2252539103335,upstairs
7.111853088480801,0.6344317205779654,0.009119252234061681,9.348219872645588,-0.06856464999720983,-0.8273174154395105,-0.2593529943843764,453.1869429952889,519.2756390635756,497.4685967786426,upstairs
7.161936560934891,0.16732948994745755,-0.07367042038405924,8.724483984911322,-0.3165636085832133,-0.29110420110976865,0.7738479114548902,494.1212831405444,465.3311616951979,492.29651631067406,upstairs
7.212020033388982,0.14438608993583268,-0.42284370635181256,8.356584326068097,0.10445677087791708,-1.677589463208399,0.12708481385254422,498.4964331544525,485.7631824978041,462.9154148309854,upstairs
7.262103505843072,-0.8787840800270306,-0.6355082970245896,8.310628869297169,0.4254812075939468,0.9108144755709692,-0.6431857061470896,469.9740953369591,515.0762842138269,510.89690651753926,upstairs
7.312186978297162,-0.8213617254611152,-0.5839872878844807,8.51316401171032,-1.1681027268407795,1.1811941037650606,0.7302078855897086,494.14185166511754,409.7086596740587,390.69098001496627,upstairs
7.362270450751252,-1.0315417860431573,-0.7777751036002951,8.83847472388692,0.33574331533738594,0.4067864973085726,-0.03812239279803712,543.7282501333582,514.8227525943049,570.2932825523434,upstairs
7.412353923205343,-0.7305443777879612,-0.06161291567364485,9.84286906091482,0.6628436966001442,0.33415611116034866,-0.5805376544066368,564.9067792189126,483.5593299212564,456.44897617966745,upstairs
7.462437395659433,-0.5474807637650793,-0.23043549513149303,10.544370819773812,0.41122121740233375,-0.5473970762366355,0.38086064337658865,433.2905686874645,501.6589625162133,544.2522694016774,upstairs
7.512520868113523,-0.13211676579710696,0.6304135498851242,10.990038466933713,-0.6861086041490688,-0.7880987398490751,1.0038656558897214,546.3690078418713,550.0254173089671,437.84926911767155,upstairs
7.562604340567613,0.3605587790585778,0.8199330903356659,11.287193326096045,-0.4913043688217802,0.8013777260292718,0.27816344398330445,509.03700309324506,474.1839835451205,500.57103978654203,upstairs
7.612687813021703,0.97007297809472,1.2986316733320795,11.08437716078995,0.6080274764960899,-0.05141038143019443,-0.8686475498666153,461.4808835248905,538.8064889927575,529.1215295314613,upstairs
7.6627712854757934,1.123385674255665,0.4450094563008067,10.907725077076632,-0.8986122883229563,0.5554330318604107,0.40302728282469313,513.1553937704703,492.0592932010581,423.2718973480263,upstairs
7.712854757929883,0.8630254387385522,0.26555285284070224,9.983292653711981,0.9968078086622323,1.821241486009749,0.12198995836662022,527.3362621829224,505.1434058354257,562.1547142515118,upstairs
7.762938230383973,0.2636789876673227,-0.021491546462759567,9.137813406848482,-0.9470294812314406,0.5704054969282929,1.2951100640156594,579.9608747348741,482.03486720313464,463.4637845471795,upstairs
7.813021702838063,-0.07227818088900044,-0.3031654461481526,8.624334837143179,0.23413730969692084,-0.314929570792658,-1.0093452471504982,422.6739015945563,458.7192231186161,500.58941678903096,upstairs
7.863105175292154,-0.7555296832307106,-0.7018102865809139,8.128717623107258,-0.17916192320225113,0.7740904025067793,-0.3987073148440432,503.0920835486351,510.87118511865503,528.3255346740158,upstairs
7.913188647746244,-1.1537815595187069,-0.6172075488683937,8.465069720111293,-1.374975173818814,0.37233645184895825,-0.8186474972393276,511.67433097220595,503.9400148641456,460.363554801209,upstairs
7.963272120200334,-1.343817766222871,-0.5672564778814821,8.744820680719432,-1.3428566005454479,-0.09902683335350534,-0.024167592062533536,566.1739456145624,537.6437001000156,454.7681642772335,upstairs
8.013355592654424,-0.7417814182538368,-0.17713063539287008,9.5357168928467,0.4353941056313458,0.06348948135324023,-0.04721685470270567,530.7768642032479,543.3754436075793,499.0185282548245,upstairs
8.063439065108515,-0.29985638767889505,-0.0002430896774449215,10.472397320987005,0.6943194735703452,1.9075021417721867,0.2572982752084392,501.8352668333632,571.2121129307262,525.9451708836173,upstairs
8.113522537562604,0.20321392626725548,-0.22886506963404435,11.090809676524408,0.6672314604908112,0.25539528000282297,0.7568256183485854,507.6877547170137,502.9313967484747,476.33513448289153,upstairs
8.163606010016695,0.6599862215392025,0.6245195635165024,11.359957388363851,-0.7128429982403022,0.7811170423190821,-0.12371040128099779,481.5030395439794,469.9329078355803,458.7120008152763,upstairs
8.213689482470786,0.6994951757738477,0.7771137090240856,10.99595059415599,-0.7370347954556297,-0.31232777043700155,-0.24766506563705248,512.617435998528,496.25160575949377,529.5271728812218,upstairs
8.263772954924875,0.6794374954217138,0.8762555733101449,11.03132264407344,-0.3474216304169625,0.18418317081425936,-0.12018515105883637,535.6130869978284,557.9334835912022,529.974088402686,upstairs
8.313856427378965,0.6733575794854474,0.3042924517402732,10.2141445033193,-0.49551187155311466,0.35515716305377826,0.5256576010151865,529.8456438324278,537.2919356382342,419.0144166981766,upstairs
8.363939899833055,0.6102682810526961,0.3777643715418001,9.547597615744518,-0.7007217070524268,0.0953926606497367,0.7952154685761562,447.38097254181025,459.8361460274643,485.880846783706,upstairs
8.414023372287145,0.5366696397673217,-0.07704627049648483,8.772916124959403,-0.11479505950319355,-0.748428110203998,-1.1037854996081173,510.1025774383508,482.82388953645733,432.0092400076127,upstairs
8.464106844741236,-0.3889592099036041,-0.09593593371546827,8.296563637232422,-0.7768043200628055,0.5735667565103642,-1.1068546717715881,558.1673996867042,440.57306820178997,507.4162408551487,upstairs
8.514190317195325,-0.43902893098312135,-0.9310483982549715,8.008338485154049,-1.1533701675207346,1.1493441810729417,0.4252518983186679,550.8028646254475,498.59744509179,495.59441368339003,upstairs
8.564273789649416,-1.1527436820990342,-0.7412013655753045,8.422463806327722,0.5180456697069489,-0.5268457668314953,1.5614651375163622,419.2000646337842,447.5546432227055,574.5806609378444,upstairs
8.614357262103505,-0.8985355581842652,-0.8024367217377135,9.097057060154475,-0.4982104713838618,0.33038839667212616,0.14385781103635914,568.7575629698915,457.585818159595,497.10441325365696,upstairs
8.664440734557596,-0.7433125068488333,0.06638059410503466,9.952751426704145,-0.6878873880398315,-0.04933411497313659,-0.3531537762586933,544.832540861413,447.45403255216735,474.5241535818072,upstairs
8.714524207011687,-0.7779262644349585,0.08585715101958907,10.682633666382364,0.06726361032474007,-0.827647331463751,-0.19489089055712056,509.4446578982016,461.23394036038457,586.877891934247,upstairs
8.764607679465776,0.3829297833884,0.5452311700610549,11.09088605480668,0.30825035966188263,0.14516915620202994,0.8875140895709928,476.3382782948248,488.00208748506645,597.3692615597319,upstairs
8.814691151919867,0.791423459880166,0.8433723297768299,11.68223029369256,0.6285852624071488,0.308956045853801,0.8411254408259069,485.94331108587875,477.2256128612692,588.9370575391134,upstairs
8.864774624373958,0.8903635648942198,0.6155590782622058,11.349258921058144,0.9439429998014391,-0.6768481463607197,-1.6359443384272052,479.67887361693863,441.04651085647646,495.613892213265,upstairs
8.914858096828047,0.7213039883511507,0.7155490158921063,10.590687126736896,-0.5395166671443395,1.0074249956520145,-0.21102395184594758,491.444666057272,499.7647342708506,503.7489833824235,upstairs
8.964941569282137,0.8726275327599778,0.06746720594285222,9.790638446888774,-0.44514979277853073,0.17857251693722548,-0.2466390436424065,494.178809151916,532.0488414123555,453.71102212672884,upstairs
9.015025041736227,0.24613793919917853,-0.07831605204455439,9.480315661411467,0.012764625122846754,0.24243899122261453,-0.8408635070134445,505.91522631071314,503.49152773288876,558.5847781948255,upstairs
9.065108514190317,0.11722907148165558,0.001113058652668475,8.47929058539975,-0.7164692147580717,-0.5041110876990158,1.0510044058893602,484.0636811639681,427.0113489222792,564.6787569043726,upstairs
9.115191986644408,-0.6633888946282427,-0.15998859448245478,8.733671188931543,0.8323608876387689,0.5786852542773879,-0.20253043413617525,467.7391232877864,507.3690583434869,459.37387923430305,upstairs
9.165275459098497,-0.7595406859025298,-0.7538023433458687,8.431866483756059,-0.09614421474771337,-1.0502246180725552,-1.415368340377695,544.8250081846812,487.2924614520892,496.99116576479867,upstairs
9.215358931552588,-1.0548446879678408,-0.5317491666038066,8.874979004074042,-0.2195956238083838,-0.6600713485626423,0.2867891749103657,527.7090595276898,503.35395377536963,535.635983710002,upstairs
9.265442404006677,-0.8645201011623203,-0.2941395754125363,9.467170687608414,0.7913199383603531,0.46855566633610335,-0.8424777409477303,577.6249207927102,548.7035307992132,453.556051555048,upstairs
9.315525876460768,-0.4705678485562319,-0.016923844384801823,10.559663167266786,0.39694839936133547,0.03279671254231463,-0.6423931162654021,464.4846886702093,509.5530343585477,514.8406796608396,upstairs
9.365609348914859,-0.04287326878584491,0.065745474181851,11.040755162393374,-0.465442695659891,0.5362993646710656,1.2395684654025787,538.2715883298615,542.888326377449,449.48708283071966,upstairs
9.415692821368948,0.5989856808348505,0.5514191333199193,11.573852756445875,-0.079869321290277,0.4317370199165491,0.12783522628990981,508.95136913897574,470.86978608021207,458.0467959348204,upstairs
9.465776293823039,1.0440276575067144,0.7971302211349325,11.498656220410203,1.185286732865287,0.10316199732550693,-0.21875759397969063,485.8141156954453,528.8866381558911,500.5043812221535,upstairs
9.51585976627713,0.8533626214670913,0.5050573263509515,11.140927791197056,-0.26526771215727046,0.32516860272279613,-0.426459221849804,517.1538998281113,503.00270707610935,470.56429937933274,upstairs
9.565943238731219,0.7956917245132573,0.4449782871768273,10.800131482923303,-0.6927999495157151,0.5659723790241538,0.4156311066137717,462.8042656383916,496.06272073565736,398.19575425901706,upstairs
9.61602671118531,0.39764791119388504,-0.052060102304106376,9.421970114008786,1.8762192078893176,-0.284912639520514,0.34219926852480864,489.27526948664377,384.7965127387721,510.45440361892565,upstairs
9.666110183639399,0.5376244872713889,-0.1944674954545294,8.97067727308531,-0.3791260266616147,-0.02117201768859567,-0.6569781546637835,506.5778948597765,473.8699000507389,514.0488079774724,upstairs
9.71619365609349,-0.3436043907593245,-0.2949859257941606,8.447197041813428,-0.06437514118647561,-0.5435692066585166,-0.5413145605771592,542.8388565647916,498.1737243265904,553.7510413197626,upstairs
9.76627712854758,-0.4350108624876935,-0.49629411154577335,8.288295782010227,0.6912548884989276,-0.49832193560948773,1.0966042765882238,509.47547420387326,547.4775792127128,529.5525477859115,upstairs
9.81636060100167,-0.8335123827415718,-0.7795391826025138,8.321165255110552,-0.6657611136649255,-0.3333772993618517,-0.13452191991932244,522.7447656919283,473.9882630056035,433.76954629044315,upstairs
9.86644407345576,-0.8693283690589804,-0.3239279092038246,9.051970269161068,0.055270276810016825,-0.822365301228022,-0.3076103976708183,507.6227470491742,488.2452313959238,539.6915196083703,upstairs
9.91652754590985,-1.197000048218229,-0.1816326921475298,9.798084772357107,0.22412994451809048,0.7876869672247044,0.8284399317093442,461.8129367801337,482.96618307032196,491.43713382908857,upstairs
9.96661101836394,-0.40151805833704246,-0.012157687942500814,10.283717129290055,0.6960978181492258,-1.3699994803976085,-1.3527975037006907,515.8746551208228,474.6047396775641,478.8124513472729,upstairs
10.01669449081803,0.14338229529941465,0.48668382878115574,11.00263123432658,-0.08320974568061842,0.9403833623787281,1.3661584312060755,542.4718203243585,497.394575389277,512.9139992956683,upstairs
10.06677796327212,0.4204123553968509,0.6927196833085534,11.411671722065076,-0.03926484445400252,0.7749290474353052,0.225583581608176,596.6888190432996,473.5768375160572,409.1433226363612,upstairs
10.11686143572621,1.0410315052601657,0.9511549585401526,11.141484299357742,1.2110477799497814,-0.06778089428804462,-0.8695207414694337,556.7282679449316,502.05469602298473,533.9279855906698,upstairs
10.1669449081803,0.9469002403457859,0.5808062230782955,10.535245066219192,-0.8480813489287029,0.964104373275262,0.6059723132179156,515.5769148319666,534.3526071970703,519.9562472160775,upstairs
10.21702838063439,0.59039016854725,0.4362163472879863,9.917204270768622,-0.6724596754371233,1.2259877387301326,1.1723456390770792,486.69713092215136,530.1388519719961,499.45745640918693,upstairs
10.267111853088482,0.276621366158331,-0.5844215604811527,9.028556116749762,1.2652002095298165,-1.0766261782479751,-0.41289510717999933,494.05753035780685,505.3913963977893,468.389841305223,upstairs
10.31719532554257,0.28946490883263665,-0.6345160046717846,8.700880914048916,-0.3010193548525056,1.6198398783936439,-0.7900719885805826,544.4833893812325,507.9747028046513,517.121982528703,upstairs
10.367278797996661,-0.3595351662989622,-0.5768100095345547,7.930527543556409,0.6413059083005421,0.4842291279115664,-0.5529685058620017,561.1307111590244,474.76163981854455,421.8094660563683,upstairs
10.417362270450752,-0.5491325013130622,-0.5726171579596451,8.172884128110482,-0.6861078293312366,1.2252681682910456,1.0931597095359227,515.5877843468086,483.43981728324206,506.80263294818417,upstairs
10.467445742904841,-1.3090353672995985,-0.5835751223894068,9.241170747466182,-1.0169921833421656,1.2529635031881883,-0.2127069660890974,506.96406006766756,509.9185181025054,471.43804105605847,upstairs
10.517529215358932,-0.9914914727837913,-0.2604760296307574,9.391528414883508,-0.8434193868662864,-0.3385764840024858,-0.9268537962045361,503.69031672902514,500.0951344743648,435.28490656861777,upstairs
10.567612687813021,-0.8663163056075871,0.10821864768621506,10.195625017444327,-2.069937484704341,0.24442916030647757,-1.5811891440311407,429.77217812876006,464.271974190616,447.12736515034885,upstairs
10.617696160267112,-0.2696114957420817,0.314329868407626,11.164492671474639,0.398416083842757,-1.2491202748611736,-1.011037105624387,475.40719602395393,527.6446946843399,430.14410968854236,upstairs
10.667779632721203,0.4394994825708198,0.8855869613627061,11.31676509480717,-0.12551008820115991,-0.5389963419178362,0.5222346300980163,572.6062158381069,436.8118374132554,497.16663202056253,upstairs
10.717863105175292,1.0622242915779474,0.945427062609095,11.412744923787436,1.0438696296247958,0.5156060696163509,-0.466594868601937,480.75309621401465,504.2318128487301,529.211465708188,upstairs
10.767946577629383,1.1699353735596238,0.4823868715557291,11.07472661743938,0.4543859099810435,-0.11737107859293601,-0.1778804389508852,459.1395652054977,480.1251705933885,446.57037138607404,upstairs
10.818030050083472,0.7321046084525733,0.8167167152855386,10.67381581186138,-0.14690948721358177,-0.42429529948426004,-0.8702337788311753,516.5724502879864,495.2176438601355,485.7551303625272,upstairs
10.868113522537563,0.8521640552871054,0.0037853885876769078,9.169511999629712,-0.47173952735271524,0.2590072404270665,-0.40413164605703195,459.11145825470476,492.1741211524455,507.6463116135282,upstairs
10.918196994991654,-0.25141262923204566,-0.585900080251069,8.642742440868263,-0.79694492276384,0.9283814382543008,-1.124705071747522,517.8505574998703,509.0262014754822,521.5197145207114,upstairs
10.968280467445743,-0.24424333554905475,-0.8946262438131374,8.079362046578735,0.28344598284015077,-0.6658184230335024,-1.3904287258231858,576.8977980775443,463.693940629709,459.8736805415638,upstairs
11.018363939899833,-0.6669142269586694,-0.6938014185334669,8.47797331881364,0.33423625331603135,0.8743997685639937,0.5870344760299002,469.6116280580498,571.9782461040421,476.7468837430584,upstairs
11.068447412353924,-0.8801274328730206,-0.4414896793289074,8.311904063519858,-0.8568847170320089,-0.41054625346312695,-0.24899769150558,466.5177353905011,562.4833018801081,461.25772972548884,upstairs
11.118530884808013,-1.0953407489251736,-0.6859645134178576,9.429990845935198,-0.40915458286823375,-0.07479881718975112,0.009321121676472735,491.85399527760666,509.00845744613565,557.5918731118886,upstairs
11.168614357262104,-0.6169789234543752,-0.2947565191104309,10.13529065917362,0.7217221085339365,1.084493656677313,-1.533317484253701,533.6081548885817,535.620812758873,515.7197079148635,upstairs
11.218697829716193,-0.12987089795440104,0.20855303683454698,10.757068065237316,0.26768124308860386,1.3330833494476177,-0.15580550734225707,444.3205818574847,479.00710776673014,437.91272923247385,upstairs
11.268781302170284,0.146798877571223,0.531131559047891,11.619612496232667,0.21321176271664574,-0.07910574004662525,0.32841615698646587,538.9728124112659,471.7285324689756,515.4341922923007,upstairs
11.318864774624375,0.7121149858546796,0.48376684202129594,11.13685104968395,-0.7109618926431951,-0.9384644297058321,1.1264769403590589,567.648078525004,466.70309418120854,519.6918122135762,upstairs
11.368948247078464,0.7415896761186471,0.6186373250682349,11.481179901495913,0.3899795582645864,0.3009844253744954,-0.012851858016709029,550.4700446184929,489.4063563799492,554.0104487928792,upstairs
11.419031719532555,1.0515713902625783,0.5837227305491242,10.317297663280032,1.3559765866367492,0.019660568267391168,-0.18149437418915648,532.3746752734672,506.24734199494696,453.01886014879756,upstairs
11.469115191986644,0.9648699475766599,0.7060827599022206,9.974242874486045,-0.7614196676496984,-0.10371130385174657,0.9436264935141659,539.316733530423,470.21089988229926,525.781563125103,upstairs
11.519198664440735,0.35977580522824376,0.40046131327150253,9.437901848043582,-1.0728095492960676,-0.8407792487218158,-0.008019506285375816,540.9256545559514,467.4268786588772,549.7242555636979,upstairs
11.569282136894826,-0.30516730812079174,-0.15035679128827556,8.294117262464958,0.7146872013625275,-0.22374572592422487,0.7884148036014568,484.25292007864215,592.5071259083928,496.210031262418,upstairs
11.619365609348915,-0.819573641399042,-0.23698344255570758,8.300049343692992,0.39437918220740564,-0.04972048512410413,-0.9182277698922534,480.78766363564625,520.055394086846,498.79612686478464,upstairs
11.669449081803005,-0.9319008781509592,-0.5690695269069133,8.399250250448846,-1.4698368155706254,-0.38516569057688793,0.08374691973865685,529.2392173019964,472.24253100019496,453.8850639871127,upstairs
11.719532554257096,-1.2157034595165768,-0.6806884708767729,8.29090546491753,0.6796958931715031,0.36802023605023937,-0.7816908657049293,564.9642837161543,475.81727388690075,516.498573523759,upstairs
11.769616026711185,-0.8918201514299288,-0.3681722284275391,9.333687222565203,-0.34361464256134466,-0.8816586809849586,1.3066168148649122,512.0256807964071,522.4222631903757,486.0751596353895,upstairs
11.819699499165276,-0.49138164878869706,0.007156819967147003,10.602416982644847,0.6298106066768946,-0.00010299697148647891,-0.5801513236391507,468.1813652314336,435.18387042619787,526.3516499289988,upstairs
11.869782971619365,-0.2714732696463525,0.5173572501369771,11.023526697368936,0.6015819261129689,0.6436240905968478,0.9682390098331096,481.8428670019243,533.9100736262001,443.0079279358553,upstairs
11.919866444073456,0.17963946635541878,0.47796072843873166,11.41369982047687,0.7754858899383058,1.0883948328148447,-1.1726673778065746,485.8365972496324,538.0241866317299,470.29944937966457,upstairs
11.969949916527547,1.0262796337998257,0.5149921323675827,11.580449697193066,0.1483837831095903,1.4399895782402363,-0.02596419678478558,477.3782154741481,474.13524695545254,532.4791659829917,upstairs
12.020033388981636,1.1487261066224193,0.6302539871321853,10.804564855893341,-1.6562056506533065,0.8932077078590432,0.43275377363696266,474.82538264822324,539.827267690081,468.69883229133836,upstairs
12.070116861435727,1.074682044619192,0.2612257851011254,10.137632572926092,0.249402443102809,-0.28006585098000447,-0.0553743203237013,525.2065366783372,449.53496147538624,484.54239833109034,upstairs
12.120200333889816,0.6912515969544746,0.3388444967472217,9.830550536365266,-0.5715777428960366,-1.0964571823670093,-0.30370698286169523,524.3303281303616,443.5077011658734,541.1896089347342,upstairs
12.170283806343907,0.19581052241231955,-0.11800485042888975,8.84424035343529,-0.47903758936842916,-0.24943703960821723,-0.23810896281841173,529.2240835598645,525.0312223064326,484.52256056831806,upstairs
12.220367278797998,-0.47417269571782816,-0.44581940623760424,8.43024377817603,-0.4662859309861566,-0.3906059835079727,0.02472760966190741,474.70398341263797,476.4379108968295,483.84128820085584,upstairs
12.270450751252087,-0.5763670728768675,-0.5973069769592418,8.271830418339459,-0.41220538996180234,0.824942136559454,0.05936819113859557,516.0572950359506,470.6185874991279,496.5738516746882,upstairs
12.320534223706177,-1.1073090674323613,-0.4901952754041686,8.646628862595488,-0.0689609178115407,1.067405598063721,-0.5248996692047324,527.2532421494019,502.5860024888549,439.9700229095339,upstairs
12.370617696160267,-0.9257502307356429,-0.7227101781025471,9.192629470352292,0.13203885642119073,0.5495288063633668,0.2544674649921247,549.3232880480876,498.0894387130858,547.822828813447,upstairs
12.420701168614357,-0.5664030099442361,-0.1327014719873001,9.76896849710021,-0.08569517238272414,0.43986904957189876,0.9162941898638098,508.34457628490026,484.21214545609047,519.4877780225293,upstairs
12.470784641068448,-0.0922842762813143,0.012774701676859679,10.708537550123335,0.32963066984778516,1.5964686031051494,-0.005721208405152582,518.5975736908081,477.3152394864858,420.7545551626998,upstairs
12.520868113522537,0.43662937659969475,0.42298282549076766,11.707741010882497,0.2381386264998206,-0.7514141049004137,0.627540815562702,438.0057680201383,506.6069600137042,563.0252195442229,upstairs
12.570951585976628,0.5822303755640538,0.43198410958964817,11.467746142395105,0.3635804726641692,-0.17278734296787468,-0.2000819702330255,459.11829835608086,519.9696796662079,534.9618781559839,upstairs
12.621035058430719,0.6114515821253494,0.6664407729092456,11.23944945355654,-0.020024566145706534,-0.19051019691178472,0.6479492938047321,464.6385552667028,493.2812280335478,497.42443276119667,upstairs
12.671118530884808,0.9507532113521372,0.24748007371020092,10.576937469788946,0.49934033947506457,0.004648900713493313,0.7360175136439151,441.7265264487313,534.7514003393429,504.1906085166728,upstairs
12.721202003338899,0.8961620670694338,0.3269545829662033,10.0805637925474,1.6270767880620218,0.18484696553267796,-0.6120284375513793,440.0709238825127,532.5525181078859,550.6425864024114,upstairs
12.771285475792988,0.47060388204226006,0.2082882889740639,9.118809292303682,0.18930223529562895,0.5035266535970817,0.7062019271421257,521.6293813520707,514.5021246987997,487.6076186953797,upstairs
12.821368948247079,0.05809208237935805,-0.2908405135153027,8.556973825923562,0.23017075540258627,1.1442100101210324,-0.45711499936505506,454.4713526406766,492.913006769375,525.0897995282548,upstairs
12.87145242070117,-0.5585619922205872,-0.38991095676875986,8.162202092621056,0.8937580363023655,0.4130355300125528,0.447362075073156,480.03400331687146,483.37045908371266,537.5486351440379,upstairs
12.921535893155259,-0.6493593465905917,-0.6851083547149588,8.321347855102506,-1.3276295158486944,-0.6087977639721477,-0.08594843368277576,535.36863912035,467.5715074280332,513.2233452659057,upstairs
12.97161936560935,-0.9926605927281643,-0.8196366821163072,9.252337073599161,-1.9627967451055095,0.5258454421879137,0.7653755503409467,563.7225187619325,423.5403472311526,468.8920752383071,upstairs
13.021702838063439,-0.6440384391681627,-0.2976109336814635,9.71972228151679,0.5708893941670152,-0.5769634573801968,0.7016961627165851,480.7085713474551,542.6739917654309,528.0204405965137,upstairs
13.07178631051753,-0.8663145861496331,-0.02612265029408399,10.251032924739446,-0.4218282422113641,-0.7764867913116853,-0.3493361641331933,457.4494225178534,430.7247728869458,471.8153567934221,upstairs
13.12186978297162,0.1483542744385542,0.3939628170166193,11.156791485365547,0.5467903628760957,-0.5513175523268399,-0.8705609085902506,509.3871047919882,432.817721138266,516.8014354139261,upstairs
13.17195325542571,0.25175674904010736,0.5306855636498562,11.44412706579474,0.39377287296188185,-0.03523120313354723,0.1903601285509568,496.4026182482103,447.97227270047733,451.31680675804967,upstairs
13.2220367278798,0.5116757153992069,0.4217234858649372,11.393913111814884,1.2334216715111832,0.1272026301553371,0.35930821070096,478.9074899333632,558.6812269981622,496.774693531065,upstairs
13.272120200333891,1.2125673984882297,0.5804150526945515,11.056588690006686,0.5004683333075887,-0.4338398153132892,-0.870277596254244,479.43004957497357,515.8600977004926,524.0796428514401,upstairs
13.32220367278798,0.9896616472228991,0.8217188217424138,9.98317710285918,0.43800269968298194,-0.46652879277196674,-1.0613563707235214,518.069353935941,547.3229344570442,523.0901275836501,upstairs
13.37228714524207,0.5334087679585616,0.061437100931549866,9.064145506545092,1.1240482870842115,0.5019233715764243,-0.7871160832429439,509.98703287347064,503.43178867622646,491.5484234026289,upstairs
13.42237061769616,-0.175993732716996,-0.1185491999672908,8.39261426243232,-0.19042039348168843,0.531104098896556,0.4197031338981489,517.462398499022,498.8302718916357,468.1356221546368,upstairs
13.47245409015025,-0.9669317692728101,-0.485806785500931,8.429570139915807,-0.6563702887903791,-1.701987306553461,1.0493391345418883,479.67284675558784,509.3643684111272,459.9255481709498,upstairs
13.522537562604342,-0.6719919277610966,-0.5846430895479677,8.361461354297862,0.11341692293652388,-0.33688223326001293,-0.00696763515938564,532.3712360074838,498.3447556896243,461.23580249908696,upstairs
13.57262103505843,-0.8183175780164297,-0.6473722513788691,8.315259773474729,-0.3160285698888645,0.15904146679439637,-0.4171422608318996,566.4150299403126,497.5780626884736,401.7944987195142,upstairs
13.622704507512521,-0.9970097694719555,-0.7230196988095148,8.951335836127022,0.8128245883838371,-0.07464328995044098,-0.0014777418887016623,496.863679058513,529.3232754504145,515.4639704756112,upstairs
13.67278797996661,-0.7441802195217742,-0.28151467657034035,10.058335155244134,0.30098310686584684,0.8269689468439899,0.11424859917264354,496.3748067122205,537.8757648704826,479.1662696597095,upstairs
13.722871452420701,-0.06349017942167776,0.07754836901820777,10.594849504185024,-0.16351664599659452,0.29349994767459553,0.4563841783635394,449.7868939164428,469.9117361050962,506.1324539476046,upstairs
13.772954924874792,0.2273524748856759,0.31385633366838017,11.240661798183343,-0.07310706362013318,-0.09756987615458669,0.7346346779991714,475.60636735846765,436.38479938258746,529.3112962944426,upstairs
13.823038397328881,0.8146251427480633,0.42380185011992344,11.314173785983623,-0.48637018524280595,0.05198454557705677,-1.4869457494144576,402.3177563693536,562.7111308394583,581.6211960492808,upstairs
13.873121869782972,0.7542261930254828,0.8038387890001655,10.741358731070335,-0.1934699004890528,1.3580828128628317,0.1701805101868531,529.4792631014202,509.65988135134046,490.16381398045394,upstairs
13.923205342237061,0.8268846230092248,0.6109223159461092,10.79001796984764,-0.24974582525536373,-0.78127565211684,0.556185648453496,432.9347256649504,521.3833340858483,531.2175731088496,upstairs
13.973288814691152,1.0429101903248865,0.6432639737851991,9.900760431792888,0.3266661012909338,-0.0898815933176236,-0.9190327241515521,538.959606029457,436.13150597384544,575.1821523820475,upstairs
14.023372287145243,0.1432614934791388,0.2528435326398094,9.06993025565536,0.11272986991673992,-0.12995032292505598,0.7242739267427304,495.79844751503003,517.2702940426101,526.3746109925368,upstairs
14.073455759599332,-0.16450370310685225,-0.4326067092361158,8.479615338317819,0.20327616260053671,-1.0174137353896149,0.005244771770629901,539.9310632586357,513.6719400987564,527.7071389273327,upstairs
14.123539232053423,-0.49345413197809407,-0.2284575451878721,8.151230435198485,-0.06412710857211742,-0.7188898312452942,-0.2635636710032232,407.7943376449058,582.141297909985,546.7822229266862,upstairs
14.173622704507514,-0.799129102092638,-0.7285496467582477,8.590937624159087,0.3596972881566142,-0.7306551778494051,0.4237307946339269,409.78798742937556,537.5479892933906,486.67076661532155,upstairs
14.223706176961603,-0.9038239294196815,-0.6260945503427353,8.868169613586641,-0.3955569560175831,-0.2715240345707925,-1.099848886038345,533.7501887013782,472.9525255708279,412.8156709288408,upstairs
14.273789649415694,-0.9874872660892164,-0.34212075406786374,9.283619552790118,-0.7365365369540281,-0.3613794280870447,0.08992394014641879,487.37261189833504,517.281009006028,468.4470986365113,upstairs
14.323873121869783,-0.28359066399372285,0.3254466148393885,10.330087027085746,0.35399930964053694,0.7799244248660254,1.820586836198631,484.52150419839467,485.06280024881625,572.8719916134962,upstairs
14.373956594323873,-0.056558793758227734,0.41466219374036223,10.886532969728211,-1.2342972322610075,0.4152538217857061,-0.05503823137831505,497.54983430361216,489.66412850510216,572.0007262573974,upstairs
14.424040066777964,0.5171057920186168,1.0068039603967696,11.44507966635625,0.6359942746103752,-0.4754943419635031,0.32144843095022985,515.0015832002232,474.6054047763968,459.30219737418065,upstairs
14.474123539232053,0.7289765436759907,0.9128682396726007,11.52766582984515,-0.250210884061979,0.8960112432555282,1.5003222258363005,590.4540154036317,453.04887023802667,455.33464060258945,upstairs
14.524207011686144,0.8445817243485125,0.5326835665969448,11.3154679489216,0.7705439533516958,-0.19951054151769546,-0.46536424725256764,527.6560462784184,482.9329082323265,536.4277284529223,upstairs
14.574290484140233,1.1177516626539252,0.5970923343427945,10.022400416111392,-0.5742446761834628,-0.9306246542095684,-0.92570846063529,481.48415372359665,429.9548097587566,465.60388127543706,upstairs
14.624373956594324,0.6680894800689932,0.05501021887372034,9.359469540463794,-1.4560643782810505,-0.6340715902203471,-0.9647804196807283,478.3927415508556,510.52200794596746,482.03368561465726,upstairs
14.674457429048415,0.13474248469121802,-0.23185392351280204,8.900293452462618,-0.2794438620394432,-0.6587939264416308,-0.4598411645442137,489.96239068367777,508.8429242535328,498.3593152695687,upstairs
14.724540901502504,-0.2140400486374448,-0.6700154896031629,8.402523829134703,0.24265077523212142,-0.010312704409352906,0.5217382937556106,506.0119540777179,531.6245509687068,527.7857288217215,upstairs
14.774624373956595,-0.2572807342754837,-0.7567787740211867,8.168628218443235,0.1609221642886776,-0.17805580244258096,-0.37549535465768724,453.4044486462603,457.1536901453126,469.02093301536365,upstairs
14.824707846410686,-1.1503799668080388,-0.7453154495258743,8.722095381556354,-0.286329784816225,0.43949012688741906,-1.249800738021077,495.457620056242,517.2108141565002,537.035108378863,upstairs
14.874791318864775,-1.3573511696509268,-0.4707203784821797,8.979069969580785,-0.874634047114736,0.8241411565440999,-0.4568306574331559,560.5309075849223,467.24538774111556,539.5508535142906,upstairs
14.924874791318866,-0.8165613158410654,-0.3349326181824771,10.0934191447168,-0.5190414984967804,-0.3414072413707974,-0.44407958165440964,517.2654641857985,490.8592813536519,524.0341124620527,upstairs
14.974958263772955,-0.05917915959555875,-0.21274038883493646,10.77333238295012,-1.4306345022049098,-0.11293710555198427,-0.6742435084054301,473.15342490350287,508.83627765546413,584.98034358616,upstairs
15.025041736227045,0.03963286762612722,0.27221882286770027,11.231231561334887,-0.48100614860179375,-0.45282747742791934,0.41497592133504685,492.85281224322256,580.3872884242882,522.3065468522606,upstairs
15.075125208681136,0.7571207728388989,0.6176907893402237,11.303595716708484,0.6386560486864943,-1.081272670433736,0.4945268593282008,489.0161205789479,501.00433361898104,559.6814172899946,upstairs
15.125208681135225,1.0538365255992261,0.7534052841874657,11.206309810749849,-0.2515990982233368,0.693969814040878,-1.3421842956072516,521.9802443710046,461.8699802518628,499.4045527866273,upstairs
15.175292153589316,0.9849840475005985,0.9949334166271719,10.488692118833118,-0.3187389991137974,-0.7117108089585333,-0.4242059293712041,550.2475637222187,502.69579355343507,490.82503062802726,upstairs
15.225375626043405,0.8783697399441426,0.07079955370641777,9.737469054198568,-1.4159986334788046,0.2862789080594517,1.8166461552042052,579.5633704671098,540.0880896872111,494.534844716936,upstairs
15.275459098497496,0.5159712793597406,0.09369374204864298,9.156220469811725,1.6603530488700657,-0.0786492693334576,-0.7312180943961996,492.43544732403853,485.52504065158473,461.34442934046456,upstairs
15.325542570951587,-0.07751403757754802,-0.5101064848748562,8.584644485285555,0.8042646588265798,-0.7406022540675311,0.8158978012343965,458.9925156320953,467.5775381364431,488.08738155858083,upstairs
15.375626043405676,-0.813086341563957,-0.9197546398090217,8.239486082087033,-0.673199421622012,-0.5873231724976598,-0.11190297255037754,521.9576794881049,444.0828980378743,532.5963177660698,upstairs
15.425709515859767,-1.0005187162814768,-0.6691175624825032,8.253024199215513,-0.7757980357643978,0.5787776425228806,0.04197447008939653,524.0634215801862,484.2829928381522,465.0438150078129,upstairs
15.475792988313858,-1.252042774954469,-0.42152673034070137,8.854719533033728,1.0707579633507147,-0.3802047514927537,-0.805249408612578,475.98968847210347,518.3296602374764,450.1960370284965,upstairs
15.525876460767947,-0.9691969393955009,-0.21916056045623084,9.796885648031594,0.6347133490107972,-0.5982801766703317,0.6807510693703092,535.3797529145461,503.0136621242858,478.500043433459,upstairs
15.575959933222038,-0.5930575506768552,0.008163622487670975,10.233872092248907,0.08296291033561332,0.15984404547903336,0.8257416679559761,501.13173171114084,444.9411008957337,521.0468468755568,upstairs
15.626043405676127,-0.03193102303538061,0.1015393634514628,11.047387251769562,0.7313137346277329,0.7694084699177204,0.2943241316879226,495.8192970555718,533.5335346030579,563.1797182044986,upstairs
15.676126878130217,0.4011412104254164,0.8810936608290643,11.459387110699938,0.8932742587860463,-0.4499440571021851,1.1741494848488818,451.9303080625202,475.2246503570275,583.1878895939786,upstairs
15.726210350584308,0.7063899375827162,0.5170376845065462,11.460329960524048,-0.44278123098421335,-0.28894177230227225,0.5765494713021649,527.6516135910472,479.9397062225821,626.0645372848549,upstairs
15.776293823038397,1.068520059730011,1.029193968477398,11.049906953192595,-0.5787670885580882,-1.5042699117897913,0.5109901177987295,421.9528521934746,513.567699754842,440.1717155146137,upstairs
15.826377295492488,0.8993732079430038,0.30550623026181634,10.417583760797843,-0.811931297850215,0.04769476352961636,1.5211015160434243,440.14414666523817,503.8787212581061,501.71142886198925,upstairs
15.876460767946577,0.4953968475016128,-0.14126057445430207,9.42893408940864,-0.011095302006610502,-0.12877009991950836,0.19391993461893517,531.1914300723961,457.18559349078754,568.2825374949387,upstairs
15.926544240400668,-0.07092077059417241,0.3903690240391707,8.813407351265544,0.4637410357809563,-0.05426643470000551,-0.0928349946578723,537.9213818461577,548.1525830546904,507.6384208975091,upstairs
15.976627712854759,-0.2978681650135656,-0.5123667426516558,8.07901853255223,0.430420432650475,0.5363945625905904,1.200428539796517,429.6266339800362,485.3766133312487,479.35911707470376,upstairs
16.026711185308848,-0.9249168973633869,-0.8481464793939049,8.410724425864814,-0.5646129682012967,-1.3382009160662982,-0.2701608195996178,485.27244980916817,486.94730528277216,530.023556491091,upstairs
16.07679465776294,-1.104728194592089,-0.5837577063208121,8.774812735538484,0.376007396644838,-0.027515665573712596,0.5097058806824717,540.1953525180883,525.9780077057396,533.218797630377,upstairs
16.12687813021703,-0.8539755860804241,-0.8076097297846876,9.253204678092365,-1.3324317505417644,-0.8763540413557588,-1.1818473277076822,476.6316480218775,478.1642786946718,448.7756491896156,upstairs
16.17696160267112,-0.55772300332199,-0.14078557904293115,10.395299500253046,-0.5105048265366197,-0.11730072937617647,0.34081803453589193,460.9821060427378,558.4791181018328,509.1850687251604,upstairs
16.227045075125208,-0.15582191305532678,0.44296319596785827,10.775278440851825,1.3193139646985395,-0.25998976726858297,-0.14032751681964922,483.52100237191985,456.8987133594025,486.20272579205135,upstairs
16.2771285475793,0.41174140683200544,0.7042549669145126,10.970340378119669,-0.5273849477321221,1.4934447028793882,-0.4941433131969476,475.44521161171264,454.3924824192388,545.343825085471,upstairs
16.32721202003339,0.8764281416975737,0.37526707049994307,11.426869744976218,0.5731124480880823,-0.8964109991066617,0.9424873260033143,517.1900600809638,444.828568575091,512.6522892827908,upstairs
16.37729549248748,0.8067524340260214,0.723881650748819,10.906842878121077,1.3505129610805655,-0.8040250485593277,-0.06754770869306363,471.657276464005,447.5999410298889,528.0046294885198,upstairs
16.42737896494157,1.1293513603041192,0.36761056464873826,10.404506424970918,-0.5960830991085939,0.15667971133370112,-0.3461211821314094,463.237822654111,503.1184449570136,475.6495036559317,upstairs
16.47746243739566,0.7228701638679976,0.4812680450632486,9.865222289674993,-0.6280137221282063,-1.2065181519770816,-0.5084783904424285,494.38674500415055,539.0348944054198,469.159525326302,upstairs
16.52754590984975,0.48266284242189034,-0.1270996838327808,9.258341555132885,-0.5232031031992077,1.2706703960002144,0.7453651217151864,520.2042360455486,537.7652869699598,509.5781583812594,upstairs
16.57762938230384,-0.17814392042104152,-0.6375273471634693,8.143472818660573,0.8410880815415166,0.5098725876700012,0.3351501588142688,462.6592109926961,492.9885881701436,479.2329708897217,upstairs
16.62771285475793,-0.7262952790667097,-0.6217996085866615,8.376096750246884,-0.07425774663868032,0.5056519365959432,-0.1866573688763357,577.4639723379009,462.58420422431425,485.28769205914494,upstairs
16.67779632721202,-1.074120899871641,-0.29924518725816585,8.371800018714419,-0.6415322880771955,-0.2275378845211788,0.5223975760981898,470.87004909841033,488.33023600221514,537.2039307809591,upstairs
16.72787979966611,-1.1301392776273287,-0.6587038285690092,8.6213806847157,0.02443910428821995,-0.8153745246493816,1.4432180899578022,464.8695267142778,452.40973087348175,530.0887439191554,upstairs
16.7779632721202,-0.3410761876472212,-0.24763227899372803,9.670518056546008,-0.4439810770080661,-0.5831236323072929,0.8934953798837431,500.20829813740363,547.0214237252617,470.09156923240727,upstairs
16.82804674457429,-0.5527226639896253,0.2195171930461149,10.3591500628991,0.8974230345979998,-0.469300878255354,0.4434986733021642,506.1442191640971,455.18411708091804,468.53070858065695,upstairs
16.87813021702838,0.04150278017594301,0.5551328099435592,11.592564133211809,0.6580291385873781,-0.050904603972368144,-1.1902058857485092,566.1591410140712,478.2119194751012,469.0491291692326,upstairs
16.928213689482472,0.7657829040045014,0.33915892574656803,11.310422349422362,-0.591602354494562,1.1780811141107732,0.2194560426197861,485.059578971355,483.1915889176215,516.0786320443606,upstairs
16.97829716193656,0.826682731685496,0.8035735756246352,11.453993784375681,-0.46355873822584553,0.2929381989333427,2.024507928582711,552.6243846266331,536.556848373832,512.6750263217422,upstairs
17.02838063439065,0.5548315910013077,0.3057880418726864,10.903034262585015,0.19720314081046203,0.8864319981521607,-0.04018426868501029,523.2547874343235,435.05941311209506,457.43496102855715,upstairs
17.07846410684474,0.7920054217225992,0.3022098174353958,10.734592584456287,0.9688062362284374,0.792555178649801,-0.8227372369084474,510.1341301480671,475.8948951189508,509.1479853366632,upstairs
17.128547579298832,0.7301910758844927,0.004548636891748378,9.475374957430054,-1.5706542985889242,0.3075872263576719,0.4927313385767629,481.72342067765163,538.5914482928557,490.48336539659454,upstairs
17.178631051752923,0.12715550143190724,-0.15865615155178042,8.36461163469276,-1.324308804685803,-1.1851847221244334,-0.8663191100559247,517.4589808117041,492.3692196097692,453.4844765773,upstairs
17.22871452420701,-0.6614379095564279,-0.5726522940128991,8.330878380677408,-1.2451787328350743,-0.7383779516889802,0.03061704549095432,459.76379505572504,572.1429900198406,569.3048788988436,upstairs
17.2787979966611,-0.6308861187662513,-0.8135256946969374,8.232073969913706,0.8428024258067776,-0.28502678447644325,0.5079622156203472,518.2100180557463,499.2133486778548,467.5712188106998,upstairs
17.328881469115192,-0.8199859391649383,-0.3452812366965447,8.52601157184908,-0.8773308119095659,-0.4891509991267139,0.8769221255359686,572.8100974139522,456.15751074806,535.1660650077955,upstairs
17.378964941569283,-0.4204529192120652,-0.3440131097355693,9.49463894646295,-0.048872911890289424,0.34016752325169514,-0.34798186767513606,553.794141340249,556.467910145825,513.4677412602081,upstairs
17.429048414023374,-0.9303113216418514,-0.0013480852599812576,10.060082539426052,0.12671852975537765,0.027816310062139808,-1.4718374942109378,441.09688513024133,494.2492232622984,559.9987242325294,upstairs
17.479131886477465,-0.09023111099526959,0.7509704608047361,10.55706504550848,-0.23094478224584003,0.3237373431492775,-0.03856734027524192,504.78298116166013,435.9411555313169,465.11660195598887,upstairs
17.529215358931552,0.23067224883357312,0.5140051167038167,11.336588599968334,-0.44075729361606486,2.21174851617885,-0.345433935825475,487.75170884340514,478.21126352798086,471.9868421464641,upstairs
17.579298831385643,0.8168131872316187,0.8823949967459195,11.532293763738828,0.3969929398357118,-0.7470748897655995,-0.21434182334328675,527.3226026469317,514.7572123844777,454.55481635250857,upstairs
17.629382303839733,0.6560103803340522,0.2863376376265909,11.174406798639717,-0.5753139324207031,-0.3469203019827221,0.9679063898269298,541.061638951472,451.1112977979585,528.3102141732033,upstairs
17.679465776293824,1.10056005409311,0.5006678986074581,10.58415954175309,-0.6946273831977571,0.22976636518579643,-0.9378447417586024,495.865875090374,525.1440536764381,447.3162244723893,upstairs
17.729549248747915,0.8352613867554883,0.3658515923279053,9.410016892968903,-0.13109261415341703,-0.1329133861985245,-0.05762166256404082,543.477441171468,540.3881844418337,560.4150413192153,upstairs
17.779632721202002,-0.10753502172189933,-0.07337433712939379,8.676123466632472,-1.1397051916920273,-1.4364546974152712,-1.5046087102406804,504.7320831516934,485.6712655479542,549.7509977383386,upstairs
17.829716193656093,-0.34734537553527045,-0.5746762669900811,8.280521933995898,0.7879603230891915,0.5293566027891258,1.2509694556912367,505.3732831141841,434.12262380496395,464.411895359041,upstairs
17.879799666110184,-0.688082097551053,-0.6606774631308874,8.236186329275991,0.2776523220581314,-1.4758035861999388,1.0855650135674109,533.8252628239696,506.6302106586832,511.72467331612296,upstairs
17.929883138564275,-1.1241979396261987,-0.7613918294797608,8.545790774029673,-0.6908577939689584,-0.42066210967575984,0.16635617311969111,514.8786755313321,550.249708077903,530.4233631257415,upstairs
17.979966611018366,-0.8665492530143454,-0.708525293372094,9.000800753465741,0.8089181665547915,-0.24392945507252353,-0.17704853269999993,505.7966726866661,495.95606343672483,520.8190881371858,upstairs
18.030050083472453,-0.7148610583632438,-0.46059920093451195,9.928669555410172,-0.1573344575277481,0.45869061054584087,0.4352154132186967,463.834362936312,521.87434809224,498.8895653098446,upstairs
18.080133555926544,-0.23519468096867124,-0.44682217054615286,10.689357767496613,1.4576689604115685,1.2445720019454238,-0.6208469058156278,462.53564538523045,408.9034089009025,526.4073087712804,upstairs
18.130217028380635,0.4320863538015101,0.2291837382465406,11.305619150362059,-0.48460699736529705,-0.3647392586558429,-0.02615008565729579,553.3159808405323,494.7561449747624,469.1272810729142,upstairs
18.180300500834726,0.8525644389271425,0.8412538392784588,11.675403052904958,1.0427236377603297,1.7289405414584846,-0.5842239408313623,553.4066741542593,473.6941170922623,439.43681931251325,upstairs
18.230383973288816,0.5572056078067256,1.0682269470188108,11.306157840062541,0.5178589882237097,0.0327013959821709,0.8242378162189595,515.5146335482468,462.64247328178726,549.8446259965928,upstairs
18.280467445742904,0.9783087474284567,0.37419098126249073,10.711820357585554,-0.6901999798650631,1.0257818490567074,0.6571712793009045,479.9962245657522,489.9971906212612,469.0772286884526,upstairs
18.330550918196995,0.6563739824508321,0.17970661339853736,10.226570106002013,-0.11740342121391048,-0.3598907218213597,0.6664782669568836,456.31776009793396,501.99260253793267,484.02564196440204,upstairs
18.380634390651085,0.20372162923520787,0.02833938420292817,9.42578909247757,-0.9715647296587792,-1.7175509571861498,1.3412970451474377,517.557905855503,442.36327254016396,543.6592429878253,upstairs
18.430717863105176,-0.24364554616256962,-0.15294457774853712,8.918475560966717,-0.427473327623124,1.5588556777533413,0.01256236965410423,525.9137851214808,587.404541599859,513.445053402638,upstairs
18.480801335559267,-0.6638646737347955,-0.7142837103389839,8.256321477021519,-0.45182221718857746,-0.6827876125865076,-0.6248343984657536,506.3822481377507,474.18894047989164,491.07127841348125,upstairs
18.530884808013354,-0.7077738344560335,-0.891882071924269,8.335841469459702,0.4422740353585759,0.1400065751485075,-0.621467192046828,590.6216610794443,553.5010578355424,488.5035751790797,upstairs
18.580968280467445,-1.161080997548155,-0.7208267181853016,8.48155042953713,-0.3185498130975371,0.4011201105165761,-0.3375860565015794,484.11960978634136,471.44181212930073,497.34035596265375,upstairs
18.631051752921536,-1.1440325174559467,-0.663042051871398,9.471798879757921,-0.2022108902428183,0.29614798131780484,-1.2029253292373496,531.0670645959129,475.31224308283214,443.29022578268183,upstairs
18.681135225375627,-0.6788241605453351,0.0391798964595165,10.402727678399302,-0.7424223737378097,-1.3161654748693663,-0.2264974029250555,530.7442753325932,488.0445965288429,488.16752092393256,upstairs
18.731218697829718,0.16319576726150248,0.3448678023085472,10.701364544278892,-0.25137042268512344,0.5780257349021615,0.9940603960776968,431.91587202614227,522.9880879272486,522.7946157598624,upstairs
18.781302170283805,0.2291525027240926,0.516750156114549,11.412108509408375,-0.025104178485069593,0.4897849824853231,0.7300326806589337,506.5094911887854,491.93188258612264,537.2685483099285,upstairs
18.831385642737896,0.172051806145055,0.5246083153086494,11.7567113606485,-0.38293947159386216,0.048776456626055384,-0.5212007027225721,399.64209686177145,467.933770995443,447.2268538156394,upstairs
18.881469115191987,1.2363411476993689,0.7472047182337889,11.232041223212118,0.5064025808817587,0.8184984203125564,-0.811185867995009,548.5422276687412,553.8691729063479,514.298750065336,upstairs
18.931552587646078,1.1525199147717777,0.16654712386568293,10.061295130937394,0.07167554005985308,0.003849776661327758,-0.8884086962115464,483.4943878953884,459.4525594294974,523.2936979338332,upstairs
18.98163606010017,0.608634278144405,0.10454654310138084,9.530234223809659,1.726864694694215,0.6159657485327643,-0.5748440371481928,534.8244094777782,526.1185475371137,543.1390439241279,upstairs
19.03171953255426,0.40499453385807843,0.08928993213632558,9.22270823028273,-0.3196532314633159,-0.2780679326546869,0.5847753558735168,494.7775578224222,448.7869749881706,489.723366674258,upstairs
19.081803005008346,0.028492292062887392,-0.5210656002673888,8.22520017110295,0.5355207205978241,0.6201309009622578,-0.6809003060571661,483.65638800424364,471.8448222934661,439.3789221189585,upstairs
19.131886477462437,-0.6190020611014136,-0.760141151624774,8.034423000203772,0.05598661060134516,-0.6655299064924716,0.035323140015595986,474.11792552318633,462.10766461264967,448.9818722743003,upstairs
19.181969949916528,-1.0442621856850975,-0.9115504739709792,8.888405046285516,-0.8119147555945333,1.046836272596165,-0.6650997561735754,521.6459766869608,433.7941798346777,480.2726112768231,upstairs
19.23205342237062,-0.8726499092606766,-0.4674135364142796,8.888493004528469,1.0281891804918075,-0.0012346171013140575,-0.03305300287550851,501.03006866356486,498.5651253777776,466.9881507570266,upstairs
19.28213689482471,-0.9437805324838722,-0.3788347747574104,9.545540697978801,0.09232394670301147,-0.964818658318723,-0.6131247435220245,438.4222822042426,465.9154438802997,466.6898627727239,upstairs
19.332220367278797,-0.45466532976259705,-0.11797353414747819,10.434540742737255,-0.12506475753720483,0.6645796305116515,-0.3798227822392045,540.8545804793232,470.91565734562676,463.7674044381141,upstairs
19.382303839732888,-0.18716247821722037,0.7485409113481152,11.15458713599252,0.4396644141963072,-0.4662777730365689,0.5933494606411206,512.422662906251,478.9494346820112,464.5311897137563,upstairs
19.43238731218698,0.540561389038806,0.433624697769313,11.50790864292639,1.0529404107541327,0.11857446639593315,-0.39303281570325366,563.7526774263424,510.330287944047,514.7683069631476,upstairs
19.48247078464107,1.004870310287711,0.9486107962950747,11.239957073037232,0.5544523378139358,-0.14122093610669714,0.30884717855850347,468.31565700041705,543.6497122727465,506.23564391146124,upstairs
19.53255425709516,0.7354749920606174,0.5420705601538817,10.457528350204976,-0.488160759578197,0.06234628358776457,-0.13268486820889158,528.9630556153645,551.2570411372637,503.04412562207017,upstairs
19.582637729549248,1.4574652750739803,0.29966721004121616,9.938401608377728,0.49665372958371945,0.05404208991493641,0.51009254478865,533.3083765939264,545.0950856583692,539.7777534735949,upstairs
19.63272120200334,0.45920227577192246,0.09284049688139984,9.115833859629245,0.33198109281566884,0.7284473099474005,-0.20268138876915923,479.3683958254153,488.3139238322722,480.5611673728045,upstairs
19.68280467445743,0.0035860975922323846,-0.38801120660878374,8.676646350871692,-0.3206399729946225,-0.9846461951031074,0.6041543145178159,523.8092220486891,518.6163085685009,540.12915507619,upstairs
19.73288814691152,-0.556462508165299,-0.5994857489423373,8.160640077455922,-0.08998755963621055,0.4442607777469524,1.1309582534073295,520.7572755414732,521.1300076613834,456.2543659449396,upstairs
19.78297161936561,-1.1894050878079354,-1.216053633219391,8.39967233393385,-0.8352230853137388,0.03694142173407725,0.11033475651099,540.0356310213702,495.8050671093345,517.3126703068164,upstairs
19.8330550918197,-0.915307848113477,-0.5608785195100678,8.367036879347896,-0.4352580075227722,-0.7059244862014383,1.1614627916612539,507.043668980344,446.81009042984925,508.1051696729784,upstairs
19.88313856427379,-1.0297564461276778,-0.4011606524928534,9.374479931591937,0.029043432754840937,-0.8221664036615897,0.41692406021242323,491.57760891796914,401.7800916115412,413.8445556738393,upstairs
19.93322203672788,-0.49409246649341293,-0.22226091892329541,10.199420105085949,0.08443292821417697,-0.07352775350065194,-0.14789652945773052,483.98346524009673,585.845635652971,485.9393362689013,upstairs
19.98330550918197,-0.4497797306956574,0.3225088959268072,11.203394009539563,0.2774440215573445,0.7231243464631237,0.48706273441446113,470.3673490090605,521.207612038233,543.5211720359522,upstairs
20.03338898163606,0.3111443686127176,0.4318107734743884,11.063437049840815,0.08044617024125075,-0.10001242547662068,-0.18046648803470883,484.4869215337864,500.2622545303391,489.16203563344175,upstairs
20.08347245409015,0.5539466964184332,0.8468220194901992,11.324059474607827,0.5107110038084602,-0.8874052405106035,-0.5675525912200818,517.0028587265748,462.5350439415113,419.9897669874829,upstairs
20.13355592654424,1.2319680228025636,0.8461593961580358,10.797545551422555,0.6420391758896811,0.4571390721892665,-0.7819646835954291,521.0883659152227,496.18888950767905,440.01324882633565,upstairs
20.18363939899833,1.2049343617913197,0.6149880102644121,10.342383428018845,0.25550808650425977,-0.23157617901614527,0.5176764697214083,563.23503861086,571.8044494470604,518.5033269668055,upstairs
20.23372287145242,0.7714164126860861,-0.015801380194977677,9.639053416190762,0.3645865641051012,-1.5172615218467511,-0.15721432525718818,474.96387245646736,529.5950277623377,516.5449908213284,upstairs
20.283806343906512,0.1698895627806269,-0.012266062632140223,8.86244869301678,-1.3001920908980964,0.8973096001753619,-0.7321565216630961,539.4943351606165,547.6854350388919,466.09600043314936,upstairs
20.3338898163606,-0.4031096479556559,-0.7180828791361678,8.157061792377197,0.6442284514545769,-0.19558604658400378,-0.7684041014448082,528.3310824493823,503.1594895366198,423.46816830221957,upstairs
20.38397328881469,-0.5845084319862685,-0.8655383480338947,8.120790863586013,0.014416227792282634,-0.08310677470635121,0.45712383378301347,497.849386096699,466.75290627151685,452.6347007921572,upstairs
20.43405676126878,-0.536198426498949,-0.7187772970196133,8.458815462694563,-0.6235867268438896,-0.7291487058174349,-0.39459236452775054,481.4012368580396,484.5085987016175,511.0764647634795,upstairs
20.484140233722872,-1.0264441519740704,-0.7164109390827758,9.449828555057247,0.6406496161706748,0.1404352826760274,-0.6111255191102862,497.65762188809896,493.7823959008655,486.429291736491,upstairs
20.534223706176963,-0.9132442186405466,-0.4401565160513124,9.975045079941243,-0.03291861529895684,-0.04753388843422964,-0.5392515116596776,506.37090150708696,524.2600152770826,553.3751730817166,upstairs
20.584307178631054,-0.4370173795843834,-0.05458859748761359,10.705407583795969,-0.5095410077623935,-0.6751649318651152,0.8954912041743655,559.0100295806061,512.0327717668899,420.47477886639155,upstairs
20.63439065108514,0.4212989457350193,0.7841468656082027,10.892408053620455,0.6633580804820116,0.05506108393353615,-0.268624771147751,483.1745944138652,444.46883204201606,541.4571339240354,upstairs
20.684474123539232,0.6638470585713435,0.6874630747844106,11.949206660397222,-1.1985492857144235,1.5449003238953853,0.6378818892042158,483.11314056900295,505.5675922161215,509.69580130990994,upstairs
20.734557595993323,0.9842747343073907,0.5092924095101916,10.92271433949164,0.896630253058196,-0.07612137174802579,-0.25237696659277337,435.8865224629115,550.7356657527326,454.8034763433741,upstairs
20.784641068447414,1.008330776276899,0.7433145583368188,11.227559332108411,-0.682408267986703,0.6623461708280873,-1.987397406218951,571.3809721186243,489.66117660848863,500.34592005806365,upstairs
20.834724540901504,0.8536091863040705,0.20677504721687967,9.938778329838218,-0.048695624074503355,0.23166641356951845,-0.9651111274811945,549.3573607837086,532.4386643641096,569.5735430751888,upstairs
20.884808013355592,0.19634047900600227,-0.0861851624838143,9.335194326211552,1.0531238671887535,1.5821576216858182,-0.04762789745763355,501.0448095202092,456.383865162827,529.0407120091671,upstairs
20.934891485809683,-0.04975461681260859,-0.3194773665180525,8.82358450455052,0.334667811968227,0.031951565667634046,1.039881039201697,539.0744507296023,561.1937731023494,451.43387204277917,upstairs
20.984974958263773,-0.4724745502907572,-0.6044428603971386,8.21949955143876,1.1465140831020442,-0.8356490144012382,0.4912130363375686,431.97438685935214,466.85664930944415,558.016666606406,upstairs
21.035058430717864,-0.8626791980449454,-0.24765046218335257,8.140139450908498,-0.25726439558398884,-0.7768242162102121,-0.27389072670776143,521.042974481903,537.4185417148875,483.3684269233581,upstairs
21.085141903171955,-1.0972001356687207,-0.880004156781776,8.830073800441385,-0.48814223511696053,-0.40759934314087715,0.31875676850529466,432.4568354100281,478.58601136275695,531.8654136016758,upstairs
21.135225375626042,-1.0883346770358315,-0.4098631948442051,9.37783263108514,-0.31841331537149914,0.2844940174431581,0.30662019228902043,463.91485938936404,505.65456243644394,534.1855768084633,upstairs
21.185308848080133,-0.3792569839782378,-0.3152607279491364,10.279152924144189,1.658080135380683,0.23263913914169054,0.4496675373492879,537.2677383724342,458.3989398127518,410.3045025418603,upstairs
21.235392320534224,0.03621394029072711,0.09691262468236464,11.14425195049997,1.087869040751082,-0.9245523561284046,-0.8121872569269144,535.4430875051323,485.30785193355865,548.966936059546,upstairs
21.285475792988315,0.5585968039076977,0.7436587384447213,11.044121943809527,0.34003001685352535,0.7403445945224333,1.1122167395255165,453.4201512276285,484.898006904174,486.1080537735137,upstairs
21.335559265442406,0.9017326088432878,0.8055685940521697,11.444567500308482,0.28810476602604035,-0.22698488593724597,-0.5694802981432499,596.2456322861219,453.72261753174485,462.1003193548616,upstairs
21.385642737896493,1.0873239410489055,0.72167321657046,11.110847486691556,-0.6833932308128257,-0.2779404166252724,-0.5954727962174585,449.88935268183013,518.7065830402556,478.80423478916657,upstairs
21.435726210350584,1.1215038044836139,0.737580850331943,10.320360392550345,1.2302130162203184,0.09579701370116725,1.2043094648306838,506.2258845726008,543.7743865361208,517.0455284309871,upstairs
21.485809682804675,0.5058805382145295,-0.06506096886455864,9.617564778779876,-0.776102672587779,0.02566769563908833,1.3697197040564275,479.88396319211654,556.3575580378446,446.77242379522323,upstairs
21.535893155258766,0.5907195037264708,-0.25851277912143017,9.173296265138038,0.28736641724667794,0.05410356307582204,0.9125609858865311,487.0803234959982,565.6884777537914,496.7520422203328,upstairs
21.585976627712856,-0.47703716830016335,-0.46728325775171214,8.22413533908813,-1.1382836185551763,-0.48851714410603686,0.8551599250411548,410.9201446178025,523.2050645437197,457.8728620981206,upstairs
21.636060100166944,-0.7275979968822799,-0.36489923937290675,8.266467659734051,0.09681606836893673,0.15913636657465471,-0.5784377392750758,441.68241806735466,515.1708069654061,436.7669379965667,upstairs
21.686143572621035,-0.9458915820252364,-0.5766274812721577,8.357916055876299,-0.19534477748220813,-1.040616729702924,-0.5947945233899862,506.01111904930764,485.2004854437374,549.765105131503,upstairs
21.736227045075125,-1.081271827413398,-0.4644116115426307,8.567973900520299,-1.227348666827235,-0.8223280565010433,-0.7834327775173361,504.74791965804854,465.001992879565,557.8824768544746,upstairs
21.786310517529216,-0.89967030185299,-0.18750573319004815,9.840622361019339,0.5857949025441491,0.091581570813112,1.3489506311674797,434.56382945405136,458.07099406802735,500.34814616513,upstairs
21.836393989983307,-0.2101616817815825,0.15025797171057123,10.5588541976253,-0.06077404132027767,-0.5880992277535051,0.5719966097257269,489.58808303084777,494.0497597316301,461.73796156761364,upstairs
21.886477462437398,0.25400089901453704,0.32380305971453743,11.176049456475011,0.36946072717718437,0.13058937569802026,-1.2833004247986637,461.0198107281883,505.9967118912982,495.95424709486605,upstairs
21.936560934891485,0.9723406472076718,0.7627607044026887,10.93931797572677,1.165880310023334,0.2724406708771211,0.9604063847337934,539.8441528244032,423.14988164390553,502.87820432076023,upstairs
21.986644407345576,1.0593779895329856,0.7609019429617321,11.136705391249174,-0.21146603521640195,0.3288696857010011,-1.1058500031201006,412.8482360018073,495.9539542401209,517.2929905850062,upstairs
22.036727879799667,0.9392111466364027,0.6508888964089741,11.062354183494556,0.26324220965782863,-0.6851033284330937,-0.03276928384462304,493.6286308625158,450.4499832114024,479.31899567621525,upstairs
22.086811352253758,0.8194284078174225,0.5775502647552726,10.081544252763525,0.2926712052323683,0.5604185005401,-0.8629227882374425,572.1052686237001,522.252759064881,624.7446828025891,upstairs
22.13689482470785,0.4261521363842942,-0.38344005078506094,9.45233059057412,0.014869478243824539,1.0472091668380152,0.21524063836357704,537.494215375555,450.09515097118015,467.2637122916918,upstairs
22.186978297161936,-0.3844324723143404,-0.8846210929529983,8.732447143271397,-0.6670590912871579,1.0369927947772908,0.07021759918954319,558.8816289087692,511.88699678260537,504.8587676351438,upstairs
22.237061769616027,-0.8112674396743531,-0.27272305375437295,8.42475962602345,0.5075758881989981,0.2825341092866209,0.4682443040823774,484.98435004488016,541.0916732102634,530.781699833522,upstairs
22.287145242070117,-0.7418334489465983,-0.8630376288649124,8.089380985052754,-0.08988958119841534,-0.7675888046819678,-0.14570793930682557,474.7512222949084,483.92711176780045,428.99673806465444,upstairs
22.33722871452421,-0.857351865936056,-0.7514435062921359,8.663440002750646,-0.02267342361559542,0.7855125158018942,0.44206883129526664,528.6498238945944,497.3163770368653,397.08775127297037,upstairs
22.3873121869783,-0.9070077196829011,-0.5102649840748434,9.160867394668406,0.6114672706128701,-0.474979914061122,0.12411483216282744,527.8387739642307,507.2287778267599,454.18995566818046,upstairs
22.437395659432386,-0.7315935397510565,-0.09141220599394723,10.087590874838018,-0.49739340752543926,-0.026291576564130986,0.6406571209084275,486.05181714263256,542.8486123935586,542.5988025902205,upstairs
22.487479131886477,-0.1643696159785265,0.23111595653344405,11.038465051580074,-0.7394894187935233,0.32379193663673794,-0.21193645706391584,479.93428665549004,471.861386131981,505.7659216639548,upstairs
22.537562604340568,0.1270564374782815,0.6352877972468474,11.408284259410538,0.8921121281884247,-0.7131924537430091,-0.10849633239582014,448.5716908920694,545.0320494621836,499.58623818424905,upstairs
22.58764607679466,0.8081224775255579,0.47572076126190066,11.836311553628981,-0.15986725642489702,0.18212570726054428,0.03489565213527465,506.096190116072,471.21676036278814,503.89397781545176,upstairs
22.63772954924875,0.9901397188704436,0.4477229909716943,11.03255258338854,0.7342008540777628,0.13718398170336946,0.5189193027659165,536.1000237914201,582.5591371074038,504.4734287349379,upstairs
22.687813021702837,0.7762636031089665,0.21837604930179333,10.389083716097227,-0.7937077131983243,-0.30580837099168234,-0.9958299820946315,455.0940994449547,530.3823824345316,512.5759850236072,upstairs
22.737896494156928,0.6224636060350625,-0.4452814756289439,9.426925453783676,0.14874135882625233,0.35597646385671183,-0.3326499755029637,497.4857467801051,506.5686897456205,549.4727243608171,upstairs
22.78797996661102,0.28242587825493426,-0.4782945569876323,9.055451108217685,0.24365537019691497,0.35082419472591175,1.2161879823325652,474.01747253350464,508.7568158047063,495.86456434920336,upstairs
22.83806343906511,-0.13125864029643336,-0.4437900540337925,7.955764159129408,0.0678688187287269,-0.3468571611732445,0.2819414539202805,474.25269638370645,507.7813952049797,486.5526321718687,upstairs
22.8881469115192,-0.8642099055728696,-0.8263398213855659,8.450373089055185,-0.45348300917150824,-0.2942419617550396,-0.088286123113419,540.8831539406577,519.1031365980978,536.0127374656684,upstairs
22.938230383973288,-0.926305875805941,-0.5527927956264971,8.578943201770219,-0.34960165875623256,0.17987723705269998,-0.7014556558085532,505.4942090643439,531.5790118809807,487.012804275193,upstairs
22.98831385642738,-1.21956001122329,-0.30321810293528806,9.099415095992912,-0.8589126994510682,-0.08414041451352336,-1.5037931895418741,466.1320326377937,516.7734316810729,564.5786438719131,upstairs
23.03839732888147,-0.4740216677653658,-0.4205376707662805,10.018166538988654,-0.18821730911273069,0.07851683331797946,1.0950385711671426,523.7354013331378,485.326745320903,582.5285365935326,upstairs
23.08848080133556,-0.20496827368502474,-0.1369387348749792,10.435936876290901,0.9585386081024481,0.07551521761666344,-0.6705293512178205,466.30242826708746,486.32566652479164,472.7371156487168,upstairs
23.13856427378965,0.07522562158876427,0.24604217450866261,11.600912114651283,0.45461082234490163,0.651909910732883,1.8237288913461887,513.2481944028361,585.3250475824179,521.2512921316704,upstairs
23.18864774624374,0.6219526898008636,0.7939996039888393,11.623056196053396,0.8961226587797192,0.4296980841750618,0.7416937827723376,504.61930432638235,444.8119391558648,480.9721696767919,upstairs
23.23873121869783,0.5709179470763011,0.5760828499595829,11.328840294683028,-0.11801439125009272,0.9438182783158492,-0.5336926095551447,549.6401392351838,488.12845660184047,527.0324375111697,upstairs
23.28881469115192,0.8445174474030432,0.3844459650899311,10.667256356876752,-0.3395864324195993,0.5898205311815897,0.5044087236684153,432.4083692831172,489.56127772080214,478.39379358102406,upstairs
23.33889816360601,0.9004615014026325,0.6211101684380296,9.462402854093058,-0.11808595572724088,-0.17667192493708192,0.9201260653385178,430.82546926846294,530.5900743379857,505.5772310387652,upstairs
23.3889816360601,1.0015261673963785,0.5488709884528278,9.315492268596355,1.37070287121467,1.1800848807350812,-0.8698260927823372,510.41334904206514,456.51378580526506,492.94245401793177,upstairs
23.439065108514193,0.03535019986647771,-0.08684931454637451,8.402825909929637,-0.3361401997863595,0.7027152157653878,-0.20990610230293905,488.0753988762634,429.77575233180545,524.5708924180839,upstairs
23.48914858096828,-0.6677347437972299,-0.9506115444991885,8.528023193293846,0.9430263410241048,1.097651544360903,0.5571435105758801,477.0101634954958,550.1995370600639,561.5681803721058,upstairs
23.53923205342237,-0.4707821945217483,-0.6824652326807303,8.145540467724897,0.1159117227353641,-1.4236087158105708,0.43057043495125374,481.0364714840957,531.1749810208042,468.7170827240868,upstairs
23.58931552587646,-1.1190763191952344,-0.6472463932315358,8.727062859643057,-0.3672799195839977,-0.5675075098633636,0.2180864989936157,503.3147097332499,454.8084590699398,490.3277002747739,upstairs
23.639398998330552,-1.1465088310746046,-0.3724888935978475,9.408172393945591,0.16936625802779992,0.6872530592460123,0.25308233678974484,555.3828235255598,502.55640355701206,463.94041771778564,upstairs
23.689482470784643,-0.7817613050455701,0.41351914238041615,10.44458626172693,1.1428381231327143,-1.9042380332279092,0.5722918708107317,500.7522335771357,484.74531138300097,523.9358532868272,upstairs
23.73956594323873,-0.1023982728781988,0.49016263466974025,10.767439721455073,0.9061385646331961,-0.12459528033771279,-1.097328513109326,480.42363468191553,488.8345280911949,536.5432786171979,upstairs
23.78964941569282,0.18868788511270046,0.3877274964440434,11.305096485965759,1.2262688905264525,-0.5487030727253801,0.8019500654785079,515.3637700550445,517.1507729701839,539.4416591778637,upstairs
23.839732888146912,0.4002218075533638,0.9222761752333679,11.207907270006919,0.11861773477905117,0.27805207495262224,-0.6290960069461802,536.4954058715865,479.5904823995568,518.430576881379,upstairs
23.889816360601003,0.7886562970874831,0.7808652191192416,10.840878159245193,0.017898582880192894,0.8237812188760564,0.6993966782676305,469.44442315009775,517.6985767138161,507.03706189343444,upstairs
23.939899833055094,1.0542720237786158,0.9769573406632954,10.64104991213908,-1.249968516790702,-0.14536784362752153,0.4020057297926107,457.6029764266332,459.8853017161835,504.2574560843154,upstairs
23.98998330550918,0.746963683545133,0.023490227665296598,9.537392974457712,-0.765745062189975,0.10270168231455179,-0.11672254375251344,555.6336937034491,485.69321841115215,474.83195427930264,upstairs
24.040066777963272,0.219843307538999,0.1303302944358872,8.915784241524772,-0.48768879192083125,-0.2022364516359202,1.3838275011472896,478.87311406253906,439.15592527285673,462.35034309307594,upstairs
24.090150250417363,0.01689285831482773,-0.6383557940591309,8.30732387423984,0.034490640617278204,-1.4632698017730905,1.3079772067859412,584.2143378116203,470.55367870596035,477.81261051346786,upstairs
24.140233722871454,-0.9149088276341255,-0.9053115198463713,7.944597455355578,-0.7714268118594136,2.07470857739233,-0.5516155602314939,496.2952650661724,510.1069318452775,570.3499032278025,upstairs
24.190317195325544,-0.9060352214165018,-0.7605493315342493,8.172094326576365,-0.9329043940088398,-0.3940939148597778,1.373384949929783,455.91526805365925,488.8356062007899,451.47780635900267,upstairs
24.24040066777963,-1.0340019879142353,-0.42287332707271236,8.987597013526369,-0.7692431350490385,0.35309084483231773,-0.3944916897379204,516.496143199942,483.26699369909977,479.6322631446619,upstairs
24.290484140233723,-0.7918301720631721,-0.19901825662311073,9.907766084851072,0.1109803563922232,-0.3027209908806927,-0.09634274147781968,560.2256298001616,535.926537983312,578.6681268366608,upstairs
24.340567612687813,-0.4444355149322259,0.5941978337757068,10.353795591532993,-0.09555823560744228,1.0816190658350724,-0.7404341551253194,467.2891266752134,538.7408268350251,503.6095840871809,upstairs
24.390651085141904,0.1760760574238826,0.6520845307760796,11.4960187636635,-0.34281507912659837,0.003764598680962515,1.4189592081303695,477.6108932729826,479.96867290530867,524.3997360842719,upstairs
24.440734557595995,0.7573643180037501,0.7397470933898262,12.211599295024554,-0.03233002154805926,0.8079535298591161,0.08239865767029504,509.16229836221004,547.4592949788976,455.0641705074009,upstairs
24.490818030050082,0.9710719257117507,0.5309409682764205,10.949251010853573,0.5718680611756104,0.22841757611271135,-0.9327157470168546,531.3576035270314,541.5089694472546,426.24822280205586,upstairs
24.540901502504173,1.4438894302818766,0.6506760067733943,10.736255333434729,0.17903234220853662,-1.8738008057048987,-0.18641956925123238,449.99077029749185,483.2698225331854,515.7359077809843,upstairs
24.590984974958264,1.0325492500582736,0.4827248657442673,9.78834759439848,1.2665629004608217,0.9631745965746322,0.9368313270400888,493.2304480259626,544.6089352777664,472.3046385074877,upstairs
24.641068447412355,0.5688317809481702,-0.19311508658625776,9.347085202617144,-0.20247040580399592,0.9967444419696043,0.5922431982478689,489.95030305498767,509.7973472362209,506.16314961928975,upstairs
24.691151919866446,-0.306626549821601,-0.5131153496440697,8.439714971969062,0.9892648419430716,1.2404536366042598,-0.3389927351020872,512.130903892388,457.89306338342425,487.5176541075635,upstairs
24.741235392320533,-0.7185861733526617,-0.6556990677024752,8.202398103909164,0.931600604032302,0.4880036654305025,-0.811956418806141,511.87851931435534,502.55652077458035,424.55220047419414,upstairs
24.791318864774624,-1.0022643619066256,-0.663796572090569,8.026152609668722,0.34436525520453787,-0.3384413268146153,-0.8183855072054784,441.43530108976273,537.2053870604128,514.1852719085142,upstairs
24.841402337228715,-1.081390544982104,-0.38342971720778873,8.831255918517547,-0.08932912535021237,-0.16450980196028991,1.0357511370502228,553.5546592506862,435.64919104358023,558.8677540648983,upstairs
24.891485809682806,-1.1256142919019845,-0.8310036499610878,9.596613667184323,-0.9607486927701745,0.8372281251221069,1.2550578843993045,512.5043563548267,446.73257989873326,511.29769046780007,upstairs
24.941569282136896,-0.366241143623775,-0.14279602836375094,10.534137834027998,1.6190085966091419,-0.06848721286571752,0.8049387874394206,530.2559355039338,533.9794712388444,421.74598141493016,upstairs
24.991652754590987,-0.27966294624110566,0.31800373898200995,10.934831353037726,-0.3870505792816242,0.21573164634166409,-0.33883345536470244,565.773730273362,499.07584050865336,381.51468159091087,upstairs
25.041736227045075,0.5602250787380005,0.7046903525697554,11.399947132802131,0.18121266181733175,-0.3570854411350337,-0.2530810770632811,509.4057338675812,497.12452713496026,375.76008746338323,upstairs
25.091819699499165,0.8061967662134467,0.6186672372623698,11.237361220087005,0.378815034795263,-0.5093646404919963,-0.19677242286718918,508.78716847829105,462.44175400377287,499.8102242120574,upstairs
25.141903171953256,0.9420068908688392,0.7640603826642063,10.971502235023907,-0.12309096096706813,-0.02544255636951226,0.08857994507886419,431.88042536614665,480.83989976049423,546.4219139878018,upstairs
25.191986644407347,1.1691099419747994,0.37975068010986857,10.41019589203609,0.08644980952215757,-0.0003788221891574914,0.5129660458629816,545.3814645386384,476.738915140831,513.4497276031522,upstairs
25.242070116861438,0.5590105533472117,0.2766500534080698,9.481529299173912,0.1841279373641266,0.3487363847725019,1.1383563081951111,593.9953901322879,499.6914425926529,482.7371219182618,upstairs
25.292153589315525,0.4575630297445961,-0.27197092331484335,8.846147900916634,0.3861747136777203,0.035423861197692884,1.290188606293134,502.1402142164325,490.8536475530036,462.4278096149947,upstairs
25.342237061769616,-0.010006173877861457,-0.4272377043388939,8.40807864304593,-0.08382976008548476,-0.8374407968931681,0.09284456563741252,529.1976549473645,521.3621828477415,542.2124269723964,upstairs
25.392320534223707,-1.175397201143648,-0.8789885910483943,8.082151661396313,-0.2961829116021716,-0.6915604561267362,-0.8717538888291484,475.64736438520555,481.51164648124154,476.2225777191481,upstairs
25.442404006677798,-0.742674580998151,-0.6646503908763699,8.61942977117311,1.4339858170000352,0.39979509915862704,0.5548170921468145,477.90455013883417,469.47125202072505,514.0467096931447,upstairs
25.49248747913189,-0.7856764912762488,-0.6733145563787073,9.314463276841234,0.34100680628318775,-0.7644807076656381,0.22777069914182368,506.56088515583747,597.676215660186,489.0182265334862,upstairs
25.542570951585976,-1.0723832032557739,-0.5181604119751648,9.74500222232297,-0.011632542804000667,0.05553270517214075,1.0840737627067798,478.16601967473264,463.13025056185234,515.8881388108322,upstairs
25.592654424040067,-0.303944033869065,-0.2352665732449598,10.5124077665064,-0.5067248525235543,1.0241907755398771,-0.006957639401038209,525.2230228119399,486.6612115808148,517.2087591214053,upstairs
25.642737896494157,0.3127992493765187,0.1369527889446217,11.24214668929072,0.08664705671902871,-0.1406284606586054,-1.113233450088401,424.6452778735312,461.46760697718463,563.1718310437943,upstairs
25.69282136894825,0.6674545041078526,0.7579264852820526,11.382812211660337,-0.7737871781374401,-0.6807605277741133,-0.03376348011477316,522.8735097968889,517.0748630140503,461.0062705159244,upstairs
25.74290484140234,0.8319688025197334,0.9093618160146482,10.589179949637906,-1.121310407102282,-0.01876266252198554,0.45616614090883495,512.3283245316555,458.74262568266755,497.16949355176234,upstairs
25.792988313856426,0.7092601371061289,0.6861443161864933,10.519837910597204,0.4691554653443743,0.026163266012746874,1.1318254652645572,483.5177280412935,485.1606563659529,542.3836348182647,upstairs
25.843071786310517,0.9186590478052449,0.11674702745287402,9.608294157294942,-0.25675376648069953,0.4028875231910443,-0.22429823055568865,476.8599946285203,531.8572362300483,468.3214877475026,upstairs
25.893155258764608,0.5718916111637298,0.5472406184952171,8.882586288877306,0.6208635942021083,-0.3606811603352349,0.3909454165772197,490.3963354449349,600.7685142825235,482.5214257717242,upstairs
25.9432387312187,-0.1691681984990091,-0.09746434354830286,8.488415185270377,-1.0778658083883716,1.027253123792969,-0.8417007064986815,472.22101546854026,475.0884187091148,534.9066982493973,upstairs
25.99332220367279,-0.4826160753944478,-0.3224455895238461,8.019818963040152,-0.9811342119501638,0.2580271652678188,-0.6702974654914987,533.1416567230381,503.6161133263199,501.7158142175701,upstairs
26.043405676126877,-0.9304778723184272,-0.6615315759772884,8.29235041993946,1.1250251807043037,-0.8864565186363812,0.06940632039944383,476.33637645939916,515.4951752621586,532.2096925005998,upstairs
26.093489148580968,-1.149938974186029,-0.7484095933279997,8.89768213818707,-0.38955516243656,0.9150033035175333,0.5442406131888633,503.5378649938547,509.7273397607921,562.7676859150257,upstairs
26.14357262103506,-0.9009770349699509,-0.048162898152875444,9.737427460618909,-0.20617510077808218,-0.4135995156432238,0.23885407784300244,526.749446639752,495.42582257517495,493.03213710105604,upstairs
26.19365609348915,-0.56779310482002,-0.30947053040028705,10.60777611548435,1.0157193059149394,-1.775379838830216,-0.25516147879240336,515.0150024213922,518.4872797514741,498.65025385415095,upstairs
26.24373956594324,0.036011268447221995,0.36705029464812594,11.119244759379743,-0.07906516230889256,1.3483585608690434,0.3038149107525752,473.5656379046254,469.48201384868526,478.5556675148839,upstairs
26.293823038397328,0.5812574437059119,0.7369422467666757,11.355075374041544,0.21816625425746292,0.23563533564559105,-0.3887455693427716,465.744995871976,480.77935407283036,538.9508225830167,upstairs
26.34390651085142,0.7401032109963501,0.38741298075381214,11.501415830017804,-0.5379886226347808,-0.4909568634110811,0.03677905385301383,482.6889828645825,541.0976803448253,511.99830910683,upstairs
26.39398998330551,1.1855181012760072,0.6228278548463397,10.65653852789524,-0.30268769263808054,-1.108868159715076,-0.37856185816637045,451.0939079328819,469.68154087646565,524.7252603468404,upstairs
26.4440734557596,1.1008108898576188,0.2839418743093199,10.06886203546127,-1.3510221924170225,0.1550920416030894,-0.182271356965774,459.64923285559644,573.4329080869462,514.2865207605221,upstairs
26.49415692821369,0.053331926811868616,0.16399884161451864,9.476672133899656,0.3113200081854934,-0.038394163082231064,0.2127760580763413,431.12658699453726,482.68463713842976,538.704170351157,upstairs
26.544240400667782,0.17440036031070422,-0.3576403852150901,9.03339709739051,1.122720921128344,-0.1946720331298866,0.18159825179249986,527.577681596009,487.20113657537564,485.0517610829898,upstairs
26.59432387312187,-0.46566050897598854,-0.5764114550213311,8.392933541911304,0.37543406674676827,1.2278880957225924,0.053883733322639966,493.04400900996467,468.75942961133035,511.0656423973981,upstairs
26.64440734557596,-0.5418329430555997,-0.54402446492374,8.418914842886096,-0.03128199347420305,0.7345009796784552,0.2647727678719806,504.6535522560566,457.9225886811527,593.8757958509066,upstairs
26.69449081803005,-1.0389656879571791,-0.7992997965844084,8.941920313366776,-0.5427768153948959,-0.4685083074043001,0.038536976673727186,486.68738188905013,610.009710268316,483.1055412132011,upstairs
26.74457429048414,-1.3329630151056115,-0.7307874107566878,9.350169984707446,1.9384757968998703,0.6105831002857275,0.6406173912466562,563.9043955696235,566.2983592886987,526.8087679037665,upstairs
26.794657762938233,-0.9707432567436051,-0.040558162993171804,10.00181938369609,1.3375447924048305,0.5559203380799898,-0.3497151789470313,547.2088763953715,455.125879540045,512.6966985689777,upstairs
26.84474123539232,-0.08110853694220119,-0.1970957396543303,10.980065838321348,-0.7852767723425115,-0.6247104466554712,-0.07279361123324675,507.98548938990257,533.9879821028243,450.5832971376184,upstairs
26.89482470784641,0.17158666953081775,0.3500364391769079,11.334769648167594,0.5634587741503239,1.354129529429307,0.9023341880930432,461.40118486860075,459.2514340369001,465.65915918912054,upstairs
26.9449081803005,0.302819053745182,0.7576762891618856,11.644595558389566,0.9169832312248596,-0.6895272359755348,0.06445643138862807,452.60504586375515,528.4440419028977,464.5483532870418,upstairs
26.994991652754592,0.6537591316302607,0.6403297810476836,11.204272382482312,-0.8678967423448424,1.7249428804840152,0.028812380157102305,519.1493816409113,489.18780193241605,438.4947240745193,upstairs
27.045075125208683,1.0464500959319525,0.6519340444226087,10.749538587513074,-0.9733305399042131,0.6255857892214595,1.3653506748292394,513.9625730682241,526.5743634284106,519.9829749410289,upstairs
27.09515859766277,0.43631520862203216,0.7812021140576164,9.856527080349927,-0.039671040140826376,-0.38273053500341764,-0.15300468605240372,551.3596932221736,523.5002412848373,468.5363907214809,upstairs
27.14524207011686,0.39950139026026454,0.15818173986021916,9.3056909990326,0.12154222617501194,-0.2723801430179456,-0.668907108645175,523.31011110396,547.2908772135967,550.9572712508536,upstairs
27.195325542570952,-0.5717967656864723,-0.43688254956890765,8.467855324598402,0.17332484926716427,0.4417793560338799,-0.21605348391455062,556.343437841742,522.9396834798303,502.96681331422496,upstairs
27.245409015025043,-0.4703827478379529,-0.6201860483543404,7.722432513995316,-0.4902749532231775,-0.032545366449857296,0.05523996307701747,403.65975348681053,508.86387679800197,584.8166826031074,upstairs
27.295492487479134,-0.8207920965896041,-0.5524865506719994,8.403024738115343,-1.1634015408851315,-0.7794257037713845,0.9107356331037192,519.9017874817309,438.92201517051717,570.1862979511911,upstairs
27.34557595993322,-0.9427891727096089,-0.7917323445503177,8.916162483234526,0.28602921007077675,-0.741044953235595,0.3687773639264584,489.7225066818077,449.97236262345393,533.4731993909196,upstairs
27.395659432387312,-0.9117017045878495,0.04183978441695274,9.727719352583147,0.23903828305949448,0.528100491225068,-0.1330638108415112,520.5141053105419,437.88479332368274,510.56590816903554,upstairs
27.445742904841403,-0.20363987344032347,-0.013261723725783964,10.75989740278103,0.1445375421722243,-1.0344889830335147,-1.098248492617949,568.0417388524222,475.34385015541136,472.7466016531081,upstairs
27.495826377295494,-0.03000623477060213,0.41014988268653296,11.364120979651307,-0.465045879170623,-0.7823167990282649,-0.9649263511389949,502.68350586067857,501.52877854783475,527.2224907057436,upstairs
27.545909849749584,0.5397343836587287,0.7269471088434467,11.194023078555361,0.00822099665251605,0.46081887208673067,0.5500117644393224,581.076697475384,539.9441101379756,499.04803231643047,upstairs
27.59599332220367,0.69524999985475,0.8724452417535846,11.415601658674271,0.24050506565575858,-0.6600712575229692,-0.10671321201515253,506.67939305235586,469.8286982928631,493.11457806698337,upstairs
27.646076794657763,1.154353199092653,0.7937061800192713,10.767238218831586,-0.47814774436069474,0.569253718950582,-0.042510086051186835,533.1454285205813,502.69144763034984,477.22470006116816,upstairs
27.696160267111853,0.6612559486251524,0.2403911494920935,10.436291424059219,1.5374008738063487,1.0505940600005,1.044959254716571,477.2384172103479,466.2104835024006,527.4280011694908,upstairs
27.746243739565944,0.5415390957245062,-0.04120105490796924,9.458691182483975,0.17660323893368865,-1.6864646061508834,0.7189935472216873,526.288925732654,525.2701508891133,524.4172873319666,upstairs
27.796327212020035,0.3757083220146909,-0.09405001837825694,8.61627267604265,-1.357046980654349,0.8889284668182372,-1.6067561899328318,537.0524856104076,484.91281118793216,505.2543393995809,upstairs
27.846410684474122,-0.3234247607877735,-0.6464612000823611,7.890336142124213,-0.8027767699826366,-0.23332899431330734,0.8427052928714708,510.7833205763651,425.4101672324256,491.80504440457963,upstairs
27.896494156928213,-0.7845765145731766,-0.2990188107615747,8.10474665338358,1.2333757654621047,-0.2485207826963361,-0.4041970558519571,515.9720086118001,489.6849273663852,462.18761955939806,upstairs
27.946577629382304,-1.2433762024743313,-0.1668414120543743,8.670427958716258,0.7229781460476262,-0.12865586390819517,0.16968431934622288,468.5655413410659,506.6815602430014,520.0091055044747,upstairs
27.996661101836395,-1.0618254080710934,-0.6411175719908575,8.859340430598149,0.6994483249285701,1.6667673444930244,-0.3105259288510929,467.2142569127979,587.84005937981,475.6638650390118,upstairs
28.046744574290486,-0.7152633005578941,-0.17312039427659714,9.770221060786389,-0.6015807762258756,-0.4170952451104247,0.11222394219141454,449.94448099942633,485.6960388577115,572.9103171779432,upstairs
28.096828046744577,-0.3389123498002795,0.1839848157243642,10.75057277658036,-0.3383054369199094,0.19710570459796775,0.344015436783098,501.8675009758594,536.1930446441919,501.869180334787,upstairs
28.146911519198664,0.3154129147412711,0.5586706158784259,11.242407554314283,-0.09180978685234338,0.9997524290933182,1.061646293302586,462.2251675763795,510.9489956616274,524.0065749529753,upstairs
28.196994991652755,0.5876031454266737,0.9238660946361406,11.666919971628346,-0.6602749574444904,0.20926250115063835,0.7500939166663513,450.36957108251187,552.8883881000428,452.41665436478496,upstairs
28.247078464106846,0.6450019942201343,0.5183143725333902,11.685842641676928,-0.8680724996101855,-0.603701209744753,-1.3376215607459634,400.47286147267266,533.0487722406109,492.7861106029506,upstairs
28.297161936560936,0.9798633374818834,0.27838751082045926,10.45141729868433,-0.8967441213577564,1.2028956103858974,0.5501714490184297,477.9472848873769,562.5366736755794,463.0787818759689,upstairs
28.347245409015027,0.8183671100295246,0.293943780371425,10.188039099650648,1.6823354098153336,-1.0632665645623558,0.0030279829779892896,507.1499019730801,480.0254937455879,524.9101369603713,upstairs
28.397328881469114,0.44944883435778243,-0.007063056179351684,9.188549788929665,0.23079819184300468,0.6758596739298944,0.4613409112939655,438.01165442009415,479.4571217813184,534.3674346465081,upstairs
28.447412353923205,0.08790912786743606,-0.5062292460693238,8.73946190851074,0.2178873271345922,-0.05103050712314755,-0.11870163350932014,419.69009210357154,504.8803163178725,491.75410906657874,upstairs
28.497495826377296,-0.7144486425917489,-0.782391519596954,8.46853830174868,-0.6207411202641336,1.8078558852999613,-0.7707010273438084,492.63305361856965,515.2693939002286,537.8547881211881,upstairs
28.547579298831387,-0.9518146787282222,-0.6855237631281483,8.383691941847745,-0.47705791227210864,0.13141193164540152,-0.4810389189902207,427.79215013176616,515.924562322026,501.5309604807794,upstairs
28.597662771285478,-0.6177145591011524,-0.5078599197953058,8.95174833516328,-0.401199132496317,-0.5994702463879208,-1.1447003668733067,537.9619536877678,501.41137328560995,492.1500795711084,upstairs
28.647746243739565,-0.6733601424864768,-0.38952824423535864,9.655407964909308,-0.6041859427802904,0.011227851234684005,-0.2425983404092174,513.4430355526237,472.02952981474255,488.32409435464155,upstairs
28.697829716193656,-0.4251806173803616,-0.12921130193434935,10.085185118369893,0.07983784785730802,1.735567774042751,0.6798903086880745,478.3994377451377,545.2857067583543,447.36413321825046,upstairs
28.747913188647747,-0.3802923804889393,0.28286517165692426,10.958008296750322,0.6372655649110552,1.3935490090154534,-0.27849841374833817,442.51076802347745,473.16055442352604,441.5819495737125,upstairs
28.797996661101838,0.7339542719728709,0.8280104573069009,11.210755439106585,-0.015354397618133968,0.29877471070455935,-0.46403635685830125,465.23968653559075,537.2569638472409,464.4275302152771,upstairs
28.84808013355593,0.9645680380836651,0.7986674046006095,11.182745815049476,-1.0279575149508098,-0.5094301458886695,0.7806853592952604,511.7524124377242,517.2196393864341,553.5459795908542,upstairs
28.898163606010016,1.100075776186224,0.8338527516676448,10.844087635227316,0.28482594226034036,0.3994826127984958,0.9125670630111481,559.4303152960496,515.7737612880178,487.3719831242621,upstairs
28.948247078464107,1.1623119620047722,0.34434597448777815,10.28602998007532,-0.39094841031857763,0.31199370750301514,0.8241938292849996,486.4002528864695,512.8187523734075,517.6754849182101,upstairs
28.998330550918197,0.5496870218350778,0.24571895584777537,9.688630800449094,0.24231982584733666,-0.03563955762791052,0.44447158406245507,608.1848019550652,481.77667772059203,499.12079924203476,upstairs
29.04841402337229,0.2777286145914159,-0.5287512345608443,8.845657521015811,0.12386830538346331,0.6671663087758682,-0.09145787668637119,440.79248029621795,508.2214152748417,538.9857677230622,upstairs
29.09849749582638,-0.32359085644803254,-0.6071044574201683,8.372151788738615,-0.010937698915732689,-0.18553824023805776,-0.6147650531009915,540.2515101167422,475.3216081178191,529.6817667805091,upstairs
29.148580968280466,-0.7737654033568363,-0.5956965691714862,8.567756455141053,-0.11981048882316753,-0.3256761746520375,-0.26458601686417127,516.9693503580763,437.62655965353844,471.66273679227476,upstairs
29.198664440734557,-1.060381329674838,-0.8256402811062877,8.877772720306636,0.19076778904654815,0.7119732851884736,0.8836999008553613,477.36283604760047,479.745417196128,467.23105755099135,upstairs
29.248747913188648,-1.3027292698666049,-0.3381965030417362,9.04047284869491,-0.17470166049192293,-0.15359751833473237,-0.6424708395450519,554.2694338056133,491.7883410984284,576.4667034985972,upstairs
29.29883138564274,-0.8649338898569334,-0.36481127885973214,9.64207561335719,-0.2362560088452626,-0.6404627217986818,-0.4387328478842312,533.5071441828792,535.1191293178794,436.60335292959854,upstairs
29.34891485809683,-0.25435147874451025,0.2511232136925039,10.756519958040967,-0.9564035662942316,-0.7535237996553105,-0.9083386171115982,504.73558316346293,533.0336195319319,530.1249974550053,upstairs
29.398998330550917,0.5647117243230576,0.4710961499625397,11.394330977596084,-0.7476787559141369,-0.015879004823940925,-0.45509390890203866,404.37423390492614,416.84859345785526,550.7257997557157,upstairs
29.449081803005008,0.9048027497771814,0.8349942756130262,11.344267343999983,1.1384423031774522,0.49414758489652216,-0.8721151216834322,575.4925432363244,453.7678429292062,530.3847214167687,upstairs
29.4991652754591,0.6810239641175945,0.6129816327231321,10.988859978285745,-0.3200421744253933,0.8062822793087959,0.05128233288638098,529.0196431000621,461.03552710597796,450.8906931159426,upstairs
29.54924874791319,1.2481000817596215,0.28731187579043943,10.626175857569502,-0.305845381529696,0.12489808287145412,-0.5104959854677226,491.8010890451733,560.0644321298621,448.0061985838317,upstairs
29.59933222036728,0.35702500846536167,0.22817798665378383,9.710377607004887,-0.36974121111149616,0.5133184150235397,1.0850997147389336,495.32466960399205,524.6759831278166,574.1853863528892,upstairs
29.64941569282137,0.48242059561514533,0.1748630333597369,8.678214270086018,-0.5960507775158373,0.5889112956070239,0.9389837152594065,427.9735801056495,493.677205986846,490.7417065479088,upstairs
29.69949916527546,-0.2549370888756832,-0.5442056309586967,8.451907723815873,-0.21425618702414234,0.01901723444647203,-0.06772801702418686,513.8177548091978,491.890045896015,463.49422797532094,upstairs
29.74958263772955,-0.7114599469360182,-0.4109798039208924,8.315276046739973,0.4329002859887751,0.05135155883428001,0.39321386404244174,477.7693694052691,490.45279133174296,464.51158464684306,upstairs
29.79966611018364,-0.4022081628161418,-0.5701616969049679,7.940104515129096,-1.6419564284773904,0.4016861721432305,0.004639285066898102,524.7964503992487,527.7457318125297,568.2303660775474,upstairs
29.84974958263773,-1.0441186191524865,-0.6677717651000721,9.251552399539042,0.8363093602911736,0.3034822556944813,-1.687179425257521,500.03681572818596,447.4024636944716,479.2161924125836,upstairs
29.899833055091822,-0.8179423534800587,-0.5416048402693714,9.971768206669136,0.3034285488176582,-0.21906181955150084,-0.183908974963335,450.8423217967174,517.8303544204049,563.3999623335951,upstairs
29.94991652754591,-0.5426236842093474,-0.03499119299814643,10.485708607603101,1.2563112770887201,-0.7834552172291415,-0.16707460768668414,483.03334877948373,583.0917152667042,476.66220640479895,upstairs
30.0,-0.29299522570325315,0.2107406558207302,11.138066342584601,-0.30198040508404916,-0.2177956531029361,-0.7829605908601991,531.8537322427673,479.0740937528235,532.2522605545777,upstairs
