timestamp,ax,ay,az,gx,gy,gz,mx,my,mz,label
0.0,0.07832687660765082,0.21130345889395374,10.586149207422107,-0.16011062600879783,-0.47927334521148174,-0.2331915171785574,475.9848165823525,491.78328605377044,539.0295636989384,walk
0.05008347245409015,0.32448652998996863,0.4584300037573035,10.501105611925814,1.631067574506656,1.5968602570852422,-0.39479253462374836,501.53211952306646,489.4331445430463,426.58132184039954,walk
0.1001669449081803,0.38484522608191957,0.30217249683321357,10.49152548705235,0.016383487164750545,-0.07993349168698818,-0.699451250377648,509.9519320802134,520.3871310949265,505.5095698417354,walk
0.15025041736227046,0.49527610645791614,0.4132551544209689,10.538115842317689,-0.570043816751073,1.0018673264459417,-0.06408475455536473,494.8759978870217,510.99321473321527,500.25461991113974,walk
0.2003338898163606,0.7195902365302784,0.36208123667737746,10.4730993203743,1.0683619343840352,0.26707934631113517,-0.375242404447367,457.991271921843,509.13900361274347,464.48505519990135,walk
0.25041736227045075,0.5959492079614207,0.30052890974393826,10.079627446680623,-0.14349832355390071,-0.7932261341696285,-0.5453556512836986,554.3197719812481,455.49873040806926,406.0239712316962,walk
0.3005008347245409,0.35016902181295906,0.26791752422449144,9.62613952016826,0.4991688737109068,-0.1882149127044822,-0.832288920051837,539.5007278946055,463.7378707230391,566.0171317244747,walk
0.35058430717863104,0.21857033201069492,-0.19858903192116428,9.573429678838643,0.2127251199799693,0.1689904007147788,-0.15378309012388866,588.6926242620888,495.2446779880254,512.1001373402821,walk
0.4006677796327212,-0.11026012187463968,0.0978406057536669,9.080997623351612,-0.3455154095704717,0.7136503630626645,0.7914645401136994,558.5164113064234,490.6035732568193,593.0748457080118,walk
0.4507512520868114,-0.20686935927120675,-0.3867900000301421,9.043408370626816,-1.0789882157351316,-0.29388783921670697,0.43407000270821106,504.28536731229184,475.1338630840849,509.0427282807069,walk
0.5008347245409015,-0.1851116107399098,-0.3040206093679594,9.16273826614927,-0.3629273496527272,-0.3035807195838778,-0.6906469450511431,521.4594629467142,482.63108313755464,506.4715076220899,walk
0.5509181969949917,-0.8133317810317893,-0.46909868718381326,9.178324654666865,0.9607821380483806,-0.2798682780816699,0.28284548997354714,456.33224865330277,571.7341418096247,527.5433853996765,walk
0.6010016694490818,-0.6420721719042384,-0.396266547757824,9.0005852360851,-0.5490009174267559,0.3121461137786112,0.8609477482834689,523.4416157972139,436.99457304795493,514.177793472379,walk
0.651085141903172,-0.608773936919289,-0.35631846629405606,9.18493381856585,0.0358417691732341,0.35552262787464484,0.18597997020887305,461.0758662195959,545.7554088005215,497.4042028849527,walk
0.7011686143572621,-0.6098180103690678,-0.17838647819699202,9.620754812781662,-0.9950595613572202,1.046884724425047,-1.0602964970827131,481.9703824731216,452.58906034703796,472.1821768081616,walk
0.7512520868113522,-0.3676730969768901,0.016494943167565418,9.60601831373033,-0.5827432440763416,-0.4726944855021121,0.6024824263802665,463.98963359145546,492.63491331539853,446.2127230720478,walk
0.8013355592654424,-0.14357875844187504,-0.19975657982205747,10.244503933751181,1.08845491584038,-0.0020627390771470553,0.8414140557835142,492.5369780006437,488.73669445049137,380.5176853847589,walk
0.8514190317195326,0.19138947334511974,0.1071531211012358,10.265888336097317,-0.1604735971210093,0.6309630105897133,0.5439653010179991,502.2209798170847,417.41011155271605,521.7251896939714,walk
0.9015025041736228,0.24715063845789942,0.5333666040165954,10.484110399988927,0.8195205979766017,-0.8216920546131343,-0.4428875809522929,550.658321407459,566.632422453715,477.73873567057433,walk
0.9515859766277128,0.5520163966780555,0.27817356800441273,10.734150093706845,1.4061337175049549,-0.4813716597062033,-0.2747764695779549,521.3139185517249,444.1123700271575,430.02444725295294,walk
1.001669449081803,0.4346065249107342,0.45288992242549064,10.347330217451193,-0.5045961169124438,0.4264872785690037,-0.27771676141923674,510.07097805540946,459.4090221498917,521.0430876758462,walk
1.0517529215358932,0.6638786854036914,0.40138226227276924,10.434998687581139,1.0002266659148564,0.2599098939599715,-0.1042698181128804,485.9973661622921,482.1319065643628,510.34086775301773,walk
1.1018363939899833,0.5082877322667958,0.4276540687068933,10.020469232754746,0.11339040528252753,-0.6316191497379722,-1.1371692226966943,448.10853976472856,551.9274969372384,522.5376763982399,walk
1.1519198664440735,0.3796856577932078,0.23134642492030022,9.877686601744069,-0.8648410293693829,-0.6787016524268169,-0.309424682912854,534.1536353084625,525.6188766268862,495.7053554827291,walk
1.2020033388981637,0.25425500080778324,-0.1803061597896792,9.587395510935053,-0.9512435637132152,0.4025257038791731,0.4021637723301033,478.5783810616587,445.8860076321151,472.85260495070577,walk
1.2520868113522539,0.1970690621747639,-0.13709331405840022,9.229296216132061,0.49908526144550713,1.322186051325441,0.5392568237106582,452.66615086489725,549.3038573530837,530.6729811251945,walk
1.302170283806344,-0.14791395411706662,-0.41279977095299103,8.972705226296366,0.016656719341284123,0.3535915382956591,-1.0372761162826278,548.7807530798453,527.9990762692605,528.3431055179902,walk
1.352253756260434,-0.21001840740538297,-0.38184138309902915,9.160857940605329,0.21130799723188834,-0.5189839469871321,0.7896297621644514,540.7251046314802,503.15211783454856,526.9611754993092,walk
1.4023372287145242,-0.57306298881126,-0.4877540856970168,8.959783017991994,-0.4628550026289317,-0.2679372762528492,-0.0860968745313301,437.035949718926,504.47154886631773,511.45913027979833,walk
1.4524207011686143,-0.37384180909873854,-0.41206082872642746,9.082368912797216,0.672012282809623,-0.5535558694423399,0.09288308635165186,487.2113422440021,426.019643421376,524.2890801342097,walk
1.5025041736227045,-0.6095789097410602,-0.27038857310314696,9.154726814406141,-0.5825419403083566,-0.18204621467245555,-0.9838939215944714,492.16253306554586,559.2428549358262,550.1091231403473,walk
1.5525876460767947,-0.07062345968946415,-0.31547444086054305,9.630410969543478,-0.06751365592092078,-0.9281433973489258,-0.2476336323516826,494.2500173608838,470.51690092110283,486.33203054140876,walk
1.6026711185308848,-0.5707951369100224,0.052866863994221934,10.360071410589423,-0.7305807003033633,0.4843754692263134,-0.13216125212345645,449.38974455291356,526.7945183285011,530.6375061643284,walk
1.652754590984975,0.1151279498477308,-0.13529212928640993,10.298921148090345,-0.1585219345211995,0.28645443849377755,-0.6775878395926448,453.9304508441428,566.3773122588373,532.8303013896204,walk
1.7028380634390652,0.2221550312714377,0.07864107332988338,10.420693839515978,-0.36156705160654906,1.8548306249840254,1.6446629247601032,525.5411667734854,492.23584436692795,487.74207068501573,walk
1.7529215358931554,0.20410009816478603,0.5736010539024139,10.73367952926193,-1.1859881364708127,0.24207936913018757,0.6676640766882705,524.3825641858663,541.9276438800281,570.2550161198718,walk
1.8030050083472455,0.6190937500591243,0.26583542655176834,10.503921811515413,-0.11691350525399452,-0.4268482579299775,-0.032981596043807244,461.9517786282172,533.9117877411953,502.74843867393884,walk
1.8530884808013357,0.601219917245446,0.4323852099345926,10.54881377648132,-0.4196615665379129,-0.7719273454259215,0.6321740606533957,545.8320530660679,465.65607594270057,493.046848706315,walk
1.9031719532554257,0.3417710848940439,0.2211162840227519,10.107549475179406,-1.1470893487484637,-0.3153525225967079,1.1742798795977731,449.05939331003884,461.8862553510459,455.3886998537124,walk
1.9532554257095158,0.43501683918851936,0.11498717228572354,9.832087267794064,-0.646327014123035,-0.9688051586467112,-0.8134570763011769,492.7545509052595,500.0824570131089,460.8052982457966,walk
2.003338898163606,0.15144008019021793,0.2503925772125571,9.448693769769232,-0.40287189795602824,0.13845222685670616,-0.5836998339749317,473.2256207654153,445.6506079644017,525.9790200450593,walk
2.0534223706176964,0.0902713071355359,-0.04120051520568618,9.629949718784971,-0.3481093355148246,0.5531320873272454,0.017911776921200454,523.7608000846765,544.2747755543154,486.1841669415497,walk
2.1035058430717863,-0.31378805547943067,-0.17033523276801124,9.202764468409471,-0.41871321221760927,-0.6825265478940306,0.6685032693743149,494.96174105595713,471.80832712075437,440.99524160776235,walk
2.1535893155258763,-0.2902701531998858,-0.37149218923985305,8.976441862455655,0.2821063324322413,0.30907096124157635,0.0477757100409038,471.6523885930908,517.7723448504858,505.9612546061385,walk
2.2036727879799667,-0.25404769315409736,-0.7227804269088935,8.924170396862582,0.039403020904969076,0.42859087716536215,-0.9643133406436848,538.6655936658271,569.7932202697754,532.9476837748284,walk
2.2537562604340566,-0.717045266329468,-0.25605219413871316,8.956274350600285,-0.6071483571279772,0.03764875642477251,1.24815018279719,406.8934828485579,453.80328581804133,519.61908230154,walk
2.303839732888147,-0.7448663456939013,-0.29139497404543163,9.487303913670353,0.38403916326293275,-0.15442798164766472,0.9182879265406014,462.0028010444153,517.9784219549234,479.479666334838,walk
2.353923205342237,-0.47186954317894525,-0.10073836653034024,9.656821799501442,0.17344601691549885,0.6672641428235584,-0.5796455983337439,517.8936429809679,440.119411107144,548.72124295913,walk
2.4040066777963274,-0.16974417922125215,-0.3324975986295159,9.92619405557206,-0.4073783209048518,-0.24304448369009335,0.4252430403979585,507.3441117588709,432.3855460688243,510.3136587427816,walk
2.4540901502504173,-0.05153957847833823,0.13354034710617413,10.276234997207952,0.5082204329091168,0.18810537975839803,-0.047667728322836306,530.4727381474308,425.0076293684464,457.08440979040034,walk
2.5041736227045077,-0.0025956833676940294,-0.10044105861969715,10.40746793358778,-0.35928949454292897,-0.06263851544662877,1.4836063648584752,468.2678833569822,420.28105282285054,482.81356348145886,walk
2.5542570951585977,0.2764875354788609,0.2549383119612312,10.422842920118486,0.7448212342374094,-0.2767648223545798,-0.6575057342907492,540.1926381947789,522.9374319981463,553.5817421739799,walk
2.604340567612688,0.25983249566079547,0.4145717580306008,10.55105470688699,-0.651731938925743,0.16552105893063124,-0.7668129310735129,510.49464823802634,494.40502055803626,480.6337665120305,walk
2.654424040066778,0.6627451795568565,0.3365511177364405,10.315871045512967,-0.012680098904925234,-0.9949800605594888,0.8394558018873048,500.06490836763237,512.8748524752928,510.97102676119647,walk
2.704507512520868,0.7313318502222234,0.6412191005745629,10.694508803985466,-1.3694748849884153,0.0012151201492397459,0.2533851573526942,535.3536028639273,493.92078104746406,488.11864773842905,walk
2.7545909849749584,0.6770537636909537,0.18803350324921042,10.030918004445871,-0.7077008012761925,-0.19173396163704162,-1.2234770875042205,487.44219607471507,477.12663494697046,519.1204169010861,walk
2.8046744574290483,0.3108578851398597,0.15404118690391366,9.60243492820679,1.0498737687232875,-1.01562084965557,-0.7121002661746341,486.16501163521355,548.7939549771849,534.489192537957,walk
2.8547579298831387,0.5004532924420941,-0.14236515299038577,9.47489174341169,0.35807854012608265,-0.5213850539318783,0.37113653664586477,464.48565602707885,475.29565162718364,486.03589476784714,walk
2.9048414023372287,0.0648055391580772,0.013699764343400811,9.28473032813645,-0.30146975252095354,0.27250019831833666,0.15554086646477755,576.7010880509009,456.67077700547753,507.6777812121508,walk
2.954924874791319,-0.07663330429387884,-0.30796895532915575,9.105154624787287,-0.5858727558759026,0.3392343201340864,0.6270592504022386,527.5789129849984,447.27949033814576,490.3326562313425,walk
3.005008347245409,-0.26057168068071157,-0.4375535137662492,9.153893638262819,0.5893827697433188,-0.9236841909170579,0.7099279655627148,519.5188049217219,529.1698745621319,442.8158462785728,walk
3.0550918196994994,-0.5164580518308631,-0.3493273630886089,9.029957718436517,0.7566470606329554,0.23046607376844086,0.34375799641226695,559.097372768421,450.0825458590549,450.0304440363589,walk
3.1051752921535893,-0.784443349285631,-0.3692728679112387,9.106536198397247,-0.6172449957500918,-0.17221788037518215,1.3201362967058432,517.7352921656068,428.3961209692594,473.63002287291573,walk
3.1552587646076797,-0.8955274384586511,-0.4045576287579531,9.556041116992924,0.7653662539753944,-0.744048881733262,-0.2502776870050523,523.7738603497992,511.3810698370513,520.917185129832,walk
3.2053422370617697,-0.5848344043007292,-0.5183046579431072,9.723753392228167,1.2563406216505921,-0.8577693164486101,-0.6851958118668958,465.9788156222147,582.084359575614,457.01568463199516,walk
3.2554257095158596,-0.6031151316806018,-0.21537301786712704,9.95250902670034,-0.44165442180183195,-0.34721754378291353,-0.6939263971973147,480.2896186876554,465.35510136290713,471.26046934988153,walk
3.30550918196995,-0.1083406225419464,0.0042812373782035035,10.153550357559231,-0.014025069902451748,-0.8379050520223468,0.9640874826301911,492.436740207202,457.76283158073454,502.1030205893851,walk
3.35559265442404,-0.1179127552580434,0.18676562785201625,10.653743411329952,0.11017907659724743,0.11535119631512686,-0.7387282949840493,550.524434520467,605.7589247213161,562.2014389982033,walk
3.4056761268781304,0.2997411328042872,0.19482920779600374,10.391360349850645,-0.8386862554651244,0.7332064703956573,-0.1693678393375249,512.7226471745068,535.8654898716024,479.2216038405227,walk
3.4557595993322203,0.4802701346290373,0.2517324300651156,10.498927990515071,0.8385163369220305,0.16055593140606447,-0.36587164372147973,567.8055445179581,513.6593661783711,570.496624348666,walk
3.5058430717863107,0.5989990883683741,0.27368054459663943,10.387353723009634,-0.838704645350681,-0.7018617135898712,-0.89189817200755,508.9800588827252,494.6139072289832,532.1014231065808,walk
3.5559265442404007,0.424728571231933,0.3058583120994036,10.541882866468915,0.10138416869492198,0.7820969346539602,1.2057415482649896,541.4853683375442,601.925726717192,586.1849475198406,walk
3.606010016694491,0.7990002687457182,0.30127648136332325,10.15192319389175,0.39058032411511256,0.33520612206682576,-0.9762109287843981,465.67828835625,465.35845520889194,464.8956474307521,walk
3.656093489148581,0.4519217976441267,-0.02273763511321307,9.981760153319845,0.44984256488020674,-0.34389804246485556,-0.38578257583360054,525.5950211520326,534.0903519331915,518.636763780387,walk
3.7061769616026714,0.3183102611340798,-0.18930828239708847,9.254794210579798,-0.012686069713733495,-0.20152562930743467,-1.1531575041508695,587.1855469481694,507.6283188615588,487.75748331882124,walk
3.7562604340567614,0.04419917894501728,-0.3602220257170685,9.112160710563607,-0.12445184698476178,-0.43194789380553084,0.2676089426507467,485.6495485512527,500.2282784430113,428.18039834876635,walk
3.8063439065108513,-0.12225305562460653,-0.2864514370168477,8.914164644366894,0.95133452602108,0.3820005707644958,-0.11809733355692768,629.3730627153216,483.3989057293984,487.57532213016736,walk
3.8564273789649417,-0.5213854777981528,-0.11402547641197563,9.026142232893424,0.7514034198437027,-0.4520544462400551,-0.38466371043893893,568.2686500654297,451.64645250254716,527.1657092146511,walk
3.9065108514190316,-0.894398438493313,-0.5497087337853461,9.130159897326926,-1.2961342590699358,0.5137122250736752,0.38706913876549115,589.5726779601623,451.2472616449198,517.3973993702572,walk
3.956594323873122,-0.5385770226175912,-0.3445323638016971,9.136709659007115,0.12774449375341,-0.5407914243814402,-0.2896743714147397,450.1172551419943,485.9151258915061,511.50102786194435,walk
4.006677796327212,-0.6121869550255973,-0.3570538632290097,9.464489515065988,0.36446782273690925,-0.16449782371484503,-0.6246162070227796,507.36076600763516,540.8578016141963,491.6213885487756,walk
4.056761268781302,-0.4844609593300533,-0.1317203304201266,9.913995577454338,-0.9681910892170719,0.05070651899030555,0.06563927210281578,558.0957113840108,439.25621946838663,525.5866695428998,walk
4.106844741235393,-0.31138103475340134,0.2902510639474383,10.233405170044051,0.4145897922617002,-0.9743855557657197,0.3205864844538416,525.3850908052498,518.4971940286977,431.38606422232584,walk
4.156928213689483,0.09432840067031802,0.11491414673278179,10.404388340148351,-0.6193091649710983,1.4086000775005652,0.555609580979545,463.9134633555551,571.702366823707,445.0710476788461,walk
4.207011686143573,0.5341114180729215,0.21913687334142767,10.511662604851681,0.3906156293717292,0.4216072170902058,0.3556099567194565,497.0271785101373,470.9769217031945,456.0811293171095,walk
4.257095158597663,0.34593202843953286,0.41179188677973183,10.530553453465654,0.22600640237311492,0.7238312160643686,1.7791001431190463,539.61486214765,498.2429144645331,536.9409052010536,walk
4.307178631051753,0.6113155235935183,0.20673069205627118,10.331645171857772,-0.9973540179866344,0.056726453712293096,0.3403023940252789,477.02671629958354,411.24515368479933,541.5506634885273,walk
4.357262103505843,0.7797367606465881,0.5705971051490615,10.196902917183694,-0.850153910252348,-0.7669674138673086,0.12334778954928313,531.0488666964392,481.01336016199446,503.77697770339324,walk
4.407345575959933,0.5447668543706937,0.5380482301017006,10.153152928578221,0.6885185750952487,-0.3278910770432952,-0.6244825929566579,504.38074859897216,505.99675978744136,413.05132839800143,walk
4.457429048414023,0.6541181354230228,0.1392908606570531,9.87089211401359,0.9086910593287448,0.8220234420931564,-0.21421252428025642,506.3780654875655,463.4420801085887,490.18806420503756,walk
4.507512520868113,0.1724300032196433,0.17841923780283953,9.403105648066958,-0.7664966131825767,1.2390410598927337,0.5096035748524113,428.56919788845306,504.9649018297423,488.2592836755721,walk
4.557595993322204,0.13857235211909325,-0.09927398960929301,9.351528712351085,-0.31340922948099076,1.1617817747759307,0.01153333240250697,557.1740734630256,526.9876335873759,512.8597457749947,walk
4.607679465776294,0.2736282866090934,0.12804798083027116,9.113691191225955,-0.1733034042012766,0.5458772009584333,0.6088321999580042,532.9114353086616,535.8630856114473,444.3194883025657,walk
4.657762938230384,-0.4150074684288061,-0.35791913732310937,8.874523252058536,0.5071945665199542,-0.7580086366856154,0.1827548996295767,526.3427752021366,512.8386387122247,514.5770252895841,walk
4.707846410684474,-0.47081652865263723,-0.3937193792697329,8.940194133009083,1.073232849603316,1.0869834464787076,-0.6340508862620547,523.4455152029678,496.6346535149458,520.0215917851455,walk
4.757929883138565,-0.4651892864600111,-0.42434899276602267,8.858766977363718,-0.3806468148455737,1.322914313632443,-0.42228212008511334,470.22182385010575,502.26493927447007,524.3903530174863,walk
4.808013355592655,-0.6792719105327644,-0.38443384371191824,9.321696178174344,0.36700976424822757,0.14672242070633504,-0.8022051663871861,476.04695244472714,553.386464122027,457.9811392155106,walk
4.858096828046745,-0.5374657433267369,-0.31156254294586844,9.610920858655847,-0.9742150732660866,-0.1991705101162769,-0.14115925030287335,444.2685625652759,469.3861401049079,486.47629577089253,walk
4.908180300500835,-0.49557419337970776,-0.20744224232954095,9.95666787336241,0.2006233338754403,-0.3766432447444065,-0.15044216385593234,484.860374138343,530.5705341047109,439.5883005277665,walk
4.958263772954925,-0.5551669105131805,-0.05047567783501898,10.203839152576055,0.883190375767206,0.8532655461672246,0.045799739785122195,471.63667419395944,478.93586011948815,547.6381626745172,walk
5.008347245409015,-0.04816053493949773,0.14175103797874075,10.282961481314636,0.5316804141769992,1.081239759080504,0.0899776720358246,516.7722795182178,456.960641909998,504.24566833776265,walk
5.058430717863105,0.07768733076770391,0.17596472956149756,10.593493894877891,0.3497709749122037,0.7311443072592033,-0.2151954086968896,524.1303719364536,473.1940597426945,559.8821988882656,walk
5.108514190317195,0.5784458810921536,0.2849380036772097,10.505555088192372,1.7861480694209888,0.7204398433456197,-0.5236600888449728,421.6162419219484,536.7813189111474,529.6758967555808,walk
5.158597662771285,0.7711355766826381,0.2995473248083641,10.693190732004853,0.4014334997718857,-0.5626949019407312,-1.4898671783482786,460.5098944112849,501.72227800638507,465.0279414817014,walk
5.208681135225376,0.7105503408791947,0.4669721315612889,10.244734315132218,-0.20997482054964975,-0.7115202428350674,0.585667530255076,524.0221887643967,470.724009533873,528.7084666412105,walk
5.258764607679466,0.5864361297877023,0.27574198175867654,10.117553322330755,-0.20487349857943166,-1.2022357434132382,-0.4127440971830915,496.404722069818,488.64926699221604,422.7028389011486,walk
5.308848080133556,0.5414985587961876,0.3077441133245282,9.658719796145588,0.19599238379402828,-0.15035959649403946,0.02981282805413638,488.3957602715078,520.1565723614176,505.54832456376613,walk
5.358931552587646,0.03810645246743638,-0.08427868645310232,9.485062719702023,1.052811989151184,1.0392618182003128,0.8492856472281228,472.845504539128,463.9969110882934,539.2125142555267,walk
5.409015025041736,0.30605028098673354,0.09876572932511965,9.533661609609913,-0.34122053087419696,0.46220081459802487,-0.9819340453705618,532.2419125240838,429.4049206210104,545.3081544840178,walk
5.459098497495827,-0.4483096148119742,-0.19501349154158848,9.007196544314741,-0.8711184659668191,1.3076627741509919,-0.3347353754193072,482.63436292591166,538.884563786743,426.8100611783077,walk
5.509181969949917,-0.3867018998822412,-0.5318923063878391,9.118750474723848,0.0822888071242693,0.6927834977837801,0.4720142271698888,559.7553485015873,527.5485564541917,471.10296612771145,walk
5.559265442404007,-0.3333142944061419,-0.2971254592272665,9.12328168600751,0.03226905276231729,1.3574740413343904,-1.2060213755843228,493.1256813484834,520.1294869313436,466.0125606301839,walk
5.609348914858097,-0.8809689198510835,-0.23771330592161416,9.235785138186017,-0.1052463208481447,0.37873565865490966,-0.5608532622354577,546.042602716629,420.5262094612077,551.8633134194959,walk
5.6594323873121875,-0.6475493200617424,-0.4307411218836698,9.537101081503607,-0.07413357628937826,0.2578947843434411,-0.4077869293688921,512.643506386286,445.04026122692153,499.64249078004707,walk
5.709515859766277,-0.41894186349448853,-0.14507480121673727,9.552733939720689,1.585584909590661,0.35052348464041155,-0.4691911341052115,542.1275241588204,525.2160518661073,514.2009086992845,walk
5.759599332220367,-0.24604297803089586,-0.21672100615750817,9.692532803030957,1.5000732142511748,-0.22669905818968816,-1.146123446888839,510.3610419007851,430.12250177312404,510.10924071725896,walk
5.809682804674457,-0.1020833814373982,0.11706494512453636,10.129485087672176,-0.14129139113184425,-0.6049984599507577,-0.23019885174493127,512.949319278194,496.6572457141061,504.7346232571289,walk
5.859766277128548,-0.15285472399218641,0.058789978120519476,10.365633089957413,-0.13766735413294973,0.08761953843619513,-0.5164922390920454,454.7191309328204,518.6351312104491,455.6543485754238,walk
5.909849749582638,0.2992035764468933,0.21738707633299148,10.928903786817898,-0.7182693472346033,0.4635010483921759,1.256893428186834,479.2489194873148,479.8278349396872,531.1599426792092,walk
5.959933222036728,0.3411798296898346,0.4121090883358303,10.583983227720834,-0.4724032273067677,0.15533883249037442,0.005692250952519695,549.6511309646132,537.2798137577793,493.0214126708757,walk
6.010016694490818,0.3983462245500027,0.07890331612971696,10.509136353028282,-0.5147558780408923,-1.0408390324702783,0.12239941572590533,460.67897479507985,493.76957659013306,431.42926743757977,walk
6.060100166944908,0.9308743985882536,0.5329231562790067,10.317662511723722,-0.19649887592937607,0.9579727461997272,-0.5279457425652674,473.4485484241453,520.0874069386949,450.85573804236134,walk
6.110183639398999,0.5924779712380532,0.23197741700857685,9.86584494686951,0.7966416480060746,1.1519508334837805,0.6160551065327435,480.3936599460302,419.9574788072584,578.0625747909563,walk
6.160267111853089,0.40916693243944324,0.2420517620101182,9.710579831578707,-0.9854250257856587,0.705457065588462,1.0938316303749687,549.4581238000078,504.2335248803163,480.94720625624274,walk
6.210350584307179,0.05159606335921303,-0.0438461935252311,9.602546655307071,0.3233334533466987,-0.47947897206181583,0.8037841610017014,540.1540188061576,507.8076858970165,510.1236208082642,walk
6.260434056761269,0.1268345309007875,0.16602507331946714,9.265496867138687,-0.07099553446996691,1.597008538218385,0.05840783826526553,537.1025119461294,548.4403859681503,487.8484117682796,walk
6.3105175292153595,-0.34009868574439556,-0.1924105111519468,9.063852675219549,0.13992500347494244,0.6329397778337261,-0.16734928115839937,505.0958886225215,472.98198409355706,487.40569623444566,walk
6.360601001669449,-0.5239254667652646,-0.5331657186945489,9.026213934783335,-0.603831319490445,-0.11492591242091328,0.3400303006366058,456.86399104347055,503.35633580044566,507.96491725642903,walk
6.410684474123539,-0.6513681950871099,-0.46665072062659224,9.188290561127042,-0.5274339049718335,0.6330032501338191,1.257013923173109,496.5417952273547,502.51234335618943,518.9664092820728,walk
6.460767946577629,-0.6174528032967256,-0.4769233581223971,9.256703245675386,-1.5673488325563818,0.5060845141604965,0.5941523400903425,574.7161478343276,478.99516947429777,523.5127025451549,walk
6.510851419031719,-0.46721672916319906,-0.46820390682124097,9.274831124487946,0.8732218678637932,0.1641756594262619,-0.8546989394431469,499.9578817451846,438.9009409941063,447.1931214211683,walk
6.56093489148581,-0.49253573331453565,-0.35661310005178304,9.77465208817764,-0.7288806060180743,0.31951171920834315,-0.7298301387008276,506.7124558893987,468.39746390153584,461.7883921847171,walk
6.6110183639399,-0.20786389496480362,-0.276005678080239,10.370731719979988,-0.8055273746457194,1.1075199606200798,-1.2404843493655118,429.28675905087533,442.6640668145616,496.07531744725964,walk
6.66110183639399,-0.15280985832843968,0.34618597319980304,10.360553309623175,-2.173988901379224,0.47364167523598083,-1.0361977106050722,534.42855266981,557.9675834884725,477.0070549290185,walk
6.71118530884808,0.47231451003311703,0.27744791310597133,10.599316569832906,-1.0158112442895875,-0.20939242531338897,-1.0808668355667055,517.2545917401476,478.5970370152064,430.6540544421126,walk
6.761268781302171,0.49920201161410277,0.4092983885309084,10.23928914289806,0.2559802044188483,-0.6781914102321075,0.6930292457749031,463.63137287505486,438.983589481913,522.7120692436172,walk
6.811352253756261,0.4033951883606657,0.4130254055713969,10.431536989858753,0.7162023805764205,0.002080161890194889,-0.3247285562113845,538.2199990306102,494.39694490255613,408.798730541715,walk
6.861435726210351,0.5408505433178494,0.5383148316336537,10.229886852326121,-0.9121442854197779,-0.28381358840625304,0.9471395753452687,510.8742872851419,456.84736875745284,519.6115515062124,walk
6.911519198664441,0.7142306853195789,0.2748714098500621,10.357376924073419,0.5744843363092403,1.402113723351621,0.08494247998012705,528.9668791871693,529.1361755035626,492.17392319785745,walk
6.961602671118531,0.46534479276163093,0.045205431786924294,10.010266143776393,-0.4581123375020067,-0.032096558804589746,-0.1199879472775407,553.7144698211904,468.4973540678869,532.0672270279927,walk
7.011686143572621,0.3276475443434544,-0.3108282667695717,9.828171133977675,-0.6553221825081,1.3353285872796683,0.27278085091503956,529.0910329889844,487.1125904841441,501.05656168721595,walk
7.061769616026711,0.23537889380900973,-0.035169451213097336,9.26594959756457,0.6806619046189092,-0.12618797874606696,0.20212016682221703,510.1885627841911,508.5969669712996,508.32216360960166,walk
7.111853088480801,-0.31466674237097647,-0.18938170313875538,9.306921726323491,0.4283295269599451,0.439445860552664,-0.5457959052359237,530.6548410628711,554.5868986350688,565.445376262774,walk
7.161936560934891,-0.38146710568594366,-0.039492010056224935,9.061081827165486,0.5039747933661809,0.27017463632020705,-1.060512400706067,527.7725466340044,500.0881370484136,507.2294371561054,walk
7.212020033388982,-0.44608880354305464,-0.30497861942071824,9.258750293559121,-0.36934444474854045,0.04176904051291621,0.021791123188059282,567.8047168776849,489.2827637574959,479.81254352644464,walk
7.262103505843072,-0.2843142305434997,-0.36481865776837274,8.833460327803472,-0.1941554931239262,-2.826953106030178,0.25012118632769226,448.79343131470927,562.3300579387148,531.6929656456313,walk
7.312186978297162,-0.6284588489978795,-0.39745729639780636,9.246018589281075,0.252959077432921,-0.5066690389027998,-0.9632298101761817,542.4059647064806,516.6025571428986,580.6392756629772,walk
7.362270450751252,-0.6086713341039589,-0.3850058655002072,9.80428154255287,-0.706437296926667,-0.13158330212386074,0.2892061255230549,488.31247796662217,435.9531121347975,562.1905708909165,walk
7.412353923205343,-0.4571490906355709,0.11149043399497868,9.860676029013078,0.09745970637292457,-0.23641083905160415,0.03788342416795075,517.9314423082252,465.743441830117,502.46441341604884,walk
7.462437395659433,-0.06926046454018327,0.1058152423377802,10.145665105774263,-0.3691560434736313,0.20157579609479062,-0.30710108117129964,535.9897586321161,574.6908019158019,485.43166557804915,walk
7.512520868113523,0.06275397399495854,-0.12815191433429124,10.520695679551373,-0.1504109331608092,0.6380681217818877,-0.8354194508230952,531.4818154108232,491.410836350942,502.9131108648947,walk
7.562604340567613,0.26761677268488754,0.5727955169924992,10.45619249250675,-0.42215954541299133,-0.5067660000973785,-0.10633447291434676,423.101033279425,550.7072700372657,582.1326386909315,walk
7.612687813021703,0.6570953341694665,0.2699903502616529,10.356383740216241,-0.41825912875862525,0.5115415834415002,0.5599396690141378,480.22673220122107,465.040957979729,491.32389846810497,walk
7.6627712854757934,0.3274206165257862,0.5212018039646081,10.296541759244263,-0.9041949967258338,0.2204288203420794,0.7535708539310929,433.73534806791054,457.83109758784906,466.3991398877873,walk
7.712854757929883,0.35642682670239323,0.6033085907696485,10.149308319533013,0.7118123642211687,0.7835403910156769,-0.9061388511994012,559.1477104211518,497.3007433616872,506.36654052320756,walk
7.762938230383973,0.4099451777249974,0.44662788500356665,10.161679294579763,1.23715769826603,-0.0697196118929191,0.7452773576730432,450.87246364050094,534.4784169060416,505.2347276974273,walk
7.813021702838063,0.49144188983168885,0.01098220228185992,9.92350307971941,-0.9041666806094495,0.4966896746655,0.3454318568548356,509.73142480933194,432.59952638105216,485.8674663147357,walk
7.863105175292154,0.3898697083859829,0.38825848061842666,9.503196603832672,0.6842305489114346,-0.6444374288160004,-0.3219952044385497,508.2351311415034,514.7835858214279,468.97264509193076,walk
7.913188647746244,0.08254030449982276,-0.12188247379030542,9.354915566887861,0.013845408095608807,-0.3163445481753781,-1.2871841730330136,495.4183201320671,510.67681722590385,587.1677393930419,walk
7.963272120200334,-0.20372005063098578,-0.3373050330079747,9.255854704557143,-1.4592581455130542,-1.0087942062526094,-0.6293021428376105,520.6046138994298,534.1299447972199,501.6053426056957,walk
8.013355592654424,-0.6291333010818569,-0.47476857257683386,9.145199429568656,-0.39423119447348415,0.6151409177294827,-0.16702482863625423,436.32836461565904,501.99292962817213,454.84728786998625,walk
8.063439065108515,-0.41276506683278114,-0.5236869233509134,9.223463333825697,0.014924223189976521,-0.12883975402214287,0.343445031700384,489.64138146031434,539.3266127663612,526.0772456964986,walk
8.113522537562604,-0.6209372442182747,-0.6232693730091088,9.233742711091518,1.360750487585996,-1.2858670921974291,-0.49896035258384414,513.2095440183447,554.1386170979054,473.9490191223469,walk
8.163606010016695,-0.7108839808770195,-0.3093944784931938,9.289369786993765,-0.1837148058764367,-0.7386122418149502,-0.36324867364128927,505.15265659948255,562.7804150635786,482.33413377396624,walk
8.213689482470786,-0.5304292653656216,-0.24754446132756336,9.683010835350212,-0.41758595627558137,-0.2939693160127028,-0.036163144379150046,506.27778245511837,505.2809032809092,531.2294510265248,walk
8.263772954924875,-0.2682862195232251,0.05713561825655724,9.758424719519063,0.037544896441815606,-1.630997533187592,1.146958357817957,514.6619265428527,604.0393781830178,582.1624688930431,walk
8.313856427378965,-0.3784966078612803,0.009727813824425488,10.188709173315157,-1.049809766703939,-0.017254323507067116,-0.41619143085490845,487.3812839365459,472.14596005200065,531.1845669605808,walk
8.363939899833055,0.23792284496709448,0.35680132828353084,10.463739914912841,0.8496256426539179,0.9635708319985802,0.5121931229299965,556.5181033708137,421.69885271307663,571.5840870001559,walk
8.414023372287145,0.25129174140618926,0.38545612455660055,10.75165485841671,-0.5148826706578651,-0.16764291067835363,-0.2429450842302211,518.1518061736081,471.44969676065875,498.4898860555376,walk
8.464106844741236,0.4832635567589784,0.35506518824167677,10.685206841206684,-1.3973601869498997,-1.2466331114407494,0.9683662316601515,503.05948644114494,527.0583463406689,543.9313814287789,walk
8.514190317195325,0.6444713077506128,0.08105631761924253,10.433530527164672,0.10390155004691282,0.18998012827397392,-0.03468314831945092,527.680007308793,499.14197467144203,474.3484501721488,walk
8.564273789649416,0.7028054848147405,0.42466597232008646,10.12295364845006,0.33838869404894456,0.6597931713164017,-1.077895193583742,595.4730114542643,478.7033776258647,473.3805303336162,walk
8.614357262103505,0.4727037278552158,0.3643479116196403,10.185033678390196,-0.5815351688786958,0.7260238447283563,0.15892610256562878,482.3863740266981,527.0710499402694,536.7156975428029,walk
8.664440734557596,0.330298301676228,0.010529498307188703,9.85087324631174,0.5747232141229234,-0.2849566691483984,-0.4395781461468015,470.48918028109864,475.57790378692096,507.2887353033458,walk
8.714524207011687,0.05152856348301983,-0.07403472993575844,9.190121149336106,-0.7292870974109178,2.1170253450235883,-0.04166630749159287,537.157458235535,547.4707872675694,502.22217002101644,walk
8.764607679465776,-0.12403411263789042,-0.20780215453099388,9.12680996056467,1.083925756812953,-1.1190189858714452,-0.152199619617153,436.8501359589277,511.24688227814016,488.1286525097221,walk
8.814691151919867,-0.24007411372292164,-0.1439323169519807,8.946950143944328,0.39728573683454177,-0.013390071681285068,-0.3060299543090363,478.29365064219877,533.7608846305701,584.2214785658068,walk
8.864774624373958,-0.266069545409955,-0.2953057087231087,9.177088294988511,0.1648315259831352,-0.8449828629624486,0.17326043360250956,470.2970017243452,490.4411722937295,471.7479247378129,walk
8.914858096828047,-0.47571216179844805,-0.7422992928328471,8.73783809643687,0.3298258509748151,0.5781054043126845,0.9190419860645407,443.37564908087916,554.997708696033,484.7295925033485,walk
8.964941569282137,-0.5219811477639893,-0.4871726681878143,9.068743907580387,-1.061387982283295,-0.3547808069293511,0.8533296375688884,500.1413743884203,517.8923398628608,519.7010950612938,walk
9.015025041736227,-0.5541277668242985,-0.28911564213119967,9.197126518712656,-1.1317466171759238,0.7170402226308081,0.07654665915434017,441.2656754939884,517.0073910718434,582.7700135532818,walk
9.065108514190317,-0.3449200135382563,-0.06879165085659811,9.973828165137771,0.36039456355337257,-1.0490207880622575,-0.5674551489285157,443.0492326563487,498.65070043519177,507.2533514100068,walk
9.115191986644408,-0.35517783825398774,-0.035144443929268854,10.05244437303294,1.270284972915476,-0.6656031456777782,0.8110172156485744,496.09508770073364,533.8890720719667,544.5732109651042,walk
9.165275459098497,0.4137422918462805,0.13304017603909382,10.62522978569465,0.03883043827245161,-0.21125067659644997,0.1260259443125873,490.1554030438445,521.0802946433021,509.9083657836623,walk
9.215358931552588,0.11898128864637166,0.10187285344204605,10.464573189372796,0.43845574087775246,-0.47000474903519124,-0.5308138915417503,522.5728934230034,536.2904787029447,495.3331503434033,walk
9.265442404006677,0.2623324245931187,0.40351146739142235,10.57397729859261,-0.3617517210814903,1.0452009050397957,-0.6375380865048029,454.1511543327438,484.0693687409136,452.58774972809067,walk
9.315525876460768,0.5191592299791334,0.5472162851942997,10.308454924716266,0.27665943112962793,0.8354784940090282,-0.5929230032532139,448.1463972446692,530.1538089204222,469.36683299635826,walk
9.365609348914859,0.5258470840185954,0.3448812449774493,10.365898314661667,-0.7273657031151086,-0.4418579018713889,0.2815012761980866,530.0194522681137,508.08244245460355,455.4114166386561,walk
9.415692821368948,0.6489332040949604,0.12032005040295199,10.240216294569063,0.38197170583213663,1.178768404788218,0.43677957273651147,515.2691449728349,469.2174280588205,443.8914976168462,walk
9.465776293823039,0.559083207573893,0.12328644147337721,10.100347266535195,-0.06592773644269524,-0.35976920139342655,-0.4306324328133579,508.82246118634095,521.9392080277173,518.2880151440866,walk
9.51585976627713,0.2635901686626767,-0.01006288563650469,9.419311567534718,-0.45898648166303907,0.20065424549830943,0.8951153339508979,475.8806369649027,527.0188757394798,494.95056461175295,walk
9.565943238731219,0.24395236676610121,-0.20552691850722943,9.512064115819014,0.20889177209421328,-0.46735164421124076,0.37077961982048746,410.95085828029625,532.2728914258543,522.271569547267,walk
9.61602671118531,-0.09140956096543124,-0.4054897214039175,9.458985683792363,-0.3900761718738748,-0.44514988530239874,-0.468652615069877,476.4414513629959,492.6513387428288,552.9679832841422,walk
9.666110183639399,-0.15562425005829414,-0.21825227580175655,8.835234828894176,-0.29721909715303885,-0.649696591547346,-0.3879418050933146,436.10600432378,513.5026199536615,559.013983190219,walk
9.71619365609349,-0.5067126458669851,-0.24375969684744608,9.298724041229995,1.3099017340616899,-0.13734743088102877,0.9894040630905067,477.7828764221708,476.9042638561402,597.3974700499278,walk
9.76627712854758,-0.16150992580466522,-0.5534014558301494,9.352545065833725,0.8876902701444669,0.7152547747406225,0.07774681261127289,495.55365668288164,495.05554577810415,512.7043342918469,walk
9.81636060100167,-0.5875277981508198,-0.4363144316695386,9.379890310345244,0.6624271868809346,1.5265527999786899,0.20741352839435065,505.0262527286919,505.50356601119177,500.3515140605407,walk
9.86644407345576,-0.47299107057177536,-0.1653015561172769,9.463603656271818,-0.574827813816797,-0.9955167772295523,0.7686329964945143,523.48687737455,520.0282282628576,527.089511817747,walk
9.91652754590985,-0.37876150012832777,-0.2594886752917207,9.877319942661638,0.21001830553880896,0.12961172073191576,-0.10860776966239044,489.3885833330021,610.7310415887617,531.0676432549724,walk
9.96661101836394,-0.46892322865584757,0.03859411546743988,10.247127870233557,-2.6625437493077846,-0.03489662403776549,-0.24680718802069912,461.25445862916445,569.2077688733154,557.0655586626838,walk
10.01669449081803,-0.09925406275112544,0.31011490085332605,10.337322902944445,0.6611574523495332,-1.2963066236202059,0.44412367612563897,462.1157422877275,476.2661475138301,473.5570625084997,walk
10.06677796327212,0.46601064081005,0.33081848368796796,10.465395117169736,0.485361497837614,0.6724163627327497,0.2908884706916964,419.03926858060345,460.7864989475885,498.4173054653061,walk
10.11686143572621,0.1069120539273344,0.4435525692836769,10.881015559410434,-0.46510360015529767,0.03425307772320687,-0.7060365678645358,538.2729587468185,489.00965721151385,477.698108286429,walk
10.1669449081803,0.3705698779620249,0.608670505570128,10.532694960866483,0.342088187547151,-0.9310173064349125,0.6934580566269745,459.54082525191865,471.07413395453773,493.786614166263,walk
10.21702838063439,0.583114740580852,0.3569296366483574,10.467261260979061,0.6795997428790396,-0.7574789592363507,0.2830438138712011,447.6511780200855,519.7170595745702,414.77182191545916,walk
10.267111853088482,0.5562784009975478,0.0946721719888379,10.082532371436987,0.07893435259465055,0.3096670084217539,0.5446177355179038,520.9012934030419,574.7147934809726,523.7129689909306,walk
10.31719532554257,0.3907306812663827,0.27091499645905603,9.617150987289172,-0.27500191687577497,-0.15466216107827863,-1.5273005504390877,460.9978510052283,503.803754635975,447.35599887833337,walk
10.367278797996661,0.08327196518011794,-0.2687332228449347,9.386234583727417,0.13945718907673385,-0.04305934124438995,-1.4316343493539907,544.7183336836763,502.49286878183744,501.3695224758935,walk
10.417362270450752,0.07179788349079881,0.10088112426310311,9.47049352432287,0.06959799486178199,-1.1995936888443577,0.5600564095726008,445.9893963024853,529.2879598307879,504.1154995666791,walk
10.467445742904841,-0.21468959350794647,-0.4589177270909411,8.878315642620148,-0.5682236279380785,-0.057190264795194,0.846273840947398,510.63737716054493,498.3571073303858,517.1373919925305,walk
10.517529215358932,-0.5596031411560195,-0.42355332637962395,8.907440173331507,-1.4282019908523307,-0.09947280899777511,0.5555260520149955,409.51835496641155,508.3934863771206,530.2998015250122,walk
10.567612687813021,-0.3527484803061204,-0.3625125015731214,9.142624502281802,-0.755477893881303,-0.052477019856692224,0.573974974682514,498.88517856952944,447.06736198215714,492.5648575083722,walk
10.617696160267112,-0.7578295532855859,-0.49002839433297124,9.300684316006723,-0.18366927115238976,0.48973685846659937,0.101101022115463,490.0153470136081,468.71956573877594,429.7324346789228,walk
10.667779632721203,-0.6549876388267293,-0.2189903995657682,9.873715835256547,-0.46670239292040694,0.16510843006296236,-0.47442266495779106,597.5589006815544,515.1282678699412,511.4051581351106,walk
10.717863105175292,-0.6209428838214938,-0.26542874183068743,9.525495716220245,-1.0960268193228007,-0.17169568545482142,-0.7004318694117346,439.36723479396454,475.45416585350307,476.532637955285,walk
10.767946577629383,-0.2853722917609809,0.030438963030476503,10.076517574023809,0.9430724913085197,0.5461597478883459,0.10764800062682153,499.82733634998476,534.7521968670671,580.0447258969053,walk
10.818030050083472,-0.21699232545136032,0.11932444043398543,10.299416358508811,-1.3458336094427645,-0.421027638742849,-0.80652863119092,514.1986141523821,556.5131370019516,543.4470767628836,walk
10.868113522537563,0.28212377027912705,0.28555980869908226,10.398242733728887,-0.029855090846757224,0.06019558705187879,0.12092711512715625,429.8931276472034,467.17727078108095,476.09157206144204,walk
10.918196994991654,0.3866911229684037,0.11435464730947512,10.523740449991568,1.2913928194835478,-0.09229749934263771,1.4818219094141836,514.0622670352878,524.4942862426702,535.0288646167517,walk
10.968280467445743,0.520157623055639,0.5439355432901098,10.523042673176402,-0.2675014158914901,0.00562087484455753,-0.38057382906725706,497.09755731576365,491.28196337986395,596.358213897256,walk
11.018363939899833,0.5971805850979444,0.47189347377555274,10.528028150036292,1.3376169775585474,0.9996358683815678,0.38550353693889006,455.39200610366277,505.55927696420963,461.8070862557302,walk
11.068447412353924,0.35310444166337585,0.3238963258007931,10.539133652450813,-0.642665836141437,0.7653593736165905,-0.2403609263605763,511.0029047643711,436.5363094606247,484.1950340223386,walk
11.118530884808013,0.47837465401358886,0.3448613227106489,9.840724869972156,-0.1326736758726825,-0.5778025083376404,0.7082702877331477,502.52902479197576,471.85613884759016,509.07197006441345,walk
11.168614357262104,0.4089444098448112,0.22121656098401615,9.538933979187874,-0.28249540607277335,0.00037921009472149296,0.1831692839482096,545.8014580127522,520.0153038582858,527.682508340664,walk
11.218697829716193,-0.054883223970664335,-0.056700139117255466,9.290190052234916,1.492985285566501,-0.8997538935388296,-1.1028367379129305,447.8109560724208,474.00420062921734,463.54821644752343,walk
11.268781302170284,-0.25809997149154074,-0.3559546401458412,9.208100344411237,-0.42534303849316646,1.3350419500184814,-0.07114712148101425,546.6380834525417,489.15309864418913,542.2585840917195,walk
11.318864774624375,-0.3058918218961139,-0.3517023707117028,9.159358537357944,0.04236554048837852,-0.13901775519469112,-0.2913618741430815,522.2696572537941,480.5841655566243,480.90995790568917,walk
11.368948247078464,-0.6349693184114762,-0.291065405324038,8.91054044499474,-0.9296403197388614,0.33510951181020254,-0.7707877216767259,495.08412248397985,483.57100364822725,595.49903562909,walk
11.419031719532555,-0.5809921760990502,-0.598312942862572,9.172220356321423,0.6446348572854863,0.48133587287106216,-0.3591365910827339,450.03530876146755,522.7645066284167,495.2589499500616,walk
11.469115191986644,-0.6727134593742491,-0.41464270243350126,9.334904611889476,-0.6443256560795165,-0.9993910872464439,0.7728715114132045,513.8735184731751,481.82305805653766,563.6430718345526,walk
11.519198664440735,-0.4670898280238288,-0.04508011332897022,9.625360005943293,0.4560990086694489,-0.3118041352428348,0.8492385825088985,550.7120916432069,513.2727892022341,498.7697923082373,walk
11.569282136894826,-0.40055684283625753,-0.19061291150630316,10.028567920794545,1.1735308897426715,0.572770940756844,0.6614442331237466,470.17323481498056,527.6221577785434,441.9220051548598,walk
11.619365609348915,-0.22658595209144594,0.028790416768353436,10.11347293279506,1.773039219173325,-0.4808195386717122,-0.6077087384042044,548.3837639552618,472.0023777374553,548.0958492766053,walk
11.669449081803005,-0.11871206347241693,-0.027713066086730326,10.52925587895777,0.8765555101946239,-0.695499946847793,-0.15867295621352578,534.6580180357286,461.3521635135615,485.5765975442931,walk
11.719532554257096,0.36123196238879735,0.39554595872522175,10.426506614992649,-0.18268811302418042,-0.4452201115235098,0.1323985449822642,534.0698569797603,500.01453002905834,485.50996752150127,walk
11.769616026711185,0.3622424397834913,0.34177723610759264,10.485807807309525,0.434062417700482,-0.9189211649756505,1.022678299780691,489.5452132007262,484.4365373595479,450.5549973729892,walk
11.819699499165276,0.47796090788240403,0.260183251638081,10.571949844866936,-0.15747510645903345,-1.0479915061740064,0.3378509635660673,454.2070237525909,539.4282990098861,482.9630013046038,walk
11.869782971619365,0.7022401698234491,0.4364860170607057,10.325512009142782,0.27565924246946827,-0.9252962040762557,-0.2678187997596464,493.91331508172266,489.90241676200986,549.3676842906408,walk
11.919866444073456,0.7230364804838242,0.3586394911835904,9.9664139752678,-0.2747351788505963,0.624504053171986,-0.38480546417255224,514.4649977741716,524.9706867727328,538.51715093501,walk
11.969949916527547,0.47102903622883147,0.24616136264016636,9.676113552605973,-0.6885531392985194,0.6080065705476964,-0.765728733341277,551.9437947460953,449.07253809681134,465.1935485851343,walk
12.020033388981636,0.20580667512741435,-0.034629132285000974,9.583607249939297,1.6124474386927206,-0.3426304808465817,0.06647508120862046,528.0814117976412,459.0911551482179,421.01253291533567,walk
12.070116861435727,0.40842135454966755,0.137617462295115,9.557392789648524,1.260635193488124,-0.25836494108790015,0.20052354538966347,495.77511727088853,471.6617444905527,470.5460702481168,walk
12.120200333889816,-0.012438684792959065,0.13351222164279314,9.204410423029673,1.1628455995287188,-0.7567638211606874,1.6675769089347598,441.79201495281296,529.4539493651004,425.60330340362793,walk
12.170283806343907,-0.47595842709109054,-0.3226895890096388,9.122646426633336,0.15522259530396354,-0.5713848064607274,0.21780183681830337,539.3510815600577,478.5966399848469,531.9554588008334,walk
12.220367278797998,-0.5191645912634534,-0.5405968096322742,9.122575220203052,-0.16008221081637364,0.6711495680379587,1.6315229630955776,537.9545712669462,437.7868843772578,502.9466553208464,walk
12.270450751252087,-0.46229224603613317,-0.330674991789603,9.2557308631443,0.3903357120038626,-0.20983825716520244,0.23327652366613894,613.4652087317534,446.7950050474343,460.0740492849259,walk
12.320534223706177,-0.48847654032069465,-0.4893552278833749,9.280635185706151,2.506144475359654,1.0487843955175231,0.05850135860271625,453.52916436838035,516.9085037500682,467.79674008448507,walk
12.370617696160267,-0.4968809200535621,-0.3324034655075693,9.731767921166792,-0.04199309500684887,-0.6770191947580956,0.008993604083984749,511.31554391456194,489.3281280028543,436.87219579885686,walk
12.420701168614357,-0.4507431543719427,-0.023895923178509332,9.994367379247596,-0.6365229776474044,0.5357840603988464,-1.7266969523174838,530.8459657960527,523.9483677106781,596.9784999594594,walk
12.470784641068448,-0.3313116576389622,0.05774791289131828,10.120808864331368,1.0255104872349474,0.30891102928662845,-0.7275810221492682,493.88806561309303,538.4778233146245,475.4684950474233,walk
12.520868113522537,-0.06036778296751065,0.16615419812243487,10.380175741969026,-0.06850897707779023,0.3685785704336624,0.16165407238601323,524.0688307678381,452.17457101881854,490.72182466368645,walk
12.570951585976628,0.46481224231941226,0.27811673740729226,10.61219704831761,0.6765054781085913,-1.7045559525364227,-1.0663260087188693,485.4138598256852,483.4320871411155,565.0838916774742,walk
12.621035058430719,0.5467944350100429,0.4943744566914162,10.763920688572918,0.7326936442443935,-1.3176733590638794,-0.20199641580673555,440.5823938255468,406.83310408901923,543.0593197290804,walk
12.671118530884808,0.6500001887326099,0.5454808020738375,10.520490626383289,0.7026918660837842,1.0938476047436232,0.20949027804645215,460.01175770303144,544.713603531438,493.893381863736,walk
12.721202003338899,0.4501160570389456,0.1103378300136007,10.331932509185034,-0.03142936583974614,-0.32138425972944057,0.5236135088574663,539.5126261461195,450.7883154036499,444.62141411905407,walk
12.771285475792988,0.548926748574088,0.3591342752130445,10.062092545783544,0.8521636603414352,0.6794698133148586,-0.5139605986916757,516.7774202030972,441.03671185353534,507.76063775654836,walk
12.821368948247079,0.737422287066396,0.24289515106418988,9.796680572760584,0.08407361903688369,0.02030000039316133,1.0720059599663079,444.4815785275748,483.5091943109829,508.2573346629581,walk
12.87145242070117,-0.06724948556650265,0.12174457823852469,9.339992268592352,-0.5194785883454861,0.30759194422192115,-0.7273022576319194,391.17205015189705,527.6378980275315,498.2990520902386,walk
12.921535893155259,0.20919362965224259,-0.375674901002356,9.371389315208237,0.6523834621362176,0.4269760925657891,0.12035668211506516,466.42314992996427,474.5675676151464,501.08960779267136,walk
12.97161936560935,-0.5074001993648956,-0.2997929378015579,9.001888271815114,0.039635515853285785,-0.16970349148490535,-0.3195416601292661,524.2684022465172,515.7433318287469,535.0953915954716,walk
13.021702838063439,-0.4174638899876178,-0.4911600330008224,9.036634431274532,0.34846840298928533,0.4285182300173999,-0.990605600194627,486.71982057036143,501.29658177935994,500.34318712957304,walk
13.07178631051753,-0.6137653973099405,-0.31232022140747556,9.038471172847574,-0.14095449591135342,0.47231921125771714,-0.2624733728529683,525.2665764426788,475.6765101337219,533.0248070986122,walk
13.12186978297162,-0.4163618475374644,-0.5251345356000907,9.09360361526292,0.7830960988351469,-0.4341086873610344,0.12701044792544006,526.0937804553982,497.36644703233475,474.5822186122328,walk
13.17195325542571,-0.535095191768605,-0.25308091406555155,9.323572152562367,0.015694907099288866,-0.11018840084781524,1.238066593144129,533.3608376930069,480.52171427937697,504.78591983916266,walk
13.2220367278798,-0.6908578389773755,-0.20839607228397045,9.609420944207278,-0.5252065646186231,0.06602690381390135,1.4668876302135918,504.63749328026336,425.6952125358556,495.8176431206416,walk
13.272120200333891,-0.4791077221858171,-0.1434833201157763,9.975685972587515,0.45140293511029117,0.996157472772416,-0.9122529950793439,508.9905424266243,514.2470158034744,512.2925210734792,walk
13.32220367278798,-0.049008924839339184,-0.08754116164250064,10.486349487510648,0.9298171755304625,-0.44781244253877356,-0.2261033768777888,480.6162669238979,517.5879845518269,493.2625944349658,walk
13.37228714524207,0.44789344786097457,0.17113532162227724,10.549338697434482,-0.9901355929891363,0.6417361409834524,-0.5205873879031319,550.204775165074,517.3307575796084,462.477669733884,walk
13.42237061769616,0.0835335570679971,0.37456148251112054,10.682828331130764,-0.07176886834413224,1.0082280498378737,-0.6294945539364616,503.46048031719283,470.09338150484456,501.5086746821266,walk
13.47245409015025,0.8425390424252324,0.26612584735785233,10.414888943042317,0.13822834113586283,-0.42855030553732953,0.46348050479014385,479.9744336926433,509.0648523639149,506.14906735153215,walk
13.522537562604342,0.7838903054035528,0.3322391080785873,10.546628329134963,0.13660077957704006,0.535707139371707,-0.5855153721610636,529.8826383224397,493.23089639413126,561.4752792929339,walk
13.57262103505843,0.5600966858991101,0.3749356750039911,10.212995241716092,0.548090238913858,-0.19422812316680174,1.717268532992935,598.862679049497,512.8032865241968,495.47950461794846,walk
13.622704507512521,0.4514029682915837,0.1789731316409155,10.086305991433731,0.7292893909489541,-0.08642888368304028,0.6330040493031914,499.2924506715684,477.7288040368032,497.94441524858854,walk
13.67278797996661,0.19113343841056046,0.1512731776227369,9.655873912337816,-0.8345107228454545,-1.0717449192715174,-0.5225815951805829,426.91425786996797,480.92901887849854,418.8424758745678,walk
13.722871452420701,0.15522235863481004,-0.02597894529306624,9.321784041708256,0.10685266774759351,-0.6208515515852806,0.23657423109041917,453.40312060777984,483.92271393318697,557.3775870775198,walk
13.772954924874792,-0.020409202819565292,-0.1224474906555923,9.058475800392447,-1.002224230072074,-0.4205621985097823,-0.0825436104477982,475.2694018671232,570.7676986777054,481.78612822442733,walk
13.823038397328881,-0.35594091070651823,-0.07242620902579011,9.159578073640635,0.8090381153131232,-0.9351818867583714,0.18671210636281171,464.1346621035581,517.6022499897688,526.4157883673302,walk
13.873121869782972,-0.36961292366192844,-0.4519874165257483,8.782721676533741,0.037903350860191205,0.458022900197004,1.424849715317027,526.6428116481271,524.4843761187375,397.86754265809475,walk
13.923205342237061,-0.31778284311249255,-0.22261643612759335,8.96799177894265,0.00011006627876974595,0.3466103373863801,0.35048664318116574,440.1129014038324,436.03673225925235,545.3462084225247,walk
13.973288814691152,-0.6126949609430838,-0.1393375867742727,9.48854890270961,0.956451300910149,-1.2755673069208102,0.06432301017615627,521.740259949259,519.7520950708081,458.3403370914573,walk
14.023372287145243,-0.5135369445793327,-0.21503709129673404,9.720762601164138,-1.3924938061395127,0.530059866369763,-0.27869573760772,522.7104456909851,522.8816694839746,463.0771709724067,walk
14.073455759599332,-0.29414170583332494,0.052929360332825165,9.723594472625276,-0.5592684531634745,0.11457361242018892,0.2392315607356379,478.30570070295454,533.7750371821328,527.7716004155106,walk
14.123539232053423,-0.33697804727901626,-0.2914928233538265,10.33196252212598,1.0492174226171407,0.39866256114778814,-0.5239466446416772,442.0521093669874,460.11256784967446,504.7824237976214,walk
14.173622704507514,0.10644277870165332,0.39819841609562934,10.478502057752948,0.10377033736723058,-0.27791235084233784,0.28359139400075606,472.31788771107966,505.40986911515347,570.7226510334567,walk
14.223706176961603,0.36745939044426673,0.422620663195349,10.578254093375325,0.1728103645954228,-0.09419191596646759,-1.1995606776643033,528.9565967980117,501.10726705328995,472.98944314302685,walk
14.273789649415694,0.3925339233228987,0.36887452236191676,10.621207535429587,0.7889546781433031,1.400132046101593,0.5627716050125893,467.7408817967643,450.49254200316796,446.31514136334476,walk
14.323873121869783,0.5050478375560409,0.6785907349727727,10.585060303421367,-0.2069464236625869,-0.08314330084122278,0.43633593164252316,467.4891914985261,531.402897444136,415.2113515011073,walk
14.373956594323873,0.6375314112737857,0.20783082218100962,10.52048557334838,0.058143989727704716,0.5744106232385481,0.0037679307352056963,461.63340751236495,441.30368806670464,497.08574596130205,walk
14.424040066777964,0.6788835955648944,0.2288774477483689,10.025930824309668,0.11452348844774123,-1.2396755826954649,0.5026638230360428,559.6168073113655,493.29601891525505,487.15858975010696,walk
14.474123539232053,0.3735244843525909,0.1475415730334628,9.71882173218865,0.5099655208946369,0.44744961895865193,0.4392672405100223,599.9605102860265,530.668683434803,516.2368137142191,walk
14.524207011686144,0.07727176753965039,0.10928099715415975,9.389055591977279,0.42027151734684937,-0.6222161216915917,-0.18408725359458966,535.55617248681,571.2358603554503,541.9062684354312,walk
14.574290484140233,0.2353358125044488,-0.09901618769929552,9.346777125636661,-0.18424118034118148,-0.6560087922768765,1.0925447381782276,500.7001709825751,623.4224049383064,456.2616535850582,walk
14.624373956594324,-0.2617033831387149,-0.11668325846023953,9.061547221506892,-0.6956364976385953,-0.7598746451718421,0.20941412479145663,500.0745076611928,520.8394572537295,528.940860540212,walk
14.674457429048415,-0.21023877330437934,-0.22748076153888047,8.93164454309322,0.023486506606493766,-0.002831247497154129,-0.3130225719222963,436.2865097915697,580.136536576617,495.82200109719,walk
14.724540901502504,-0.6615993176565912,-0.5964323999757837,9.228473665846078,0.8022994671213415,0.9039179332186915,-0.7150504685137806,561.1534014313587,462.1380674962822,529.0675749853756,walk
14.774624373956595,-0.5199460711631438,-0.6328245593898334,8.919701791102622,1.1210172522233415,-0.10618110527759833,-0.6215983668387661,453.5009755873117,452.08465585922903,494.60013757743934,walk
14.824707846410686,-0.6589285140938975,-0.487759778859092,9.339404798184944,-1.0346659587992395,0.6985283438355642,0.35023870963824527,472.2393987649273,531.4913122111082,517.687559253086,walk
14.874791318864775,-0.5582648934599197,-0.17205767551960832,9.895856927881637,-0.16604001658176681,-0.3023263081293779,0.21544435914116117,529.6421248343116,486.06352472053925,538.6781704783534,walk
14.924874791318866,-0.4921930811336038,-0.31905086763762147,10.012952790824235,-0.17357381922825751,1.1612064494234775,-0.12376245928983567,477.9910840490264,495.0639591948925,511.7359987485971,walk
14.974958263772955,-0.18429770697289746,0.013222754740941853,10.418945517613853,0.7432612454841336,-0.45762684736447434,-0.8341251045568278,453.7168604600404,452.05966787715397,526.5628690845556,walk
15.025041736227045,0.1498477188464431,0.1671998972116379,10.684413367471212,0.34002585903790267,0.6379015716831081,-0.6222336912663962,475.6075909723097,448.3840371221513,442.09602010523946,walk
15.075125208681136,0.310144472803703,0.42697694335834635,10.515142972325197,0.7807063154658233,0.409392641654165,-0.25444426501787126,497.4309543241305,503.0647335133458,488.9400610950171,walk
15.125208681135225,0.3671777243033148,0.5949670984043327,10.533295924232425,1.2095329482659152,2.057676112203477,0.9560305576248462,534.8978228183958,504.68223600097616,466.68698558382385,walk
15.175292153589316,0.620852231633669,0.39247863089761137,10.452458911445788,0.8434452692701383,0.41106890307437394,0.12875012486453324,502.6584640076926,535.9739862269874,455.44862759565575,walk
15.225375626043405,0.504106505590184,0.45653623421686135,10.216862381833739,0.7961418498064198,0.9365114944312853,0.24445362918231037,534.2656655642074,518.1373793005401,488.2094363682768,walk
15.275459098497496,0.5510799413181494,0.19003764259713463,10.285391840904873,0.2996437849253241,-0.04174210405787096,-1.558565940855074,455.3995539390971,465.8889149278586,522.0586453305408,walk
15.325542570951587,0.36538288323975265,0.28202594378621404,9.829861289589083,-0.3532444462423811,0.4026842338870396,-0.004267144470981211,431.58463570463624,526.9919994512153,502.05033014393416,walk
15.375626043405676,0.09635618667386593,-0.07296341762840813,9.23883356792229,1.4387159447464775,-0.6676451281536542,-0.046060220600311425,432.90754010318466,508.145114796582,550.8633313291484,walk
15.425709515859767,0.091256627606649,-0.2929685730340206,9.216271777407519,-0.3709863631334467,1.0030999423374014,0.5743534491153853,455.1522602633428,508.1752873669576,501.01991476091655,walk
15.475792988313858,-0.4354211882296455,-0.4334756423991658,9.307020626136289,0.12126442837061241,-0.3481841572548659,-0.5222776762171629,450.21367024559896,465.9867990749468,499.80759498668493,walk
15.525876460767947,-0.3061617686999434,-0.3223851784572394,9.002401916886404,-0.46162143425571117,-0.10143494820985172,0.45062768354806815,391.0583947322624,526.2752202893867,531.6449520810166,walk
15.575959933222038,-0.48239713563103753,-0.6196604005986879,8.943704867712054,0.3695933283846047,-0.3037001895488343,0.5243168171231058,494.7761211265862,526.5002550795848,546.6547552857807,walk
15.626043405676127,-0.8318211266396405,-0.22879083245629955,9.129415748358058,0.26400167526713414,-0.18521114140334805,0.5106686417384161,516.7831322998411,430.00584333402116,498.89512482059246,walk
15.676126878130217,-0.45046884036746104,-0.30608651245823537,9.686595203170167,0.30050400223993173,-0.49077888153235105,-0.06459785020398456,520.5910599034878,576.7951853634852,568.070401966291,walk
15.726210350584308,-0.6267077912661942,-0.34211382600203744,9.774768776490458,-0.8778431091364258,-0.1899201015995519,-0.07565896171038555,521.8414309489589,468.2749764818346,529.2862709142915,walk
15.776293823038397,-0.11869752797232205,0.0653871340335967,10.0389186132641,0.6609304100510232,-0.3262772389724457,-0.3228550657189688,531.416780889946,457.7546381627764,537.588149059181,walk
15.826377295492488,0.2573705465258795,0.3207556327993252,10.381612696128133,0.02191152745749843,-0.19082779270933606,1.2564024323399385,469.6854320330274,498.1678680843877,522.6872899301017,walk
15.876460767946577,0.18716871873833107,0.4745552751657014,10.370075662447615,-0.047242128513608504,0.24906572978961886,-0.01487306043825713,532.0126498062675,504.07654667027595,425.660428918057,walk
15.926544240400668,0.29608156560308424,0.23479183366428488,10.560031721920126,0.16669091946207057,1.4086017047377102,0.09033013602463526,583.0812294199728,511.07147502120455,516.6644624211779,walk
15.976627712854759,0.6019684044296957,0.44312488607350053,10.694559683472784,-0.9353897452753328,0.49619872721405844,0.1478019964275625,472.8256892200576,521.6021024053742,407.46770667882464,walk
16.026711185308848,0.5482329074374381,0.3539285906217925,10.622619885234869,0.7028355857125439,0.5205332597997524,0.812168522556753,477.4671958854926,512.5791978138877,437.12699801085813,walk
16.07679465776294,0.5694244255129849,0.2856784091175186,10.378543566822403,-1.5554551994614667,0.3198126316893202,0.40162294559979983,561.2144193723962,469.7456166982609,478.9832874248756,walk
16.12687813021703,0.4908334948622622,0.2534070075729845,9.95075372181218,-0.2997271093797049,-0.920623773820785,-0.6652775710331063,489.9765762903103,506.7325266519992,508.2590100939582,walk
16.17696160267112,0.3876635256887176,0.017658847096040736,9.750173463409238,0.8839205408200501,-0.9131911070328063,-0.7095272485369805,527.7988081932592,512.2966134581267,484.2180010348124,walk
16.227045075125208,-0.17381249078345531,-0.20603540401940296,9.406261264797106,0.191488196471846,0.02697112393055876,0.24097012912975888,522.8147808245042,525.4087502545518,507.91718951483125,walk
16.2771285475793,-0.19994137139650361,-0.18288110317790265,9.232061546331293,0.6737025542046265,0.1397281014155241,-0.5049709608590769,491.42595366614023,530.5743743437286,448.68429898392765,walk
16.32721202003339,-0.23503394778344688,-0.37728315857581685,8.902748422674476,0.09650305070461404,1.5674054745788306,-0.6398390830220154,532.3921272591996,462.6263306667501,460.16536786391583,walk
16.37729549248748,-0.27512896943250936,-0.2937928986477921,8.999731474372853,-0.025831700657635598,-1.0712387280524909,-0.23978043866522203,537.8749463465435,441.89244036495074,484.4382335899647,walk
16.42737896494157,-0.6396266907187085,-0.24448389922509017,9.101741885106424,-0.3861369264897917,0.08889876722189533,0.6382279143083397,544.8482287988726,501.2821587798052,508.8647701780856,walk
16.47746243739566,-0.6243338497628849,-0.4052363184361673,9.342246519385899,0.09136374959566043,-0.33884491598674393,0.9413619717649824,488.19982209700163,506.41528355035496,537.2552546377962,walk
16.52754590984975,-0.42244860546123375,0.07039129365842928,9.676283170298221,-0.002650668001495642,0.7869821084533438,-0.9183414435970719,476.2832871811547,453.82153799495995,511.76386746307384,walk
16.57762938230384,-0.5331231849168975,-0.12353159624544433,9.996394729077359,0.5035887015661534,-0.7764234998474128,0.9618407737612873,619.0186898944139,541.8349906142894,481.8983511184663,walk
16.62771285475793,-0.0519337878882488,-0.010288135167964979,10.362692790557475,-1.1324890754551407,-0.24658837670539635,-0.3308001866402374,400.7364254738716,439.10865421203255,520.7137671053547,walk
16.67779632721202,0.05867090311664534,0.07681522867620937,10.391260789769985,-0.5557362540393154,-0.0008381436781613468,1.390502514769682,512.0213700010938,490.8804346277521,525.1775280635412,walk
16.72787979966611,0.023829438588833074,-0.030382172234361016,10.78267932343453,0.938506854340064,1.1340697815852319,-0.1588892626313807,514.6614148268537,498.7950771281007,569.6917536959934,walk
16.7779632721202,0.310109043778545,0.243431056268093,10.612675220895984,-1.5381632478087308,1.3286915616944246,0.3034506148271078,566.4386111788602,505.5237212875949,485.4146870701873,walk
16.82804674457429,0.7705814723750092,0.39848768309881755,10.586879918906032,-0.26567749762654497,0.2043557141646161,-0.810347890102554,490.5743339816386,452.2488606145964,590.2944197416947,walk
16.87813021702838,0.6811596862613383,0.2829180326674577,10.249102336725818,0.48173702673642577,-0.3537211863651844,0.4961133850528261,500.5605026630127,591.7713778061117,527.6174880125006,walk
16.928213689482472,0.48295578929321464,0.25761600727850326,10.038389964676368,-0.011519307892343737,-0.7331389396841751,-0.3910126714456659,552.2412622778327,472.54696358595373,544.4514902991974,walk
16.97829716193656,0.30419942142187917,-0.027569948000832706,9.685077657736722,0.470222314269029,-0.7774130118656285,0.616398047498094,462.3963290853053,411.8297239377622,523.8679254345408,walk
17.02838063439065,0.3169801166886473,-0.27320502209987096,9.248616803497022,-1.375909535068861,0.2666362968313098,-0.27014400331799543,476.0562191743527,462.65505723412605,507.2464763460561,walk
17.07846410684474,-0.048235929154966224,0.13364765165920264,9.124108826491419,0.32150546031492777,-0.38947845382262686,-0.40453983656117415,486.52836675773995,520.0762074745879,475.7427256073821,walk
17.128547579298832,-0.13390921497440472,-0.1263428088584524,9.298300048323053,-0.10393125613178926,-1.0831879756573954,0.279740361802848,533.0509148494538,524.1029880350025,447.6785299593337,walk
17.178631051752923,-0.3202207504686063,-0.0866580120355101,9.171831915287413,-0.4993344980036612,-0.6659802602029523,0.8960307993495296,432.1897220780172,489.7556143843452,543.8287236218442,walk
17.22871452420701,-0.6403066369008764,-0.4190457054360933,9.422798751631406,-0.4677097929861668,-0.2642028987597228,0.003153862218901686,514.3532913868061,467.1359212037437,471.07312134743836,walk
17.2787979966611,-0.495993476234933,-0.31336373634703973,9.236506106976297,-0.6861169991008853,0.10895357583982022,0.6319155124994441,403.27994451474706,452.5028633311467,502.4312174508011,walk
17.328881469115192,-0.2601627613558882,-0.2215380037298874,9.560019432945813,0.6054583609459128,0.602270481639763,1.2271454361867333,501.13801846937406,526.4754441867174,499.5758856196701,walk
17.378964941569283,-0.37968489747230955,-0.19441930860565038,10.044855524481788,0.320299702343257,-0.6111740723032952,-0.584842324667588,505.1613660768375,429.6860642083585,532.7879018811797,walk
17.429048414023374,-0.6326868813748612,-0.24567249427387167,10.06144417731303,-1.419056717724174,1.11187878484852,0.16659200443693806,464.6507091823045,450.70951249079826,482.1145049793666,walk
17.479131886477465,0.04030105904211306,0.2833145296415014,10.501364921730671,-0.4503349544077322,-0.30860122720216454,-0.5486036699797548,482.86027516919864,523.3745418914049,506.4237188434239,walk
17.529215358931552,-0.08537809394250151,0.045326279640220735,10.583087076876684,-0.812726959800086,0.8947697811600898,0.3346829170079727,507.1652281502472,501.7404523412711,506.0316408282469,walk
17.579298831385643,0.27669599670374717,0.5032949857651573,10.514352070824081,-0.9181604491768952,-0.044879200059587225,0.016813401542255853,513.1380300500026,458.03789876431244,531.1270265062988,walk
17.629382303839733,0.5094885748190705,0.5145110755670771,10.45258569787655,0.627856373399179,1.1157132773070002,0.00889798419787676,580.9402120470725,480.2205720449138,505.26865839896,walk
17.679465776293824,0.7275441405910226,0.5195845248399277,10.416621452556216,0.7637830591998529,1.5111679991004539,1.1959107185822746,560.074867327773,520.8664164024772,549.8945004772545,walk
17.729549248747915,0.6506743907997973,0.5938265066833175,10.00768396227801,0.41849419230989837,-0.2497160929121816,-0.48347425388826304,483.76145836947154,538.7198724587337,530.7240579099736,walk
17.779632721202002,0.6789383044957771,0.2064717022754504,9.700983691320868,-0.5124563355929121,-0.2749486715275321,-1.3521875043496943,463.12848347903673,412.3766754653676,479.53980287037234,walk
17.829716193656093,0.33398459564361593,-0.25877066234176055,9.563327027194326,0.58320258507885,0.18227157853076195,0.5877927050223056,541.1782321257374,535.5653390427165,560.0759140433613,walk
17.879799666110184,0.14983746525191244,-0.23170308860162925,9.29880295473224,0.06835137947063818,1.9087324772303047,0.4736185064372654,489.26647765424775,562.0868599271594,477.3811147432523,walk
17.929883138564275,-0.3080773427235229,-0.4036986691377018,9.172907937561725,1.214774973748115,-0.7781929449555393,1.2811040728132186,525.4825449673892,557.5227332898237,412.2129441585188,walk
17.979966611018366,-0.12396270035225124,-0.509838478814441,9.016260281474239,0.8574190413011152,-0.800423624497484,-0.09247869777287665,465.3018297238898,498.12751686973877,501.0665183611246,walk
18.030050083472453,-0.3121025058702128,-0.35266052161780015,9.078146873518657,0.5144602699376193,-0.9495430573726867,0.29284814908030604,535.2293273957991,499.0745552910177,521.4201698693472,walk
18.080133555926544,-0.6557743666593102,-0.22505443030101874,8.838706850864458,0.19538618118582524,0.03508371108795033,0.9562603424280679,477.2702811265439,480.3942325482584,523.2180263351084,walk
18.130217028380635,-0.7500722190142636,-0.49268993461388627,9.45833715895881,1.1035085959860078,-0.29147379258698597,0.4078038439029713,506.8606124021422,505.8688887859308,498.41798628674644,walk
18.180300500834726,-0.5092373520089245,-0.0889431919435002,9.459961028275636,0.013354131638287154,0.4300407497721195,0.20029832205656956,470.8995616628881,523.2346425055483,483.45437817650475,walk
18.230383973288816,-0.3823008588365389,-0.1439958959445133,9.877456291695214,0.17023278031965444,0.3817514935749068,0.21782696799980628,488.6414102579196,460.87155753172027,458.18053882846385,walk
18.280467445742904,-0.07671199301306991,0.16736945261113115,10.041355081854274,1.8992778208071512,-0.16736102917829576,0.4439676539877181,521.8946596877519,444.81081958624907,450.68007196177234,walk
18.330550918196995,0.06420516099506159,0.16360497765847382,10.566404938214122,-0.19531243651231722,-0.17892425784854388,-1.0539445993420744,485.46664933083196,470.6226268569425,430.5664383011855,walk
18.380634390651085,0.354610562703946,0.3979759297994982,10.401783085479357,0.2425596168181383,-0.058217161441669454,-2.0510003943025406,493.2550082547923,447.08717733679424,431.4231413687139,walk
18.430717863105176,0.5178230580194402,-0.021226053891939767,10.349171042384548,-0.30139418288733766,0.5518176671047299,-0.6579844220626332,513.290655965299,420.1662528027403,445.63060273241086,walk
18.480801335559267,0.8024057972859762,0.20624640086326584,10.653103034543093,-0.4586674955253483,0.06152897825352303,0.6278052028822927,447.69841852477253,504.15347481428927,490.4536408614461,walk
18.530884808013354,0.6839007828639587,0.539228369765679,10.148750151521893,-0.1124036540694934,-0.22648309194705654,-0.13898466760508027,525.1968144822953,448.7460264522949,479.8356532725299,walk
18.580968280467445,0.658663465008422,0.30655337887284084,9.943552672253585,-0.2514485110181731,0.8357610327793116,-0.177638314503693,523.0113598883984,437.4358856330789,478.38358662197913,walk
18.631051752921536,0.5357073006727088,0.10198237696844668,9.803850721899433,0.5586119395087347,-0.6953482272876874,-0.32381984013834647,484.02563312825725,473.6469457169363,543.8551358137856,walk
18.681135225375627,0.09873102207710178,-0.05544841340076995,9.633896415443264,-0.9478974734161959,-1.1147032930059688,0.19477183123050407,508.1028693564683,510.52130553427224,527.3956021517483,walk
18.731218697829718,0.19882965968941096,-0.22140871702516934,9.300529290907093,0.23583231302097135,-0.35978670209281116,-0.5698168015996709,455.0841217084126,585.0592657882944,481.61765674295566,walk
18.781302170283805,-0.12225256500606252,0.04479269784587597,8.876831122145415,0.6028860800233592,0.8405045368386233,0.3686397514674834,560.506339190918,451.86103992966724,539.8294122345538,walk
18.831385642737896,-0.16135540271299775,-0.28742102416690546,9.013030033674594,-1.1982865018941722,-0.02231058154562431,-1.4334064822225059,477.3762255509148,518.4601007189567,545.8065874938009,walk
18.881469115191987,-0.8329376615778286,-0.321535329864688,8.927780985849994,-0.9582547538566362,0.19991241376939017,0.3882988300152857,512.2407521242426,450.48776816109853,522.0955674925076,walk
18.931552587646078,-0.6538960814717064,-0.15528012120025378,8.954036751825024,0.583191153795631,0.5555563494539856,0.7148133126656601,507.23182151439164,440.8021965948866,571.7031910078381,walk
18.98163606010017,-0.474878270399161,-0.21834504742053074,9.087795904453264,-0.9621798518324589,1.4703273702212376,0.32231079860766215,547.9925494870163,462.3721498004207,510.5304162513505,walk
19.03171953255426,-0.4416074433022175,-0.08419926631709015,9.792603267399581,-1.2460249253263156,-0.8738113430573897,-0.4475920428805596,571.4725571375503,555.7692605469149,411.0795277920413,walk
19.081803005008346,-0.23710031891765332,0.1657516256440394,9.658239624365015,-0.9517794639937934,0.8736703024700408,0.7421249720015757,552.8797814625759,502.5737712937923,517.3797886930754,walk
19.131886477462437,-0.18763375876683716,0.16765877499909942,10.125077351992923,-0.4643068697723482,-1.0272364391282445,-0.3760745460448293,517.0951909653705,465.6321097709917,510.6728807760864,walk
19.181969949916528,0.15954451587047463,0.28277472427480876,10.35629958025871,1.3214476951025385,0.08066375413362621,-0.3942462245534037,517.0632349998941,526.6710047248888,535.6747932764425,walk
19.23205342237062,0.12864717168185869,0.5390801977334346,10.474673766670813,-1.2607781429202771,1.2068590104103638,0.17720924679171862,565.715701276979,526.75350343479,495.162841968396,walk
19.28213689482471,0.556574246202026,0.3816994816958789,10.750724834447206,-0.4098229712991297,0.26723073385452645,-0.39963143641177007,426.5722240015909,582.3357406695293,495.20665217916064,walk
19.332220367278797,0.4850084655419022,0.22384586939598372,10.528716949532628,-1.7212436032129177,-0.28194776254482107,-0.10119320239993138,489.3653335497781,448.6210732518508,513.0621175149399,walk
19.382303839732888,0.5555207127542507,0.28238746522043606,10.385420429963775,-0.02337682938318629,-0.17291473528962847,-0.15411537412606982,437.9691651004778,486.914673294081,453.35534856911755,walk
19.43238731218698,0.5016871522668619,0.38567413781220256,10.16483195519959,-0.7519684863399346,0.2154745488207561,0.6654938799789244,473.33884321076306,496.85224191634995,539.6325530033038,walk
19.48247078464107,0.692576796529891,0.19364982381098655,9.674467184634118,-0.8275685950835465,-0.30731377772306573,0.5828711875196224,434.7787600638497,541.3310103940008,561.2018248628615,walk
19.53255425709516,0.2519379183031661,0.22265822353705297,9.520823681330148,0.44008478323645867,-0.2407931299138872,-0.0316192088432288,488.963127329826,512.8755983833721,554.8151467531552,walk
19.582637729549248,0.051380046736915666,-0.027057008480853878,9.263567220244076,-0.42826053989518953,-0.48255847476156727,1.1473215881097856,438.37580357444807,482.66232522420006,480.308246323077,walk
19.63272120200334,-0.42259220618764837,-0.25275415806406704,9.539462932311396,0.785120107619525,0.37691797546017086,0.27957734022874486,436.17512563747715,546.9918225098749,467.14137958897373,walk
19.68280467445743,-0.5441432844886143,-0.5464707347156341,9.076777154256328,-0.09581672227382453,0.04293063766494775,0.7345651474253604,540.8801113111712,489.97872981753574,485.62727693702453,walk
19.73288814691152,-0.5688194908004962,-0.5330660037166151,8.932580187075944,0.3124634942914954,0.26201465744781277,0.8906585053516155,511.1926549154016,518.8670571137538,534.1894116095966,walk
19.78297161936561,-0.9064960872075017,-0.16997281538085943,9.187162995009052,1.0882284426384805,-1.0578135842169492,1.2998843943684462,389.5277206091751,487.0206088365548,484.94692006468654,walk
19.8330550918197,-0.5920336303361903,-0.3642298032836867,9.491258057917872,-1.0530849101275452,-0.6293642991734661,0.48353649018855643,516.9454879092945,480.24712239028185,524.4868508336685,walk
19.88313856427379,-0.35058178473700885,-0.6858019712324008,9.683724937314324,0.08688654946647754,0.41637608415159266,0.3357137952682653,502.5371458145578,423.6293535724227,479.7215709357926,walk
19.93322203672788,-0.58772303704949,-0.09777265862959086,10.024905855718778,0.675567805840681,0.1210267103591357,0.057975986876960255,509.7482157277296,527.369203457254,537.9063098336729,walk
19.98330550918197,-0.061985920636943165,0.10163264339403832,10.674598865575138,0.14733706645673975,-0.28120024451131204,-0.18133155834563527,403.3167692368593,483.9184239100382,502.3257563554566,walk
20.03338898163606,0.28541781175606973,0.23393470755780704,10.737136693103832,0.06030678623710927,0.5523219765928353,-0.33345166764365197,497.66584176247835,492.180302523462,537.4376087855068,walk
20.08347245409015,0.5014142523174282,0.21507284535689572,10.459990418738913,0.2246785952932751,1.0264472399083069,0.23548693527914702,501.902626411573,555.6140385969967,512.7077557606151,walk
20.13355592654424,0.6538311698749217,0.3699599178702989,10.73276584299219,-0.5305751542813222,-0.4318795075688755,0.061879428015507915,489.9301311438849,477.4152363878305,478.5879139522994,walk
20.18363939899833,0.6104703606481794,0.23608884017527984,10.605481817123241,0.2113389201987344,-1.7134424848998189,0.4493423071023126,470.2095839657968,550.8604159070222,500.1995080232036,walk
20.23372287145242,0.4298351270466119,0.41248464519970035,10.009296767625846,0.30317492230978693,-0.950697698177491,0.05567318645461086,521.038382973618,428.71194754182926,487.5047760547101,walk
20.283806343906512,0.5673158878119093,0.18914060625395085,9.983138645907099,0.8651282759213823,0.9313258002551126,-0.7862665915148248,603.4013738900137,405.80430506368083,581.6134537256788,walk
20.3338898163606,0.2796077642823739,0.0737991231087878,9.854887646481469,0.398280582594913,-0.2904616157474489,0.1535163936689765,480.52454791644817,488.9509579723468,551.0820778177153,walk
20.38397328881469,0.15716708752842112,-0.07547239355390778,9.349109223875644,-0.3086524026038351,-0.12763194435050274,-1.1347482248146248,529.6040456488081,518.7014856055432,517.6157063754973,walk
20.43405676126878,0.06440681834564395,-0.13083712343440923,9.207835547197005,0.3020051565401531,-0.07392972806113321,-0.6570950033310062,519.5636172284725,539.9734542394408,513.5099621980294,walk
20.484140233722872,-0.452833471173969,-0.34850426319367617,9.334872591447105,0.5845500712912794,-0.41904555302058505,0.29773067351790683,549.3853676008292,515.5628150081315,501.6349790246609,walk
20.534223706176963,-0.47905050604767435,-0.2723945882293606,8.903475162708375,1.1113517116448397,1.2276306658569707,-0.5728929532838943,503.72846521195027,474.22555290197965,495.1213869004972,walk
20.584307178631054,-0.5152589263245513,-0.2493224839949862,9.249150802149696,0.20567580661589668,0.7234374291755415,0.04586228454323063,558.4544763292947,539.6535615955934,555.0097330501101,walk
20.63439065108514,-0.6336440909762879,-0.25137976802183704,9.262347494341718,0.49582664398586357,0.08428595091706559,-0.267859229560753,426.9691790294814,542.4507691187861,527.504132441441,walk
20.684474123539232,-0.381777063940572,-0.36458738432939175,9.452369799968555,0.4131307625307615,-1.533475120931551,-1.022217702954199,451.682771867057,460.3215268110887,499.7204265428464,walk
20.734557595993323,-0.5205249250466693,-0.20865347200909906,9.726812101274074,0.538599538356013,-1.1674129219471954,-0.4921527357423537,568.4544131990876,534.8569219947796,516.8912627878806,walk
20.784641068447414,-0.6491291617504227,0.23260147085948063,10.008332116899453,-1.0378996599752568,0.44361538205090234,-1.0415185480524969,491.3705011196632,606.2582650569916,498.9495774052763,walk
20.834724540901504,-0.03306409501075008,0.18490732548507022,10.196707460759994,0.9326210462018764,0.8548782556754078,-0.3992679033493259,450.14991570640285,501.1744128983117,450.903902396541,walk
20.884808013355592,0.382042171908544,0.4395752459876,10.311964840039703,-0.4218106839979282,-0.12589199689772168,0.18443509946606362,545.0101048333516,463.5335376067621,467.4847600490783,walk
20.934891485809683,0.45394148160679254,0.30892520779987603,10.546889721252844,0.8029996549591929,0.6344187479643348,0.17469940247299218,521.5157881512091,449.2326661805672,483.69792547796595,walk
20.984974958263773,0.7343539443439305,0.5546456065161883,10.21073560222053,-0.039660841643897604,0.11945513336729492,-0.7490971394211561,475.9515618330006,553.5196002641835,534.2526348464122,walk
21.035058430717864,0.32322359992512817,0.24745528150043988,10.165727419244867,0.20806757336285978,-0.12464592306455108,-0.20666702665601364,545.4764010994055,516.3076079974529,512.8644087142487,walk
21.085141903171955,0.4988810558116656,0.503828607833056,10.308310502738042,0.06725774605623369,0.8447891504077949,1.4461974712375547,486.08898574688413,526.4457822942395,538.9283571993404,walk
21.135225375626042,0.6591543189249368,0.2450236802952686,9.632244549936857,-0.10733907816070494,-0.7662553935364603,-0.08523107638900343,499.9894056446191,399.40628217296404,477.9723800395344,walk
21.185308848080133,0.3504813716026956,0.00785032864636609,9.656209185303139,-1.690659477686779,-0.456841575437945,0.3970107396015307,468.4258300113184,533.0956198230017,485.07330021458114,walk
21.235392320534224,0.21438396783185132,-0.32656980433605565,9.317557620580427,-0.44424969509376355,-0.7134810979518325,0.1523926694400367,506.4415815259801,434.56508870785945,496.5417654707688,walk
21.285475792988315,-0.26397923714671334,-0.45875752342751036,9.240303960145079,-0.35049530546952856,-0.331581200761822,-0.2650241098012218,527.9650721518306,533.7464511217507,416.72868318303233,walk
21.335559265442406,-0.49715531300847143,-0.34213840790130917,8.982470403785015,-0.05848138709527163,0.17018930111549146,-0.30591410988172135,506.61138402533913,455.9356384482886,513.0845764281165,walk
21.385642737896493,-0.28733107407713643,-0.5362482461248299,9.106100341303966,-0.7427086153181054,-0.9893068713509452,-1.0314936935561094,547.5126673271662,514.2522160964388,520.4531979662466,walk
21.435726210350584,-0.8429672385455615,-0.7177815610939784,9.144450590733536,-0.5816205692525673,0.6128632188370441,-0.25760053777446884,457.72186515388677,558.946237954826,476.22436953359386,walk
21.485809682804675,-0.766091614056919,-0.12245928549503812,9.383748142683979,-0.7115715810534404,0.4882123813695305,-0.8213822685973305,483.15632282093094,504.46912291639023,451.2476231459821,walk
21.535893155258766,-0.574479968687725,-0.10515890547898868,9.80456289241015,-1.6770677765065394,0.32084336597924773,0.44728960490660213,495.5015180688598,557.544610074403,458.64492331727433,walk
21.585976627712856,-0.27188853557363224,0.1391200544939677,10.09604020917334,0.8369623774497096,-0.6934826395797434,-1.156428750319396,527.9316426509249,484.1331090829111,479.2586514646627,walk
21.636060100166944,-0.48423393716069707,0.09255732705929226,9.97920948968808,-0.45960954263322185,1.0327007315606518,0.020491671949721645,527.9226783177791,515.6511380627377,498.052282941138,walk
21.686143572621035,0.21683013216326874,0.07335788117543626,10.316022052168586,-0.7008470630927343,0.6399692650831244,0.6968211893079693,468.7863712750959,443.70544627301393,530.0855024550735,walk
21.736227045075125,0.4076737810373582,0.41744361569774713,10.691639274424205,0.4821339778457152,-1.0870552373910527,-0.48896537176232946,499.01617607117487,515.922357171733,552.5564905541679,walk
21.786310517529216,0.6567495438535628,0.35058885405057016,10.611544626555656,1.2558507568372776,-0.6339099626508983,0.8143257727434675,541.2235638011363,529.7918390487324,538.1618063317582,walk
21.836393989983307,0.6263779762304718,0.5051637269976543,10.529791912627703,-0.7894568637413425,-0.4410686016663232,0.8462119364760475,541.9212420456607,548.8816706295455,556.3658077265126,walk
21.886477462437398,0.6258931293458982,0.4795655076908656,10.267220132857897,0.43018374559628064,-0.05494414540301447,0.05675600969917153,471.4089304144563,500.9719826784827,448.5348520052343,walk
21.936560934891485,0.5656401990487059,-0.14115655676381844,10.24849410443419,1.070112654128067,0.5589376117590147,-0.8246094905937406,473.05486665289163,498.7695142582093,517.2616940717581,walk
21.986644407345576,0.4206796295466036,0.2321123244965575,9.929423609336682,0.13745762875025758,-0.0902523826701891,0.5750533597182912,438.5805776841701,501.60554220637005,496.91811255610463,walk
22.036727879799667,0.30512649648657253,0.002928212757735957,9.524819046634432,0.7494637692116561,-0.7299703952399914,0.7898787824545841,525.128305332838,521.3037305531012,472.6720322668643,walk
22.086811352253758,0.13294481753110382,-0.09051317809758927,9.111378381133216,0.5115693711695519,0.6938817632022338,-0.5604336225501323,486.5304771217798,537.0485637755517,540.6174786541457,walk
22.13689482470785,-0.21992627232557843,-0.2314828311869367,8.839646466451082,-1.7296455147131338,0.8510331064280258,-0.016887338371286083,458.09319370434923,480.7477888564556,480.1766248300976,walk
22.186978297161936,-0.6822848692399184,-0.32804116539456124,8.895494801330853,1.8871059235743854,-1.2871560778789748,-0.023609953764650308,526.0642068924735,516.8331209480673,545.6640877142661,walk
22.237061769616027,-0.5461282197492616,-0.40956393151137344,9.033813392016173,-0.2549284300294547,-0.3903961877901578,-0.26254453217862134,509.75732674779675,510.77173410446835,457.3952747099909,walk
22.287145242070117,-0.6027997545199448,-0.34807195696015114,9.305598024802263,-0.7053677604454599,0.6221887697138705,-0.06418518895835011,515.779445742483,435.3209984344902,600.4256732113192,walk
22.33722871452421,-0.6310353829379365,-0.26603785295722227,9.606288436579563,0.10365323564764795,-0.5412398565559378,0.09259002506786775,559.1417149744218,567.3946109996593,513.9006465195694,walk
22.3873121869783,-0.36877322548259367,-0.15502755552824865,9.542540748156933,-0.11459162057483992,-0.1835851807112435,-0.6148705036566102,508.549932194645,535.5733669721524,525.7191234926038,walk
22.437395659432386,-0.29479209414735186,-0.2950459328334838,9.920032098357591,0.45080418698353,1.5985020072741014,1.019012536938278,519.0462205075959,469.20456086871167,532.1935932183129,walk
22.487479131886477,-0.1364922256497037,0.019255802904340674,10.332635630186948,0.8549143404763138,0.4798580813425228,-1.1263272754382705,460.82213235557435,482.76065227960817,511.459021129599,walk
22.537562604340568,-0.2619693187536323,0.23862738721022303,10.684861450450411,-0.16741256952033165,0.010951343348959888,1.6353215943188084,495.15666250622434,487.33742974768285,491.42042261145053,walk
22.58764607679466,0.6398499042394572,0.3596200937263161,10.477555364636421,-0.4640082210762215,1.165985564693206,0.22721299131350164,444.2672624824989,505.159626729296,433.215627321474,walk
22.63772954924875,0.3919379552665972,0.32848662116024197,10.515213401487628,0.995626593711969,0.774312618391676,-1.3294313909390802,471.468851884087,503.4548683910047,536.2110328152193,walk
22.687813021702837,0.16522841583929426,0.3842752934832318,10.488458588112431,-1.3273413521289206,-0.7095261360805422,-0.008157567139300438,457.4458633783278,488.86231045109923,451.49418691971397,walk
22.737896494156928,0.29498440976522,0.35215561213703817,10.082312979278841,-1.0252192203772688,-0.010349074286896869,-1.7864493683112488,440.98108046546986,565.2860416221715,437.35359993841286,walk
22.78797996661102,0.36638825277347764,0.0888324856306765,10.089306037448196,-0.12487470513619224,-0.25561845590485094,-1.639421928643918,592.4570212386394,502.5347685025621,478.13413139714606,walk
22.83806343906511,0.4302351464825734,0.28723926867695243,9.972053368043289,-0.6305144438836171,-0.6528611342584352,0.30479883563152216,510.2227021847852,499.29688988120654,539.7233360782341,walk
22.8881469115192,0.28468678728118296,-0.08176559057472507,9.282412103920105,-0.07999743209490885,-1.0342685455090062,-0.4032425649375568,454.1277865216447,455.63476601544755,471.0786781957293,walk
22.938230383973288,-0.17532096333942493,-0.28971820317821007,9.433364357656288,-0.7443937899815172,-1.2079436624115663,0.8706177198362363,501.26388613759946,489.28037509411826,467.2264989424623,walk
22.98831385642738,-0.41822724151871604,-0.6834661506312099,9.238667122231305,-0.5706966732680773,-0.565254796549035,-0.44135284938822517,503.92487239880023,449.993134947221,503.06959762792025,walk
23.03839732888147,-0.5653760017403038,0.033117959377355344,8.882376189992252,-1.23983486260603,0.5008927894197955,1.6119984487158638,495.11077908156244,517.3073860646319,517.2037882621725,walk
23.08848080133556,-0.7708539293510319,-0.11208141915444797,9.092422033718139,-0.5814984198836398,0.5426033133772394,-0.34966474381394985,479.5770506886983,526.0820628374845,513.1545531407667,walk
23.13856427378965,-0.6981036989681159,-0.39449392760921037,9.60340430678559,0.21963823489903653,1.2290205829172078,1.1597313870963462,456.7790122333054,471.29981739725315,486.58791631698284,walk
23.18864774624374,-0.45636424278672033,-0.07111780181304567,9.519056157402042,0.3105078993584965,-0.9816472785968055,-0.906484870787301,544.113681216071,462.0802244596779,480.8065482132716,walk
23.23873121869783,-0.3677605410708701,-0.11186426956960965,10.095179932945474,0.3068088845529718,0.4568063346853631,-0.03020780181512269,533.0175800777181,510.9270010202018,525.2596946466505,walk
23.28881469115192,-0.08275193855896115,0.3223728419667611,10.077872212352718,-0.7628689339696142,-1.5430345727945303,0.6280260010547921,499.4210435655292,451.2282240972154,500.3782717569272,walk
23.33889816360601,-0.044707130727058175,0.025561306678201084,10.421789289186425,0.7975758778731039,-0.5213961445850547,0.8025668365759162,490.2588094647435,516.9104435400297,536.4397235535928,walk
23.3889816360601,0.5796789293742822,0.21196479225925074,10.626657953483747,0.6518562107992204,-0.4078195436751373,0.08711146110662679,519.0702706644954,546.5992057200747,490.1257623370612,walk
23.439065108514193,0.5746673819303733,0.34212842671813815,10.670011770269404,-0.5747933937056955,0.23418779625459163,0.06054893021983641,436.5126585902947,499.4537545283653,546.900794675162,walk
23.48914858096828,0.598252349021676,0.3523786092954716,10.5368318079176,-0.652906347026029,0.024169111476185945,1.2559810373429707,495.4524945222516,428.5562768395304,529.6762198629474,walk
23.53923205342237,0.6359550634220601,0.4813229433810391,10.708489395056727,-0.25297435298754734,-0.2856228881272279,-0.05474272340435595,530.2020120480469,521.1914292300943,554.9560902076014,walk
23.58931552587646,0.6177848350327262,0.1842406381465196,10.128054881660777,0.512256031123686,0.23003524640073636,-0.32783615831204016,540.1224040487828,532.1174407538708,517.5722944110397,walk
23.639398998330552,0.6052260322604264,0.31624369265428665,9.896159734074457,0.5997371673619929,-0.6021109383645883,-0.7128761743843943,505.19953500106834,525.389168685155,487.277152712198,walk
23.689482470784643,0.3136677890996473,0.09959156886564151,9.560098480240164,-0.012367721099093919,-0.41157730795804803,-0.3188637937808207,568.1211079161915,468.98067766229536,526.4720190050697,walk
23.73956594323873,-0.005964320534079234,0.15475376922421283,9.401385122821209,0.5418622386707316,-1.1771744208107666,-0.23505488133349878,463.3843553393197,457.8376270254194,499.5647625966984,walk
23.78964941569282,-0.05173262550719786,-0.18890302091990868,9.220221384751577,-0.8038245420972125,-0.2274000558596257,-0.15548426774052038,443.81983406382443,490.07641975541065,442.0100456873765,walk
23.839732888146912,-0.41669262162340687,-0.4551595318310056,8.876446367321481,1.6407485879470163,0.8707046534235886,-1.1235126011562322,495.76404138487317,464.0573463546487,500.99019520103514,walk
23.889816360601003,-0.41697499011049693,-0.703562569529959,8.99775563301196,-0.32873633223766136,0.0644554609757453,0.718633209367386,484.15916829187495,490.8260955745275,535.6859784298349,walk
23.939899833055094,-0.2531036755964388,-0.4361275212953105,9.092872731474142,-0.07198151816237978,-1.0170882199456968,-0.15853256695206766,431.3626093761511,625.233977353414,475.7252686225119,walk
23.98998330550918,-0.4392312322617913,-0.2686036908002798,9.122213641020842,0.5845799965621941,-0.2083512981811789,0.2955030139293559,552.5738335464132,449.54932544744764,538.1375966261324,walk
24.040066777963272,-0.28897663302314835,0.03695690870987711,9.721814839847564,0.30008004218359263,0.6799906103511707,-0.8171395038986337,510.8533525128379,539.5989933234625,524.3272259423475,walk
24.090150250417363,-0.251811051572007,-0.08081752228488367,10.315015931967073,-0.5928608009364581,0.20483612304640084,0.4633790926383627,501.4338311759257,437.1542111387244,544.5279337908252,walk
24.140233722871454,0.09774440345936004,0.08514390785490539,10.270685275378185,-0.21234310117950334,-0.9294781343532487,-0.1795766242475369,440.96553795504605,467.9632216516057,507.59556983114004,walk
24.190317195325544,0.1663702927054072,0.21238595668606308,10.668720085078087,-0.4823842018546194,0.5189195691096893,-0.0953354323678202,524.3546654906488,441.7005472866603,556.0461586640826,walk
24.24040066777963,0.36242748798247115,0.3011615000750644,10.279459272997194,-0.07549850651938436,0.22077535133651907,1.3613276589870322,488.9287285849666,554.4119099082869,503.4182964630002,walk
24.290484140233723,0.3902863592812708,0.32379723128332033,10.668908594937806,-0.029553667359166185,0.7499785799626183,-0.6528881975862049,510.050794221577,464.81121629528064,457.44892833215886,walk
24.340567612687813,0.7859596813155638,0.33041587320387106,10.390687116315238,0.24022930401216,1.4254630992133945,-0.36610678361290444,557.4958942769376,438.83486033672375,516.5448758366073,walk
24.390651085141904,0.8915031436383964,0.5192170138144642,10.131278386099888,-1.0677595573072796,1.0876599319673237,-1.1490985130666411,471.81556969176944,544.224704189267,509.88616059091856,walk
24.440734557595995,0.4065612523119474,0.3125205651159856,10.149354017575318,-0.6885094470154162,0.0376942372477269,-0.5439124304212353,563.2709067925409,534.3997824443413,492.68125259282755,walk
24.490818030050082,0.5305939045489383,0.09925880555399,9.625154864408183,-0.8714697815279834,0.8217447170027212,0.07334124742340055,571.3144336020808,455.25977020852997,522.309290804405,walk
24.540901502504173,0.3931326037147067,-0.10258178991283956,9.430620179953912,-0.925656243511308,-1.5033100945212008,0.7479773334750004,512.994172347762,493.388332185701,491.30281375922755,walk
24.590984974958264,-0.10390649434218127,-0.39860937130603724,9.020633715194414,0.521289477960526,-0.5966297069245141,0.8408164657529278,620.0874113848218,488.2044266693837,456.9438159283441,walk
24.641068447412355,-0.4721720222992213,-0.4229651336346874,8.946287819211115,-0.49663722194781856,0.004384791084160604,0.026693728923830116,527.3457965144578,490.2532464777156,559.9995343096805,walk
24.691151919866446,-0.3787863216335108,-0.4619384849201787,8.769672120809195,0.2770542065815092,0.1451342698895037,0.3353325082852248,496.9620101307985,522.1078642309809,503.80262677919006,walk
24.741235392320533,-0.7708197100458993,-0.44000855023649704,9.075742040605917,0.7889319101922817,0.4964576811418015,-0.09894523134536137,481.3822758670934,487.19406996758516,552.7539507631232,walk
24.791318864774624,-0.8454514039633381,-0.3170612268583219,9.34894812070976,-0.161659263310799,-0.020523364699950572,-0.5758506887253511,499.92786449283665,504.75612143753506,487.7983634706017,walk
24.841402337228715,-0.6350064399955655,-0.07012495197708249,9.609342295420307,-1.2853841102075219,0.5861016214118479,-0.22227223842809596,553.6417689647274,454.3017393641334,415.0170306510669,walk
24.891485809682806,-0.3833833455713329,-0.37161626210227394,9.685313517932054,0.28182844721887657,0.08197278844803739,0.8860252237378461,470.7352340251167,462.1316695243971,490.2582967535674,walk
24.941569282136896,0.013700776105800838,0.11305349433032486,10.063163565062828,0.4394482112219031,0.21073394266624212,-0.8434362752209991,487.47096441978556,510.9015871820253,548.1982489461903,walk
24.991652754590987,-0.0361481907086391,-0.030837389447358116,10.31768933873421,0.596911309993091,0.05605482993493894,0.3373416487009574,505.2391071227251,592.4147740418398,492.26092718542094,walk
25.041736227045075,-0.12297825424055422,0.4541822645513836,10.725822330829972,0.6444264111219807,-1.2867772824724197,-0.09251209465648141,486.4376308614074,485.06738180132953,509.421379792073,walk
25.091819699499165,0.462219378484982,0.46467197299541396,10.734923453633089,-0.8867842234005127,-0.07514602000178129,-1.2610944713826213,483.4343608658994,516.9708922488109,518.40702928701,walk
25.141903171953256,0.6898091658787872,0.21788719213354965,10.56256669623358,-0.8549346044477861,0.6115790163392844,0.5040349928800446,442.2206892151367,468.65823192238474,551.1653275881159,walk
25.191986644407347,0.5629596140849946,0.2787595985772905,10.392590298106866,-0.6290541614802159,-0.12980726492210587,0.6974346474591983,417.45517046035116,510.24641895670806,438.0209401139017,walk
25.242070116861438,0.30375181729722694,0.37998691337886237,10.359213076081952,0.8229398659500421,0.4957190060959477,-0.2955752140192055,429.67015880102565,525.5919107565097,492.0768048032179,walk
25.292153589315525,0.41166176089647244,0.5099381407697734,9.767947302633644,0.08831149162928244,0.4681317048116519,-1.0091496926573935,510.98482716061045,523.9847088681354,481.9115253801223,walk
25.342237061769616,0.4403233680836374,-0.2513192438724636,9.51043680119666,-0.12172143706515416,0.4772160127413042,-0.1464276602758741,561.1429752322287,535.4742631465788,518.5311892560943,walk
25.392320534223707,0.20315442852207927,0.14085570399230163,9.2356105092629,-0.08330195770694557,0.7633586521421606,0.7259688974840702,549.5400933063837,475.66857747020634,484.8192999677762,walk
25.442404006677798,-0.3168638160034869,-0.46494987717233177,9.169636159422687,0.00904743213247392,0.49494721048467627,0.6478456996987096,437.65413685365195,535.4458587869484,515.2795309355504,walk
25.49248747913189,-0.5197767662200612,-0.5030639972903974,9.396783476253994,0.25347016964492813,-0.3712655048283297,-1.030870589619947,515.8375967750128,475.64520203211765,499.08188348081904,walk
25.542570951585976,-0.693839709988597,-0.3643090572798069,8.974331548603923,-0.21709193910609437,-0.11146908024641793,-1.7922257055771356,458.51443698622523,428.6106016464392,473.5210557082352,walk
25.592654424040067,-0.6609578676196394,-0.293698964518138,9.148110895985111,-0.3235155886520506,0.5096586418832394,0.5289749365590015,479.90251276021127,440.8363088937132,463.21317963977475,walk
25.642737896494157,-0.6642166187360858,-0.1641391945131148,9.317739312941828,0.1620941332818643,-0.8512327168757976,1.5275286825142589,491.5852503597588,486.4844340766773,484.4175248554028,walk
25.69282136894825,-0.6384595274885378,-0.30745028042091777,9.532092570029656,-0.017748064596945702,0.2910231523020677,-0.28277719341935637,518.5351877530571,573.373581286151,501.26384182841076,walk
25.74290484140234,-0.42530542935637133,-0.20638621405938468,9.576018635075876,0.05770966254880673,-0.5684657503624478,-0.8940755429199123,441.32160710476313,444.15872306065364,552.4259470512435,walk
25.792988313856426,-0.17294836907496963,-0.10293947182977989,9.834502571329182,0.3239929628318789,-0.40319729135081067,-0.5885024828094921,401.44324070113805,487.0185600619822,452.3171288400103,walk
25.843071786310517,-0.15854887030826953,0.1354587493270332,10.6461877146963,-0.20186723206318227,-0.9149332706813417,0.6041394093670552,496.6091404620249,562.4578255928275,461.9195022837778,walk
25.893155258764608,0.3544627258073772,0.3569120306202967,10.697617708383012,0.5633254209682212,-0.028642816724093655,0.2292042796493737,520.865718983353,516.0212032376777,525.9691401642507,walk
25.9432387312187,0.36588613072750603,0.5230432440200096,10.466247537082529,-1.2155272152660739,0.002820492060721015,0.8103015411755159,420.38888099341216,548.1528083003953,528.7978511962898,walk
25.99332220367279,0.6667187882700127,0.44502421259571623,10.606655167862312,-0.11262723275556344,1.146537081104184,1.1196943816796545,454.7351512583796,510.6234562719878,474.9904025383757,walk
26.043405676126877,0.6717823362157523,0.2930232384591257,10.339461601893575,0.41706955183851924,-0.47000295320420343,0.2580714288474603,427.4026863392624,430.6595993246915,431.2672564215252,walk
26.093489148580968,0.6083887365447168,0.014204253578117942,10.339295365112562,-1.1066327896604544,-0.5885629658748366,0.11697735343130541,517.0219769126104,446.40663258592093,522.6274800321478,walk
26.14357262103506,0.2811552247881457,-0.017569627183451092,9.562218729098635,-0.021446579796998863,0.719552427985745,0.6327250682353446,518.7734525174255,507.6404768578495,440.43776280929194,walk
26.19365609348915,0.2890221850368166,0.20404364834801175,9.548132515331876,1.0445237910255483,1.3392081361363672,-0.47608602671695244,431.1226963064228,458.96105217979823,442.7521202457506,walk
26.24373956594324,0.0900145207432523,-0.030585467193944324,9.126851546254583,0.32138099971263184,0.2016798799292885,-0.0681252834091196,450.6233904916112,441.482181977801,505.8634293888773,walk
26.293823038397328,-0.22784944675455776,-0.12133460114948758,8.984477336845993,0.5858346623446071,0.5293712239052614,0.48780822567221366,604.4200107000602,476.56344095648427,525.448377736394,walk
26.34390651085142,-0.3582557582585183,-0.32931631217933716,9.142879783140037,0.39559037703498257,-0.8551651487636343,0.7254821563239781,518.2612257177212,537.3798265970437,482.04425012505334,walk
26.39398998330551,-0.6709937531222727,-0.2880396087850579,8.885673275871865,0.7414825429356896,0.5080962571229323,0.48500893786125254,497.8887492332331,486.97047739893515,583.8152959262635,walk
26.4440734557596,-0.5764632486704884,-0.495299075696829,9.355465592796207,0.044198612803565386,0.48129459024538257,-0.7327927103078489,561.1512357607244,444.2055680760515,489.64925183703036,walk
26.49415692821369,-0.36004424711466215,-0.3698963320976049,9.325896284421615,-0.7622468427430292,0.5769603964003713,-0.9765505603701307,491.6520629502139,500.49293845528723,524.8599891709468,walk
26.544240400667782,-0.48822479630057486,-0.15770204669745758,9.846396003215139,0.23170264419175524,0.6760319649600884,-1.0202117433560747,505.9105756821999,440.87919934739773,442.4766612935605,walk
26.59432387312187,-0.2691370537732192,-0.013779771297602578,10.023313817039512,-0.8114696762390088,-0.34626188230303573,0.7841702061565481,507.2320643189913,517.785402110164,497.1221733006909,walk
26.64440734557596,-0.11135443471270905,-0.18132213863231156,10.14004954766855,0.2923097544232942,0.15135799840820188,0.9843097738756076,533.0382252707798,483.8598604304252,538.3107083271642,walk
26.69449081803005,0.093605795935479,-0.09767307329920036,10.422012937628795,-0.8894392292409191,0.7089287461179273,-0.6014797666752457,490.9907023280461,463.02532676369594,527.7362403271172,walk
26.74457429048414,0.22922609920021392,0.26008116716808205,10.3813360668873,-0.27722871475433364,-0.1739488089224702,-0.32453469696340487,465.31153159137665,527.9665748627795,464.5582092692893,walk
26.794657762938233,0.375837040278815,0.5506314774629839,10.456861461197647,0.2865083781759007,0.8066476245540556,-0.2827115575242226,435.4931652369401,419.4223331782288,458.02059627077733,walk
26.84474123539232,0.6332164629164629,0.2797130932372039,10.418123263178659,-0.3778446844115348,-0.709760050935588,0.09236080535490342,523.6907736105322,460.03943899296087,497.5722598659305,walk
26.89482470784641,0.6099235825423138,0.390318703810483,10.255395045187619,0.7921717598704274,1.1883097367465005,0.27289048678126954,424.38564680480647,591.1314887552121,472.44523608566436,walk
26.9449081803005,0.3688441907151051,-0.02299219591448734,9.926592886113818,-0.19899597093071686,-0.778205890138856,0.006838578113787809,470.8773256698284,490.2966395096335,495.47383140768176,walk
26.994991652754592,0.46768670185760847,0.13719933258420408,9.6679752324498,-0.25784510084375284,-0.808425744463312,-1.0581476336072622,531.0999363518207,517.9005956428418,559.517606776768,walk
27.045075125208683,0.1596036154457265,-0.08497402806908066,9.214389054353301,-1.4600848543884133,-0.19003083711677737,0.41303265276358414,538.2264025508113,485.6894885604764,546.6057367518719,walk
27.09515859766277,-0.3332736366819422,-0.42171940214827364,9.007947207313462,0.3043297216411602,-0.16886006233946776,-0.39643968944550284,505.20569606991927,461.0418549359667,465.70503283525625,walk
27.14524207011686,-0.251480455080909,-0.37933933132848946,9.201714749494643,-0.656462110411104,0.7328021873522411,0.0679139169268488,479.1294504332093,553.5731306861212,519.6230268070154,walk
27.195325542570952,-0.2858625303391675,0.051524575219236424,9.101078550941466,-0.49274826952087714,0.3962925944867103,0.43454237941980745,483.66186858685097,488.294410925615,549.2631480588458,walk
27.245409015025043,-0.4811000521623678,-0.2512887740486506,9.22643460804175,0.3854591140832014,1.0877402672854657,0.17772033380503563,441.857724758571,509.39113504180375,445.36944662392995,walk
27.295492487479134,-0.40606802543401027,-0.3738921169546021,9.138186957938222,0.2500643833084955,-0.3027490671117954,0.5781733489309754,513.4828531790725,492.7606460242505,550.1677948288583,walk
27.34557595993322,-0.7541058513776273,-0.5313092106307271,9.455525457142802,-1.0035807954874227,0.24874715169028933,-0.022661494947375675,543.4271871880024,537.681224768309,490.61957913854036,walk
27.395659432387312,-0.6127346264727015,-0.41111959205957793,9.708118789441253,0.4607087821997843,0.5921320169261359,0.19459639438758408,426.8845240003015,549.138990888878,480.35220889212115,walk
27.445742904841403,-0.6379691460716121,0.10608746997755245,10.169641751864145,1.2331914762504212,0.9587302459858961,-0.5878413597062314,491.22407178032074,478.19811662019816,488.0589548718587,walk
27.495826377295494,-0.12060494293957824,0.38263420618416993,10.553059865498204,-0.032342926168062135,0.7758790405850393,-1.5475691878685645,522.0434284083917,472.7784638779353,500.15980532207203,walk
27.545909849749584,0.14430607883634006,0.07896230646116953,10.593502606851358,-0.44863651015356587,-0.1359586180373268,0.15613961240449475,542.7944184341779,429.24847244448597,470.1225970521462,walk
27.59599332220367,0.1206888270085374,0.15540873120636686,10.55211317277701,1.7525745855851596,0.24197303387762778,0.6621441858889217,546.8475458908518,452.8719426268635,503.6584100551302,walk
27.646076794657763,0.7393090812964305,0.15486483997915965,10.579405050310672,-0.37120725214083045,0.02146197468845543,0.6008342974661405,482.33785824836474,418.75715199161465,491.9741117510887,walk
27.696160267111853,0.7406011728405747,0.08001061176974072,10.535391722087999,0.1242101914642861,0.04607945873057178,0.5036596168132738,501.2237974716879,464.05334033455716,476.3591975149597,walk
27.746243739565944,0.3308719221165649,0.2623985104685133,10.233330161397044,0.3017336058789155,-0.11768291435297971,-0.8511990667639513,499.3422781539894,550.8223227498557,456.967489698901,walk
27.796327212020035,0.3982918736516866,0.2260737614523164,9.470515488658798,0.20581937490942284,-0.8842717966472247,-0.008452175437194395,511.263107881225,544.624291759927,445.63461976541464,walk
27.846410684474122,0.42758057733753835,-0.1753062316024936,9.653504764647087,0.21848509127792382,0.7257230840679407,0.25874280136193967,536.8086205322871,488.1000741012091,470.54996433449827,walk
27.896494156928213,0.2336991171146579,-0.11097926602254965,9.247650479399912,-0.006000006097531824,-0.8641867167135008,-0.6646143533597292,525.9353292751484,576.2793961159554,547.7922320630397,walk
27.946577629382304,-0.07662470091292659,-0.45347075097375084,9.079739679315901,-0.1785648655796503,0.012132556681516419,0.3015333263395063,494.23568012074884,573.9688567627495,520.8221167005655,walk
27.996661101836395,-0.27338452034360794,-0.23460596624241165,8.989721437479126,-0.01617230447360191,0.3755536257006066,0.9385634634446646,492.13254720588805,476.56795887232727,519.9418170163013,walk
28.046744574290486,-0.7826673868823013,-0.4235802799882924,8.871844501472914,-0.5051145437886009,-0.41483379807207293,0.5440766915786343,559.2846698749123,513.8144829543048,492.58466418895614,walk
28.096828046744577,-0.4788850112062347,-0.3071966081059402,9.061491051556562,-1.4593022006324343,-0.020240405778912042,0.024616093106798714,499.307231527898,469.0892591942787,489.1985508332435,walk
28.146911519198664,-0.7203183743715618,-0.18718547593574797,9.331819915870923,-0.04626787688493562,-0.03600047465460591,0.5513545457573272,480.76664820301977,496.4189265185933,494.12298932201367,walk
28.196994991652755,-0.5967055658870661,-0.11631316790180199,9.6408480597587,1.0782641103706097,0.866707372062977,-0.7943450901738106,457.1072367497322,508.4256182766748,527.834833624725,walk
28.247078464106846,-0.1193270623263013,0.0843710158592432,9.893047281093533,-0.6990037023282004,0.5639169287848284,-0.7787797017068541,528.6664110886579,517.425027800201,538.7492283490949,walk
28.297161936560936,-0.06966453088958686,-0.05961654857356183,10.251495361261451,-0.9836921197838833,0.7854214619210083,0.2789686895335384,538.2845595576397,422.1233542464106,527.1604654953479,walk
28.347245409015027,-0.18287357743423963,0.028858068116809854,10.369874645676687,-0.4507340982319832,1.2665712296545784,0.34613127992962706,481.04899521734626,473.7802874285194,523.8306806221399,walk
28.397328881469114,0.3595773895034509,0.335451120885651,10.278723548382406,-0.9834514564774934,0.7854872896679373,-0.33627781120982125,533.3296214753543,527.1389855514165,414.98140808927826,walk
28.447412353923205,0.020503704399062572,0.6539963180872148,10.458391355367182,0.43781171102508265,0.7935384252802834,-0.02155647358839855,422.9348733331219,474.54907984549425,575.195978330268,walk
28.497495826377296,0.40804213133245626,0.20307675384093518,10.452554119113268,1.7289620607737737,-0.28511013613172037,-0.5430212436887545,472.41167166241877,526.1044201162028,512.9404405114349,walk
28.547579298831387,0.33618548798010806,0.4223455199705998,10.153045564932787,-1.1903665686152145,0.8454127907084839,1.235426076036534,540.5100142946636,488.37978379746255,482.4469526449005,walk
28.597662771285478,0.4347329670868984,0.33587797101491057,10.189231899900875,-0.14580232886850597,-0.11067510620386456,0.8111296547770369,558.9189442547113,487.93167360183145,558.5744055164434,walk
28.647746243739565,0.6414179793578495,0.2964415042091222,9.612948116089571,-0.497433496915625,-1.566815619808602,-0.5773910738412046,496.0855890314722,501.8101668929889,485.99654791401747,walk
28.697829716193656,0.38089385906915163,0.06863959932538403,9.454248817827882,0.6516239912479813,0.13693680949565576,0.3475842841568953,480.4237158529134,476.8815141891232,492.5285050555574,walk
28.747913188647747,-0.21273574821094493,-0.0023248613191645395,9.229058162724158,-0.49894594970359013,0.26004919224579615,-1.1750256518007482,475.8763138828397,527.0471924993676,496.11871605018615,walk
28.797996661101838,-0.3658501754878518,-0.20298196506370997,9.020413881657936,0.5831040969479315,-0.0013637088968063101,0.6515744074849666,468.4436056209575,573.4744938972559,447.9879026995409,walk
28.84808013355593,-0.5184869150989051,-0.6540120175826496,8.872577467704785,-1.3703459873737731,-0.08498147860091994,-0.030541686929046446,581.444542268213,494.35700012009073,558.9779381356026,walk
28.898163606010016,-0.5284517436115628,-0.1977439229646335,9.054406885720896,1.9148732587312869,-0.1895868481199304,1.53027857336223,425.34201969786943,460.97829417563906,457.56791014703697,walk
28.948247078464107,-0.4756634841407919,-0.41584587361663883,9.083773004104861,1.6602876923693317,-0.48697183411501666,0.72424278579583,502.38172856157627,456.32136126829465,489.6523334934564,walk
28.998330550918197,-0.4209108733365303,-0.47238527702948435,9.24934381811748,-0.9720297389174117,-1.2306375889818166,-0.4042039872394779,485.885165825392,499.9484697112,525.3830709395207,walk
29.04841402337229,-0.43046071811458075,-0.05118993208126893,9.770250399667379,0.8195104754368029,0.14812174015110421,0.09326137526646744,489.893000785999,482.1621251592014,512.9186262834334,walk
29.09849749582638,-0.6336214843020904,-0.12252211216856929,9.46968175333516,-0.002211675855285165,0.6682419094725903,0.8850939244599861,495.53896838556886,450.4030021305374,499.01936837417094,walk
29.148580968280466,-0.16890698315386432,0.06437719935755457,10.092320031988324,-0.702613874249733,0.5181124796260971,-0.7421540305012255,538.4897741436199,483.53213016759605,443.1025934192803,walk
29.198664440734557,0.45838303523117435,0.3594169901826474,10.688126598536607,-1.2586545849470738,0.11786371661967612,1.393601260259702,524.7707495696701,541.2217401476214,451.88536963531845,walk
29.248747913188648,0.17417716178747283,0.6272699631942058,10.67097581241036,0.057592020101329126,0.23224902115437918,0.8423796666037562,503.0739121535683,491.0258193556291,448.70903085705316,walk
29.29883138564274,0.3220683206941735,0.3083548624986461,10.667261578005782,0.8363340734166285,-0.9069968642458323,-0.8230835369476702,495.48221316682054,453.59505527196814,520.5206711209016,walk
29.34891485809683,0.23155475805772419,0.31289455911562514,10.53100620699684,-0.4173911598661335,0.4877688103999077,0.7867602251272313,506.7242547666289,545.4053431612772,502.3211973492484,walk
29.398998330550917,0.7990535298805843,0.25997173152425684,10.173954665630724,0.36898792646024525,-0.9276009464674119,0.07191180002976269,543.4232513940283,555.270663572353,527.7252709132516,walk
29.449081803005008,0.43111419089294806,0.3010533360076751,10.242029644599382,-0.30138000081112526,0.8099980002568788,-0.4371061440623566,498.64968591830274,520.4332572248039,515.487233372975,walk
29.4991652754591,0.4940964700737169,-0.1173259479835777,9.59764922358699,0.33318243516023754,0.33641109638518896,1.3012187152374148,501.5190795180844,491.28231625063853,499.93211056949394,walk
29.54924874791319,0.04706194428382153,-0.5431485574208907,9.288964235430349,-0.6397716282505144,-0.005633864073820781,0.938144651466577,494.98094118507515,483.36802849238813,512.0704599525993,walk
29.59933222036728,0.015371592339058285,-0.21426195430432554,9.012473380375983,0.5623834392141522,0.2544346629844711,-0.15005614933267025,496.4857052577671,487.83448801756504,543.8182153721442,walk
29.64941569282137,-0.2169725461087909,-0.2209734208455234,8.8999707315895,-0.24342756598977258,-0.12679121061248105,-0.14743123217755752,501.0212050549384,565.0103489394905,484.84250664948183,walk
29.69949916527546,-0.619496886559029,-0.6450606345312846,9.044627316312853,-0.10696500557058154,-0.9497325263176917,-1.0359201198613865,467.3581723809513,472.4518150950256,561.9934661980292,walk
29.74958263772955,-0.49308131199071964,-0.5118788941149048,9.082472217959968,-0.39324911789721795,-0.5937338936117514,-0.012494508062702166,559.270014515732,575.59983076255,513.4662683489602,walk
29.79966611018364,-0.529602548254911,-0.3064765256536059,9.440688983905634,-0.2649459471568526,-0.169081289373664,-0.6225288794519911,519.2610967977141,497.4119841820154,507.09300770496014,walk
29.84974958263773,-0.4391308157285365,-0.06658656206023422,9.701822111755504,-1.3152734833563564,-1.6574038708101322,0.6622199870823637,472.76781981072435,474.2676987334564,548.8386879160854,walk
29.899833055091822,-0.12090924393983526,-0.23968266796998278,9.535432679615623,0.36557924771511724,0.09397938552627302,0.36696195181606944,518.186032618413,430.51599868427985,461.539819449229,walk
29.94991652754591,-0.262081287103177,0.07295099635675394,10.195814550798316,0.0749440858778188,0.008911454397275868,-0.16596177383411903,508.08650425601866,517.9613393032744,543.0299972044772,walk
30.0,-0.2137728845878612,-0.058761011371364524,10.350354227454758,1.1524215941166174,-0.6229306951595055,0.3982504174330997,461.353412266672,485.6751758380738,504.02778903030026,walk
