ax,ay,az,gx,gy,gz,mx,my,mz
-0.05273438,0.5756836,-0.7900391,1.480916,15.1145,4.061069,19.32,-150.88,11.04
-0.07519531,0.592041,-0.8349609,1.152672,9.167939,2.19084,17.48,-150.88,11.96
0.08911133,0.6230469,-0.7587891,22.8855,-18.67175,9.297709,18.4,-150.88,14.72
0.03417969,0.7387695,-0.7851563,11.51145,12.75572,-10.47328,18.4,-150.88,14.72
-0.05859375,0.65625,-0.722168,-25.60305,13.57252,-14.23664,17.48,-151.8,13.8
0.04980469,0.4755859,-0.854248,-15.35114,12.05344,-29.64886,17.48,-151.8,13.8
0.1132813,0.5739746,-0.8913574,-1.526718,60.0,-30.79389,17.48,-151.8,13.8
-0.08959961,0.6564941,-0.9309082,-24.22901,91.51908,-42.59542,20.24,-150.88,11.04
-0.3413086,0.5939941,-0.8322754,-37.47328,36.91603,-48.32824,20.24,-150.88,11.04
-0.2739258,0.4863281,-0.8266602,-32.23664,-1.51145,-65.99236,20.24,-150.88,11.04
0.04614258,0.4694824,-0.824707,-2.59542,-2.572519,-45.84733,21.16,-151.8,9.2
0.1259766,0.5712891,-0.7119141,13.22137,37.64885,-37.03053,21.16,-151.8,9.2
-0.01147461,0.7163086,-0.7253418,2.244275,52.08397,-30.08397,23.92,-151.8,3.68
-0.06811523,0.6818848,-0.7719727,-13.38931,50.65649,-52.84733,23.92,-151.8,3.68
-0.001464844,0.7121582,-0.8425293,-29.24427,55.74809,-58.86259,23.92,-151.8,3.68
-0.03955078,0.5441895,-0.8383789,-25.89313,62.35115,-48.0,23.92,-152.72,-1.84
-0.1176758,0.5541992,-0.854248,-15.00763,63.20611,-49.41985,23.92,-152.72,-1.84
-0.1279297,0.5895996,-0.8234863,-11.38168,55.45038,-40.79389,23.92,-152.72,-1.84
-0.1696777,0.6188965,-0.723877,-13.65649,36.60305,-25.35878,23.0,-153.64,-6.44
-0.08422852,0.6118164,-0.7751465,-18.09924,33.48855,-36.53435,23.0,-153.64,-6.44
-0.03759766,0.4880371,-0.7434082,-12.25954,22.0687,-34.66412,23.0,-154.56,-10.12
0.1130371,0.5205078,-0.7231445,16.44275,30.24427,-37.28244,23.0,-154.56,-10.12
0.09985352,0.7331543,-0.8725586,0.7480916,78.41985,-51.48855,23.0,-154.56,-10.12
-0.1462402,0.7145996,-0.8515625,-8.290076,86.60305,-65.94656,21.16,-154.56,-18.4
-0.2783203,0.5739746,-0.7810059,-1.618321,43.53435,-80.39695,21.16,-154.56,-18.4
0.004150391,0.6569824,-0.6210938,17.05343,7.732824,-71.00764,21.16,-154.56,-18.4
0.2683105,0.6791992,-0.7233887,-20.06107,39.59542,-35.1145,22.08,-155.48,-29.44
0.08911133,0.6203613,-0.8183594,-23.8855,89.44275,-50.55725,22.08,-155.48,-29.44
-0.1555176,0.4824219,-0.7473145,6.862596,83.40458,-47.70229,17.48,-155.48,-34.04
-0.1584473,0.7453613,-0.8737793,16.13741,61.22137,-62.32061,17.48,-155.48,-34.04
-0.1833496,0.7626953,-0.8044434,-5.534351,35.27481,-50.38931,17.48,-155.48,-34.04
-0.1772461,0.657959,-0.8251953,-39.51908,4.89313,-45.8168,14.72,-155.48,-42.32
0.1450195,0.3708496,-0.5095215,-4.053435,-23.53435,-21.00763,14.72,-155.48,-42.32
0.4499512,0.612793,-0.8041992,1.709924,53.85496,-19.92366,14.72,-155.48,-42.32
0.1115723,0.6611328,-0.8342285,-2.534351,133.7176,-40.19084,16.56,-154.56,-46.92
-0.1469727,0.3601074,-0.673584,-9.557252,73.41985,-26.46565,16.56,-154.56,-46.92
-0.2416992,0.7124023,-1.052734,76.50381,79.87023,-53.00763,7.36,-154.56,-53.36
-0.07592773,0.8410645,-0.5922852,48.79389,-1.717557,-27.66412,7.36,-154.56,-53.36
0.1730957,0.8188477,-0.645752,-46.1832,35.71756,-131.4275,7.36,-154.56,-53.36
0.3605957,0.7402344,-0.7565918,-41.03053,98.64886,-50.30534,-0.92,-153.64,-61.64
0.03613281,0.388916,-0.7099609,-35.64122,120.7939,-32.83969,-0.92,-153.64,-61.64
-0.1049805,0.5424805,-0.9707031,3.465649,103.5115,-44.70229,-0.92,-153.64,-61.64
-0.192627,0.5085449,-0.9003906,-0.6335878,61.0687,-43.92366,-11.96,-153.64,-60.72
0.07177734,0.3762207,-0.7331543,42.94656,-0.1374046,-41.27481,-11.96,-153.64,-60.72
0.2446289,0.4868164,-0.9169922,68.13741,47.69466,-11.52672,-11.96,-153.64,-60.72
0.08398438,0.833252,-0.7907715,15.64122,77.52672,-35.38931,-18.4,-150.88,-69.92
-0.1025391,0.7050781,-0.8579102,13.0,44.13741,-19.01527,-18.4,-150.88,-69.92
-0.03173828,0.5688477,-0.7072754,-5.290076,7.274809,-29.94657,-25.76,-149.04,-72.68
0.2319336,0.5678711,-0.7766113,3.923664,10.28244,-36.32061,-25.76,-149.04,-72.68
0.260498,0.6010742,-0.8305664,14.83969,48.06107,-35.06107,-25.76,-149.04,-72.68
0.1079102,0.5803223,-0.8029785,-11.43511,59.49618,-26.41985,-27.6,-148.12,-77.28
-0.02294922,0.5327148,-0.8703613,39.49618,15.83969,-12.80916,-33.12,-146.28,-77.28
0.05517578,0.6074219,-0.7558594,49.57252,2.198473,-20.0916,-33.12,-146.28,-77.28
0.09716797,0.7900391,-0.8742676,26.38931,18.77863,-15.28244,-33.12,-146.28,-77.28
0.01171875,0.576416,-0.7902832,-11.89313,-1.78626,-18.92366,-35.88,-143.52,-85.56001
0.1252441,0.3659668,-0.8061523,18.15267,3.580153,-18.9542,-35.88,-143.52,-85.56001
0.1308594,0.4152832,-0.7858887,40.22137,13.98473,-15.90076,-34.04,-142.6,-88.32
0.1582031,0.5058594,-0.8374023,53.0229,18.63359,-20.81679,-34.04,-142.6,-88.32
0.08447266,0.6286621,-0.8029785,52.38168,28.72519,-6.725191,-34.04,-142.6,-88.32
0.08691406,0.8508301,-0.8569336,53.05344,8.557252,-6.175572,-36.8,-138.92,-94.76
-0.0769043,0.8210449,-0.8039551,-41.78626,7.572519,-10.1374,-36.8,-138.92,-94.76
0.04052734,0.5622559,-0.8652344,-81.1832,-45.85496,-14.46565,-36.8,-138.92,-94.76
0.3376465,0.2866211,-0.9489746,-23.64122,-19.85496,-24.87786,-35.88,-140.76,-92.92
0.1850586,0.3295898,-0.8881836,31.25191,33.85496,-2.671756,-35.88,-140.76,-92.92
-0.01269531,0.4770508,-0.8908691,37.80153,19.9771,-5.312977,-34.04,-140.76,-93.84
-0.01074219,0.5390625,-0.7905273,49.30534,-6.656488,-8.572519,-34.04,-140.76,-93.84
0.08081055,0.6953125,-0.8286133,20.9542,-13.65649,-12.45802,-34.04,-140.76,-93.84
0.2492676,0.5554199,-0.7287598,-29.29771,4.312977,7.251908,-34.96,-138.0,-99.36
0.2336426,0.3439941,-0.7419434,-12.28244,47.38168,13.50382,-34.96,-138.0,-99.36
-0.01782227,0.4746094,-0.8601074,40.29771,60.74046,1.603053,-34.96,-138.0,-99.36
-0.09008789,0.5969238,-0.767334,24.10687,6.290076,5.923664,-38.64,-138.0,-96.6
0.1896973,0.5671387,-0.9003906,-16.70229,-14.93893,-1.442748,-38.64,-138.0,-96.6
0.3005371,0.3642578,-0.9211426,-0.7328244,25.98473,-1.053435,-39.56,-138.0,-98.44
0.1989746,0.3725586,-0.8632813,38.73283,46.59542,6.832061,-39.56,-138.0,-98.44
-0.02905273,0.6384277,-0.9348145,31.12977,47.77863,14.03053,-39.56,-138.0,-98.44
0.08203125,0.6633301,-0.717041,14.87786,-4.694656,9.664123,-45.08,-136.16,-99.36
0.2263184,0.5554199,-0.8745117,-12.67939,28.20611,-17.16794,-45.08,-136.16,-99.36
0.07861328,0.4814453,-0.8295898,4.129771,25.51145,-8.717557,-45.08,-136.16,-99.36
0.03027344,0.4785156,-0.9130859,6.580153,5.221374,-3.824427,-47.84,-134.32,-100.28
0.09619141,0.4978027,-0.838623,23.64886,-12.48092,-14.19084,-47.84,-134.32,-100.28
0.2429199,0.5283203,-0.8312988,6.183206,-12.09924,-8.129771,-46.92,-133.4,-103.04
0.2578125,0.4560547,-0.876709,1.419847,13.92366,-2.717557,-46.92,-133.4,-103.04
0.1132813,0.4609375,-0.8078613,29.86259,29.41221,-1.984733,-46.92,-133.4,-103.04
0.01269531,0.6711426,-0.8276367,20.10687,10.80153,-3.687023,-47.84,-132.48,-103.96
0.1291504,0.59375,-0.8188477,-19.90076,-12.8855,-24.80916,-47.84,-132.48,-103.96
0.269043,0.2963867,-0.833252,-23.03817,-1.290076,-20.68702,-47.84,-132.48,-103.96
0.2578125,0.3691406,-0.9204102,14.32824,41.66412,-17.39695,-47.84,-132.48,-104.88
0.1047363,0.3928223,-0.8098145,45.78626,37.9771,-16.53435,-47.84,-132.48,-104.88
0.07788086,0.4211426,-0.9177246,35.43512,42.35878,-61.53435,-51.52,-129.72,-108.56
0.0002441406,0.4772949,-0.9482422,49.70992,12.90076,-28.52672,-51.52,-129.72,-108.56
0.1452637,0.6240234,-0.8237305,26.50382,-10.57252,-2.091603,-51.52,-129.72,-108.56
0.3991699,0.5710449,-0.7866211,-16.9771,-8.320611,-10.49618,-53.36,-126.04,-114.08
0.3347168,0.357666,-0.9689941,-10.60305,49.45038,-12.79389,-53.36,-126.04,-114.08
0.03857422,0.3432617,-0.9416504,19.76336,54.61832,-18.0,-53.36,-126.04,-114.08
-0.007324219,0.4538574,-0.9277344,21.58779,14.0,-10.12214,-55.2,-126.04,-113.16
0.1279297,0.458252,-0.8681641,26.71756,-12.39695,-2.068702,-55.2,-126.04,-113.16
0.2888184,0.4638672,-0.8449707,2.091603,-13.29771,0.4351145,-55.2,-126.04,-113.16
0.3686523,0.4511719,-0.9943848,-7.679389,37.47328,-18.03817,-57.04,-122.36,-115.92
0.06079102,0.3564453,-0.8395996,18.38168,53.56488,-9.916031,-57.04,-122.36,-115.92
-0.1052246,0.5,-0.8833008,12.52672,12.78626,2.610687,-59.8,-121.44,-115.92
0.1525879,0.4697266,-0.8703613,-7.832061,-34.99237,-18.45038,-59.8,-121.44,-115.92
0.394043,0.2646484,-0.8312988,-21.44275,-5.312977,-3.70229,-59.8,-121.44,-115.92
0.07226563,0.5307617,-0.8708496,12.25191,-2.007634,13.54198,-57.96,-122.36,-115.92
0.2905273,0.5205078,-0.8068848,-14.00763,-23.26718,14.96183,-60.72,-120.52,-116.84
0.4453125,0.3994141,-0.909668,-14.29008,33.36641,7.435114,-60.72,-120.52,-116.84
0.104248,0.3725586,-0.8679199,-0.778626,65.12214,1.122137,-60.72,-120.52,-116.84
-0.03979492,0.4108887,-0.8483887,10.42748,3.450382,17.94657,-62.56,-120.52,-115.0
0.2590332,0.4614258,-0.8945313,-1.580153,-14.28244,-0.03053435,-62.56,-120.52,-115.0
0.3903809,0.3444824,-0.8327637,13.14504,17.9084,0.3587786,-64.4,-120.52,-115.0
0.2331543,0.4829102,-0.8840332,23.00763,55.72519,-1.175573,-64.4,-120.52,-115.0
0.007080078,0.5964355,-0.8623047,-9.572519,21.10687,-8.145039,-64.4,-120.52,-115.0
0.2160645,0.3835449,-0.9123535,-37.64885,-2.259542,-3.931298,-69.0,-118.68,-115.0
0.3149414,0.2924805,-0.8781738,15.72519,22.9084,-3.839695,-69.0,-118.68,-115.0
0.1445313,0.5029297,-0.8850098,28.07634,31.12214,-3.717557,-69.0,-118.68,-115.0
0.1206055,0.5300293,-0.8188477,-13.69466,-10.45802,-3.572519,-69.92,-118.68,-114.08
0.373291,0.373291,-0.932373,-28.54198,-7.167939,1.389313,-69.92,-118.68,-114.08
0.3066406,0.2446289,-0.9274902,4.335878,27.67939,8.534351,-69.92,-119.6,-113.16
0.1289063,0.3967285,-0.895752,31.05343,17.27481,7.374046,-69.92,-119.6,-113.16
0.1674805,0.5961914,-0.9042969,12.34351,-7.137404,4.839694,-69.92,-119.6,-113.16
0.3400879,0.520752,-0.8928223,-30.72519,-12.69466,1.312977,-71.76,-117.76,-115.0
0.295166,0.2976074,-0.9211426,-23.42748,11.98473,5.442748,-71.76,-117.76,-115.0
0.2526855,0.3449707,-0.8947754,-9.78626,3.625954,4.679389,-71.76,-117.76,-115.0
0.2705078,0.3234863,-0.8847656,13.74809,11.0687,-0.8244275,-70.84,-120.52,-112.24
0.2390137,0.4777832,-0.8178711,32.41221,2.290076,-1.412214,-70.84,-120.52,-112.24
0.291748,0.515625,-0.7648926,1.389313,-8.099236,8.412213,-71.76,-119.6,-114.08
0.3989258,0.4321289,-0.7575684,-6.366412,3.870229,8.236641,-71.76,-119.6,-114.08
0.3569336,0.4172363,-0.878418,-6.419847,32.28244,-3.221374,-71.76,-119.6,-114.08
0.2109375,0.3835449,-0.90625,15.28244,32.48092,-9.511451,-72.68,-118.68,-113.16
0.1865234,0.4633789,-0.9016113,13.56489,7.29771,-5.183206,-72.68,-118.68,-113.16
0.2753906,0.4599609,-0.8845215,-8.335877,-1.824428,-4.633588,-72.68,-118.68,-113.16
0.2883301,0.3630371,-0.8840332,-20.98473,-0.2900764,4.633588,-74.52,-117.76,-113.16
0.3195801,0.265625,-0.885498,-5.122138,1.51145,12.54962,-74.52,-117.76,-113.16
0.3005371,0.3095703,-0.9067383,15.77863,14.51908,8.625955,-72.68,-119.6,-112.24
0.2436523,0.3840332,-0.8510742,23.55725,12.91603,0.5572519,-72.68,-119.6,-112.24
0.2470703,0.4594727,-0.848877,16.82443,4.961832,9.610687,-72.68,-119.6,-112.24
0.2751465,0.479248,-0.833252,9.282443,-4.38168,6.015267,-73.6,-118.68,-114.08
0.3278809,0.5124512,-0.8540039,-3.221374,0.6335878,7.045802,-73.6,-118.68,-114.08
0.3210449,0.4377441,-0.8835449,-12.79389,9.21374,2.038168,-73.6,-118.68,-114.08
0.2822266,0.3713379,-0.8366699,2.030534,8.083969,-0.4351145,-73.6,-118.68,-114.08
0.326416,0.4182129,-0.8642578,5.022901,1.694656,2.091603,-73.6,-118.68,-114.08
0.3405762,0.4367676,-0.8518066,-8.709924,8.106871,9.412213,-74.52,-118.68,-113.16
0.3098145,0.3852539,-0.9301758,-17.32825,18.33588,3.59542,-74.52,-118.68,-113.16
0.2124023,0.3110352,-0.9360352,-7.854962,17.57252,1.396947,-74.52,-118.68,-113.16
0.1850586,0.2849121,-0.878418,5.007634,3.030534,7.351145,-75.44,-119.6,-111.32
0.2990723,0.3278809,-0.8146973,23.48092,-11.41985,7.832061,-75.44,-119.6,-111.32
0.3842773,0.4436035,-0.7907715,16.12977,1.847328,14.37405,-75.44,-119.6,-111.32
0.3515625,0.4038086,-0.7648926,8.679389,16.45802,12.12977,-75.44,-118.68,-113.16
0.251709,0.4882813,-0.8361816,-8.633588,16.40458,4.793893,-75.44,-118.68,-113.16
0.3520508,0.3513184,-0.8181152,-18.51145,-2.641221,6.198473,-76.36,-118.68,-112.24
0.4458008,0.2971191,-0.9511719,13.50382,22.51908,7.465649,-76.36,-118.68,-112.24
0.2575684,0.3745117,-0.8835449,33.96947,38.96183,5.29771,-76.36,-118.68,-112.24
0.1662598,0.5515137,-0.8886719,20.27481,4.564886,11.25954,-78.2,-116.84,-113.16
0.4558105,0.409668,-0.8876953,-0.5419847,27.18321,-1.824428,-78.2,-116.84,-113.16
0.2746582,0.3918457,-0.8500977,8.0,40.07634,2.923664,-78.2,-116.84,-113.16
0.2011719,0.3505859,-0.7641602,8.793893,10.64886,10.96183,-78.2,-116.84,-113.16
0.364502,0.4150391,-0.8447266,25.74809,2.839695,10.12214,-80.04,-115.92,-114.08
0.4187012,0.5085449,-0.7607422,20.41221,13.96947,1.396947,-80.04,-115.92,-114.08
0.4550781,0.5095215,-0.857666,-34.8855,15.56489,-1.603053,-80.04,-115.92,-114.08
0.4335938,0.2290039,-1.025391,-57.16031,33.58015,8.129771,-83.72,-113.16,-114.08
0.2592773,0.15625,-0.9680176,0.2748091,28.33588,22.22137,-83.72,-113.16,-114.08
0.08984375,0.2819824,-1.036865,-0.09923664,2.465649,27.54198,-82.8,-117.76,-110.4
0.1621094,0.2145996,-0.9226074,14.8626,-58.30534,35.28244,-82.8,-117.76,-110.4
0.4648438,0.1447754,-0.8369141,11.83206,-58.00763,47.08397,-82.8,-117.76,-110.4
0.6166992,0.4528809,-0.8571777,82.80153,-17.41221,24.27481,-77.28,-118.68,-113.16
0.583252,0.8557129,-0.9956055,34.85496,39.70229,44.51908,-77.28,-118.68,-113.16
0.1149902,0.411377,-0.842041,-59.38931,-12.45802,33.80916,-77.28,-118.68,-113.16
0.479248,0.1428223,-0.8027344,-12.93893,-32.78626,22.61069,-78.2,-116.84,-115.0
0.5444336,0.3137207,-0.901123,44.76336,18.63359,9.778625,-78.2,-116.84,-115.0
0.3173828,0.4367676,-0.8395996,14.78626,24.27481,2.519084,-78.2,-117.76,-115.0
0.3520508,0.447998,-0.7932129,2.984733,11.28244,-3.78626,-78.2,-117.76,-115.0
0.4221191,0.4685059,-0.7644043,14.87786,9.534351,-11.59542,-78.2,-117.76,-115.0
0.4462891,0.5373535,-0.9091797,-22.25191,26.43511,-9.557252,-80.04,-115.0,-115.0
0.3105469,0.348877,-0.8920898,-48.71756,19.39695,-6.0,-80.04,-115.0,-115.0
0.3449707,0.1530762,-0.894043,-25.29771,8.832061,-22.35114,-80.04,-115.0,-115.0
0.4956055,0.1547852,-0.796875,48.05344,-13.63359,-16.35878,-80.96,-117.76,-111.32
0.625,0.5168457,-0.9438477,52.29771,27.75573,-15.35114,-80.96,-117.76,-111.32
0.3364258,0.6025391,-0.9177246,-14.58015,62.83969,-2.541985,-84.64,-113.16,-114.08
0.1411133,0.5048828,-0.9067383,-44.82443,6.290076,-17.83206,-84.64,-113.16,-114.08
0.3498535,0.1513672,-0.8376465,-52.80153,-28.37405,-16.48092,-84.64,-113.16,-114.08
0.503418,-0.006591797,-0.8967285,-14.62595,5.152672,-3.793893,-82.8,-118.68,-109.48
0.3806152,0.001220703,-0.7558594,66.91603,35.20611,-1.389313,-82.8,-118.68,-109.48
0.2390137,0.4438477,-0.9375,74.21374,30.84733,1.59542,-82.8,-118.68,-109.48
0.2480469,0.564209,-0.8110352,-4.389313,8.625955,4.29771,-86.48,-112.24,-113.16
0.3769531,0.3962402,-0.9516602,-61.75573,7.732824,13.67176,-86.48,-112.24,-113.16
0.3505859,0.03393555,-0.9921875,-15.55725,18.50382,7.931298,-85.56001,-115.92,-111.32
0.2321777,0.1035156,-0.935791,33.63359,12.01527,23.0916,-85.56001,-115.92,-111.32
0.2878418,0.2927246,-0.8500977,72.61832,-29.53435,25.61069,-85.56001,-115.92,-111.32
0.4958496,0.5546875,-0.8256836,50.79389,-25.14504,25.90076,-86.48,-112.24,-115.0
0.5432129,0.6330566,-0.9016113,-7.419847,25.69466,-11.36641,-86.48,-112.24,-115.0
0.3256836,0.4746094,-0.8935547,-52.57252,10.9313,11.67176,-86.48,-112.24,-115.0
0.3791504,0.208252,-0.8256836,-25.68702,-13.91603,9.931297,-85.56001,-111.32,-115.92
0.5163574,0.2155762,-0.8601074,6.89313,-5.984733,8.687023,-85.56001,-111.32,-115.92
0.472168,0.3725586,-0.9008789,18.81679,18.45802,3.480916,-85.56001,-114.08,-115.0
0.3303223,0.3225098,-0.7595215,-1.778626,6.51145,10.45038,-85.56001,-114.08,-115.0
0.4389648,0.3110352,-0.751709,12.58779,-19.41985,10.32824,-85.56001,-114.08,-115.0
0.6323242,0.4460449,-0.8811035,3.908397,6.793893,-4.358778,-84.64,-114.08,-115.92
0.4240723,0.3625488,-0.8737793,-10.68702,41.41985,-7.679389,-84.64,-114.08,-115.92
0.2382813,0.3181152,-0.7856445,5.526718,10.52672,-13.57252,-84.64,-114.08,-115.92
0.4316406,0.3830566,-0.8161621,-2.648855,-28.66412,-5.862596,-85.56001,-113.16,-115.0
0.6162109,0.3129883,-0.8737793,-9.977099,9.748092,-11.63359,-85.56001,-113.16,-115.0
0.4555664,0.2895508,-0.873291,5.21374,46.34351,-19.34351,-86.48,-113.16,-115.0
0.236084,0.2907715,-0.828125,4.08397,23.37405,-19.63359,-86.48,-113.16,-115.0
0.4562988,0.2121582,-0.8808594,11.47328,11.96183,-3.931298,-88.32,-113.16,-114.08
0.388916,0.2473145,-0.8479004,19.83206,18.51908,3.610687,-88.32,-113.16,-114.08
0.3322754,0.3522949,-0.890625,19.34351,12.54198,10.72519,-88.32,-111.32,-115.0
0.3676758,0.3569336,-0.8986816,7.328244,-3.916031,10.64886,-88.32,-111.32,-115.0
0.402832,0.3913574,-0.8920898,6.366412,8.717557,1.305344,-88.32,-111.32,-115.0
0.4050293,0.3588867,-0.8249512,-8.145039,6.221374,0.2977099,-89.24,-110.4,-115.0
0.427002,0.277832,-0.8190918,-4.450382,-1.374046,9.610687,-89.24,-110.4,-115.0
0.4353027,0.3833008,-0.9438477,6.358778,9.083969,10.90076,-88.32,-111.32,-115.0
0.345459,0.3566895,-0.8640137,-6.114504,8.549619,11.66412,-88.32,-111.32,-115.0
0.3322754,0.3330078,-0.8933105,-22.0,-6.870229,5.419847,-88.32,-111.32,-115.0
0.4475098,0.1757813,-0.8186035,7.534351,-15.87786,7.0,-87.4,-113.16,-114.08
0.4816895,0.3039551,-0.8242188,25.73282,3.305344,6.122138,-87.4,-113.16,-114.08
0.3862305,0.4631348,-0.875,-0.3969466,8.977099,8.129771,-87.4,-113.16,-114.08
0.3171387,0.3183594,-0.8356934,-21.38168,-10.66412,2.129771,-87.4,-112.24,-115.0
0.427002,0.2658691,-0.8271484,12.87786,-14.27481,-6.755725,-87.4,-112.24,-115.0
0.4711914,0.3859863,-0.8022461,12.94656,3.076336,-0.8854962,-87.4,-112.24,-115.0
0.4111328,0.3793945,-0.8266602,-1.473282,9.175572,0.8625955,-85.56001,-114.08,-115.0
0.3642578,0.340332,-0.8100586,3.40458,-9.503817,4.389313,-85.56001,-114.08,-115.0
0.4880371,0.4155273,-0.8486328,3.335878,-10.27481,-7.496183,-84.64,-113.16,-115.0
0.4897461,0.4145508,-0.9084473,-25.29771,1.038168,-12.80916,-84.64,-113.16,-115.0
0.4631348,0.3039551,-0.8991699,-17.45802,18.67939,-14.75572,-84.64,-113.16,-115.0
0.3557129,0.2695313,-0.7849121,3.160305,15.81679,-6.274809,-85.56001,-115.0,-113.16
0.3935547,0.3103027,-0.8132324,7.40458,3.839695,-5.389313,-85.56001,-115.0,-113.16
0.4257813,0.3642578,-0.8234863,3.824427,8.198473,-3.954198,-85.56001,-115.0,-113.16
0.4189453,0.3859863,-0.9003906,-6.51145,20.22901,-11.27481,-86.48,-114.08,-113.16
0.3352051,0.2866211,-0.9020996,-22.19084,19.91603,-6.167939,-86.48,-114.08,-113.16
0.3115234,0.2116699,-0.8779297,-2.122137,0.4122138,-0.7251908,-87.4,-115.0,-111.32
0.3708496,0.2797852,-0.8395996,16.09924,-8.954199,10.69466,-87.4,-115.0,-111.32
0.4418945,0.40625,-0.885498,6.587786,-0.9236641,6.38168,-87.4,-115.0,-111.32
0.3747559,0.3164063,-0.8391113,-7.267176,9.396947,-0.870229,-86.48,-115.0,-112.24
0.3171387,0.3432617,-0.8322754,11.28244,-2.969466,11.18321,-86.48,-115.0,-112.24
0.418457,0.3947754,-0.8435059,0.3664122,-10.84733,8.40458,-86.48,-115.0,-112.24
0.4685059,0.3320313,-0.8510742,-17.05343,1.442748,16.74046,-86.48,-115.0,-112.24
0.3815918,0.2590332,-0.8994141,0.9465649,15.1374,-0.4045802,-86.48,-115.0,-112.24
0.3356934,0.298584,-0.8647461,24.63359,3.167939,3.732824,-85.56001,-115.92,-112.24
0.388916,0.4499512,-0.8391113,28.76336,-9.129771,4.717557,-85.56001,-115.92,-112.24
0.4658203,0.5422363,-0.8615723,-0.0610687,-8.091603,0.6717557,-85.56001,-115.92,-112.24
0.4453125,0.4035645,-0.8242188,-26.96183,7.122138,-7.167939,-85.56001,-114.08,-113.16
0.411377,0.2592773,-0.7766113,-5.610687,9.80916,-6.19084,-85.56001,-114.08,-113.16
0.4040527,0.3088379,-0.8632813,-2.045802,11.67176,-1.80916,-85.56001,-114.08,-113.16
0.3354492,0.3220215,-0.8796387,-10.42748,11.16794,3.725191,-84.64,-116.84,-112.24
0.3400879,0.2402344,-0.8503418,-11.54962,0.3587786,9.465649,-84.64,-116.84,-112.24
0.4077148,0.2695313,-0.8571777,24.25954,-2.473282,8.129771,-85.56001,-116.84,-111.32
0.4414063,0.4470215,-0.840332,35.05344,10.38931,-1.51145,-85.56001,-116.84,-111.32
0.3537598,0.496582,-0.8618164,-19.41985,9.916031,-2.351145,-85.56001,-116.84,-111.32
0.3747559,0.3156738,-0.8430176,-33.46565,-7.152672,1.274809,-85.56001,-115.0,-112.24
0.4313965,0.1550293,-0.8666992,-6.625954,-0.4503817,1.40458,-85.56001,-115.0,-112.24
0.3837891,0.2458496,-0.8769531,22.46565,10.79389,12.33588,-85.56001,-115.0,-112.24
0.3527832,0.3422852,-0.8310547,19.36641,-3.946565,13.87023,-84.64,-117.76,-110.4
0.4265137,0.3632813,-0.8388672,26.9084,-1.328244,10.83969,-84.64,-117.76,-110.4
0.467041,0.4377441,-0.8188477,-45.40458,-1.312977,-8.305344,-84.64,-115.0,-113.16
0.4924316,0.1923828,-0.9160156,-38.61069,23.32825,-5.229008,-85.56001,-115.92,-112.24
0.3256836,0.1484375,-0.9279785,3.709924,31.62595,-5.885496,-85.56001,-115.92,-112.24
0.260498,0.2729492,-0.8466797,26.16031,-0.6564885,8.526717,-85.56001,-115.92,-112.24
0.3959961,0.3520508,-0.8374023,19.35114,-15.9771,10.0687,-85.56001,-115.92,-110.4
0.4626465,0.3967285,-0.8334961,21.0229,0.6946565,6.732824,-85.56001,-115.92,-110.4
0.4135742,0.5239258,-0.810791,11.90076,9.297709,-1.854962,-85.56001,-114.08,-113.16
0.3945313,0.4387207,-0.8300781,-36.67939,0.3206107,-6.389313,-85.56001,-114.08,-113.16
0.4765625,0.1914063,-0.8752441,-26.70992,-0.4198473,5.877862,-85.56001,-114.08,-113.16
0.4128418,0.1726074,-0.8754883,2.320611,21.38931,7.503817,-84.64,-115.92,-110.4
0.3435059,0.277832,-0.8706055,28.25191,11.9084,6.251908,-84.64,-115.92,-110.4
0.3439941,0.3894043,-0.8815918,16.09924,1.381679,6.396946,-84.64,-115.92,-110.4
0.3608398,0.388916,-0.8498535,4.839694,-3.137405,5.839694,-85.56001,-115.0,-112.24
0.4013672,0.3842773,-0.7919922,6.312977,-10.00763,0.778626,-85.56001,-115.0,-112.24
0.4938965,0.4060059,-0.833252,-0.961832,-3.709924,-6.19084,-84.64,-115.0,-113.16
0.4714355,0.3464355,-0.8391113,-14.34351,13.32061,-5.458015,-84.64,-115.0,-113.16
0.4025879,0.2351074,-0.8706055,-9.610687,16.0,2.458015,-84.64,-115.0,-113.16
0.3603516,0.2041016,-0.8950195,4.870229,10.25954,5.61832,-85.56001,-115.92,-111.32
0.361084,0.2746582,-0.8737793,18.42748,3.480916,11.06107,-85.56001,-115.92,-111.32
0.3898926,0.3974609,-0.8898926,20.0229,0.1068702,8.755725,-85.56001,-115.92,-111.32
0.380127,0.4199219,-0.8029785,15.55725,-4.832061,5.21374,-85.56001,-115.0,-113.16
0.4335938,0.4633789,-0.7890625,-0.3358779,-7.847328,-3.167939,-85.56001,-115.0,-113.16
0.5144043,0.3713379,-0.8198242,-21.05343,1.847328,-8.091603,-85.56001,-115.0,-113.16
0.4538574,0.3017578,-0.8764648,-12.57252,24.19084,-6.59542,-85.56001,-115.0,-113.16
0.3322754,0.2580566,-0.8898926,-11.76336,20.23664,-5.625954,-85.56001,-115.0,-113.16
0.3293457,0.1870117,-0.8513184,0.5801527,-1.320611,4.870229,-85.56001,-115.92,-111.32
0.4189453,0.2800293,-0.8588867,27.56489,-1.496183,8.664123,-85.56001,-115.92,-111.32
0.4121094,0.4445801,-0.8317871,23.08397,6.145038,2.068702,-85.56001,-115.92,-111.32
0.407959,0.4743652,-0.8044434,-0.6259542,0.8396947,-5.687023,-86.48,-114.08,-113.16
0.4433594,0.3884277,-0.8205566,-21.56489,2.572519,-6.038168,-86.48,-114.08,-113.16
0.4631348,0.2600098,-0.8977051,-23.93893,9.610687,-4.51145,-86.48,-114.08,-113.16
0.3771973,0.1716309,-0.8771973,-6.328244,20.87786,1.793893,-86.48,-115.0,-111.32
0.3151855,0.1872559,-0.8618164,11.68702,5.70229,7.320611,-86.48,-115.0,-111.32
0.3754883,0.2949219,-0.8933105,31.03817,-5.954198,7.687023,-86.48,-115.0,-111.32
0.392334,0.4487305,-0.845459,27.48855,-1.442748,3.21374,-86.48,-115.0,-111.32
0.4309082,0.4758301,-0.8049316,4.328244,-2.679389,-1.900763,-86.48,-115.0,-111.32
0.4399414,0.4033203,-0.8259277,-10.44275,0.7633588,-8.053435,-86.48,-113.16,-113.16
0.4663086,0.3242188,-0.8522949,-14.50382,3.0,-9.725191,-86.48,-113.16,-113.16
0.4384766,0.2653809,-0.8840332,-16.09924,14.8855,-1.89313,-86.48,-113.16,-113.16
0.3691406,0.199707,-0.8874512,2.40458,17.29008,0.6946565,-85.56001,-114.08,-112.24
0.3225098,0.262207,-0.8681641,20.08397,6.343512,7.167939,-85.56001,-114.08,-112.24
0.3503418,0.3879395,-0.8447266,20.9084,-10.94656,5.748092,-86.48,-114.08,-112.24
0.453125,0.402832,-0.7878418,4.954198,-11.29008,3.946565,-86.48,-114.08,-112.24
0.4863281,0.3984375,-0.8393555,-1.366412,8.900764,-8.78626,-86.48,-114.08,-112.24
0.4196777,0.3740234,-0.8342285,-10.74046,9.946565,-9.198473,-85.56001,-114.08,-113.16
0.4030762,0.3037109,-0.8918457,-20.96947,9.900764,-5.328244,-85.56001,-114.08,-113.16
0.3813477,0.1606445,-0.8735352,-12.61832,7.015267,3.427481,-85.56001,-114.08,-113.16
0.4226074,0.1904297,-0.8684082,20.57252,2.496183,9.641221,-85.56001,-115.0,-111.32
0.4250488,0.3652344,-0.8754883,31.41221,11.46565,4.480916,-85.56001,-115.0,-111.32
0.3864746,0.4641113,-0.8251953,22.90076,7.694656,2.137405,-85.56001,-113.16,-113.16
0.5141602,0.2680664,-0.8251953,-33.41221,-7.458015,-8.030535,-86.48,-113.16,-113.16
0.5095215,0.1733398,-0.9445801,-20.07634,28.68702,-3.167939,-86.48,-113.16,-113.16
0.265625,0.15625,-0.8886719,16.64886,29.41221,-3.740458,-86.48,-113.16,-113.16
0.2558594,0.3015137,-0.8291016,28.83206,-17.25954,10.77863,-86.48,-115.0,-112.24
0.4797363,0.4150391,-0.8496094,14.09924,-24.10687,13.32061,-86.48,-115.0,-112.24
