ax,ay,az,gx,gy,gz,mx,my,mz
0.4667969,0.3581543,-0.8300781,13.16794,-5.282443,8.061069,-88.32,-111.32,-114.08
0.4645996,0.3547363,-0.8984375,-7.167939,17.78626,3.877863,-88.32,-110.4,-114.08
0.3903809,0.3352051,-0.8666992,-7.755725,-3.122137,0.4961832,-88.32,-110.4,-114.08
0.423584,0.2788086,-0.8691406,-5.770992,1.59542,-0.1145038,-88.32,-111.32,-114.08
0.4165039,0.2631836,-0.8200684,12.19847,-11.92366,8.122137,-88.32,-111.32,-114.08
0.4370117,0.3571777,-0.8508301,24.0687,10.28244,8.633588,-88.32,-111.32,-114.08
0.3823242,0.4145508,-0.8405762,8.312977,9.465649,3.198473,-87.4,-110.4,-115.0
0.3652344,0.4121094,-0.9013672,-10.00763,7.274809,-1.610687,-87.4,-110.4,-115.0
0.3508301,0.3088379,-0.8532715,-16.62595,1.89313,-1.274809,-87.4,-111.32,-114.08
0.4084473,0.2331543,-0.8596191,-8.763359,-5.839694,-0.6870229,-87.4,-111.32,-114.08
0.4599609,0.2624512,-0.8786621,13.35878,4.709924,0.7862596,-87.4,-111.32,-114.08
0.3837891,0.364502,-0.8562012,18.10687,13.03053,-0.8778625,-87.4,-112.24,-114.08
0.3366699,0.3994141,-0.8493652,-2.40458,3.076336,-0.2977099,-87.4,-112.24,-114.08
0.402832,0.3352051,-0.8349609,-6.274809,-8.236641,1.832061,-87.4,-112.24,-114.08
0.4699707,0.3337402,-0.8847656,-2.931298,9.458015,-1.244275,-87.4,-111.32,-114.08
0.3845215,0.3066406,-0.8723145,-7.328244,15.81679,0.1068702,-87.4,-111.32,-114.08
0.3249512,0.2661133,-0.8623047,2.656489,4.656488,5.328244,-87.4,-111.32,-114.08
0.3703613,0.2995605,-0.8303223,15.17557,-7.51145,8.610687,-87.4,-112.24,-114.08
0.4558105,0.4304199,-0.8532715,13.64122,-1.717557,3.572519,-87.4,-112.24,-114.08
0.4416504,0.4038086,-0.8613281,-12.63359,13.75572,-5.877862,-87.4,-111.32,-115.0
0.3547363,0.2646484,-0.8193359,-13.80916,6.198473,-1.801527,-87.4,-111.32,-115.0
0.3833008,0.2888184,-0.8713379,12.60305,-1.137405,1.564886,-87.4,-111.32,-115.0
0.4042969,0.3789063,-0.8615723,12.25191,4.793893,-2.687023,-87.4,-111.32,-114.08
0.3857422,0.3649902,-0.8515625,-7.366412,3.366412,-4.091603,-87.4,-111.32,-114.08
0.401123,0.2585449,-0.8393555,-10.72519,0.7175572,0.5572519,-87.4,-111.32,-114.08
0.4245605,0.2797852,-0.8569336,10.07634,4.832061,2.412214,-87.4,-112.24,-114.08
0.3972168,0.3583984,-0.8669434,7.664122,9.259542,0.06870229,-87.4,-112.24,-114.08
0.3713379,0.3293457,-0.8249512,0.8473283,1.366412,2.244275,-87.4,-111.32,-114.08
0.4267578,0.3342285,-0.8483887,10.22901,-0.09160305,2.442748,-87.4,-111.32,-114.08
0.4431152,0.3952637,-0.8662109,0.1374046,10.54198,-0.5572519,-87.4,-111.32,-114.08
0.3354492,0.3239746,-0.8674316,-19.58015,15.70992,-2.648855,-88.32,-111.32,-114.08
0.3308105,0.197998,-0.8232422,-3.740458,-6.656488,1.022901,-88.32,-111.32,-114.08
0.4897461,0.2648926,-0.847168,25.46565,-10.0687,9.312977,-88.32,-111.32,-114.08
0.5007324,0.456543,-0.8706055,21.80916,21.46565,2.984733,-86.48,-112.24,-114.08
0.2963867,0.4345703,-0.8527832,-18.55725,20.05343,-0.9541985,-86.48,-112.24,-114.08
0.3122559,0.2617188,-0.8725586,-13.76336,-14.00763,3.351145,-87.4,-111.32,-114.08
0.5012207,0.2844238,-0.8837891,7.29771,-6.007634,0.05343511,-87.4,-111.32,-114.08
0.472168,0.3500977,-0.8632813,12.34351,19.9771,-4.099236,-87.4,-111.32,-114.08
0.3220215,0.3574219,-0.848877,-4.435114,12.64886,-0.9083969,-87.4,-111.32,-114.08
0.3381348,0.3000488,-0.8464355,-6.694656,-10.14504,1.618321,-87.4,-111.32,-114.08
0.4675293,0.2944336,-0.8671875,6.175572,-4.664122,-0.1221374,-87.4,-111.32,-114.08
0.4389648,0.3239746,-0.8461914,10.8626,14.51145,0.7709923,-86.48,-111.32,-114.08
0.3364258,0.3535156,-0.8491211,2.992366,9.297709,-0.4656488,-86.48,-111.32,-114.08
0.3730469,0.3535156,-0.8540039,-3.641221,-8.022901,0.6641222,-87.4,-111.32,-115.0
0.4604492,0.2905273,-0.8525391,-4.648855,0.9694656,1.496183,-87.4,-111.32,-115.0
0.3972168,0.2834473,-0.8522949,0.648855,14.94656,-1.839695,-87.4,-111.32,-115.0
0.338623,0.3144531,-0.8520508,11.48855,4.885496,2.534351,-87.4,-112.24,-115.0
0.4104004,0.3476563,-0.8664551,6.137404,-7.08397,6.038168,-87.4,-112.24,-115.0
0.4726563,0.3349609,-0.8615723,-5.38168,1.908397,-0.3053435,-87.4,-112.24,-115.0
0.3955078,0.2961426,-0.8833008,-0.740458,17.70992,-6.19084,-87.4,-111.32,-114.08
0.3132324,0.2912598,-0.8203125,13.26718,4.022901,1.267176,-87.4,-111.32,-114.08
0.4399414,0.3283691,-0.8623047,-5.015267,7.48855,3.129771,-87.4,-110.4,-115.0
0.3798828,0.3168945,-0.8681641,-5.419847,5.519084,4.503817,-87.4,-110.4,-115.0
0.3659668,0.2478027,-0.8457031,-15.27481,-3.358779,10.0687,-87.4,-111.32,-114.08
0.4104004,0.269043,-0.9448242,8.633588,5.854962,1.618321,-87.4,-111.32,-114.08
0.3842773,0.3405762,-0.8535156,27.26718,2.961832,-3.083969,-86.48,-111.32,-115.0
0.3920898,0.411377,-0.8012695,7.877862,-2.870229,3.664122,-86.48,-111.32,-115.0
0.4550781,0.3891602,-0.8605957,-16.74809,0.6259542,-1.938931,-86.48,-111.32,-115.0
0.409668,0.2431641,-0.8688965,-11.96947,13.07634,0.9160305,-85.56001,-111.32,-115.0
0.3500977,0.2697754,-0.8671875,9.778625,11.19847,3.709924,-85.56001,-111.32,-115.0
0.3623047,0.3652344,-0.8747559,9.992367,0.6564885,3.51145,-85.56001,-111.32,-115.0
0.4099121,0.3439941,-0.861084,-3.480916,-2.320611,-2.549618,-85.56001,-111.32,-115.0
0.4665527,0.2624512,-0.8342285,5.328244,2.496183,3.053435,-85.56001,-111.32,-115.0
0.4001465,0.371582,-0.8588867,12.94656,15.99237,1.633588,-86.48,-111.32,-115.0
0.3388672,0.3752441,-0.8630371,-9.496183,5.458015,0.7251908,-86.48,-111.32,-115.0
0.3647461,0.2578125,-0.8740234,-11.83206,-1.450382,1.366412,-86.48,-111.32,-115.0
0.451416,0.2878418,-0.8754883,12.22901,-2.328244,-0.7175572,-85.56001,-112.24,-114.08
0.4462891,0.3928223,-0.8635254,7.045802,10.52672,0.4198473,-85.56001,-112.24,-114.08
0.333252,0.3291016,-0.8496094,-16.1145,10.57252,2.068702,-85.56001,-112.24,-114.08
0.3640137,0.1901855,-0.8234863,0.6564885,-7.145038,-0.259542,-86.48,-111.32,-115.0
0.4855957,0.3076172,-0.8703613,27.58779,0.7251908,-0.8854962,-86.48,-111.32,-115.0
0.4255371,0.4560547,-0.876709,5.671756,22.05343,0.1526718,-86.48,-111.32,-115.0
0.2788086,0.3212891,-0.8361816,-15.0,8.80916,-1.870229,-86.48,-111.32,-115.0
0.3918457,0.232666,-0.8361816,-1.908397,-15.89313,-1.51145,-86.48,-111.32,-115.0
0.5185547,0.3015137,-0.9287109,10.09924,9.106871,2.061069,-86.48,-112.24,-114.08
0.3525391,0.3049316,-0.8664551,7.183206,19.77099,0.6793893,-86.48,-112.24,-114.08
0.2880859,0.300293,-0.824707,13.74809,-2.854962,2.435115,-86.48,-112.24,-114.08
0.4455566,0.3615723,-0.8449707,11.48855,-15.26718,-2.381679,-86.48,-111.32,-115.92
0.5332031,0.355957,-0.8779297,-2.083969,7.351145,-6.442748,-86.48,-111.32,-115.92
0.3664551,0.3137207,-0.9067383,-9.541985,30.19847,-1.625954,-86.48,-110.4,-115.92
0.2727051,0.2421875,-0.8337402,1.320611,-1.229008,8.114504,-86.48,-110.4,-115.92
0.4338379,0.2902832,-0.8081055,16.9313,-16.63359,7.610687,-86.48,-110.4,-115.92
0.5507813,0.4118652,-0.9223633,3.503817,13.96947,0.8931297,-86.48,-111.32,-115.92
0.314209,0.2990723,-0.8605957,-16.64886,29.83206,-3.534351,-86.48,-111.32,-115.92
0.2719727,0.2338867,-0.8417969,4.961832,-6.419847,2.610687,-86.48,-111.32,-115.92
0.4665527,0.329834,-0.8771973,17.91603,-18.03053,5.992366,-86.48,-111.32,-115.92
0.5170898,0.3710938,-0.8508301,2.862595,11.25954,-1.10687,-86.48,-111.32,-115.92
0.3671875,0.317627,-0.8642578,-12.06107,23.19847,-8.511451,-86.48,-110.4,-115.92
0.3083496,0.2739258,-0.84375,6.129771,-3.587786,2.076336,-86.48,-110.4,-115.92
0.4111328,0.3273926,-0.8515625,8.496183,-7.977099,6.099236,-86.48,-110.4,-115.92
0.4873047,0.3325195,-0.8850098,-4.725191,5.748092,0.5954198,-86.48,-110.4,-115.92
0.3947754,0.2651367,-0.8666992,0.8091603,16.79389,-3.038168,-86.48,-110.4,-115.92
0.3259277,0.3105469,-0.8496094,12.30534,6.709924,-3.503817,-86.48,-110.4,-115.92
0.3928223,0.3505859,-0.8395996,3.984733,-8.755725,7.641222,-86.48,-111.32,-115.92
0.4694824,0.3398438,-0.8942871,-9.78626,1.442748,-1.679389,-86.48,-111.32,-115.92
0.4213867,0.270752,-0.8937988,-6.641222,14.42748,-3.801527,-86.48,-111.32,-115.0
0.3188477,0.2373047,-0.8515625,4.961832,11.0229,0.8854962,-86.48,-111.32,-115.0
0.3623047,0.3103027,-0.8063965,23.64886,-9.778625,4.389313,-86.48,-111.32,-115.0
0.4870605,0.4055176,-0.8398438,2.412214,-2.442748,1.977099,-86.48,-110.4,-115.92
0.440918,0.348877,-0.876709,-23.77099,15.67939,-0.4580153,-86.48,-110.4,-115.92
0.338623,0.1987305,-0.8605957,-11.25954,13.31298,0.3282443,-86.48,-110.4,-115.92
0.4179688,0.3696289,-0.8564453,-0.7328244,-2.290076,2.450382,-85.56001,-111.32,-115.0
0.4492188,0.295166,-0.8095703,-6.473282,-0.351145,4.923664,-86.48,-111.32,-115.92
0.425293,0.3188477,-0.8789063,1.427481,13.28244,-4.770992,-86.48,-111.32,-115.92
0.3408203,0.3369141,-0.8696289,-0.8167939,8.396947,-0.03053435,-86.48,-111.32,-115.92
0.3691406,0.302002,-0.838623,-1.580153,-6.10687,1.435114,-86.48,-111.32,-115.0
0.4709473,0.3015137,-0.8518066,1.824428,-0.3664122,2.862595,-86.48,-111.32,-115.0
0.4226074,0.3063965,-0.8862305,-1.076336,16.38931,-3.167939,-86.48,-111.32,-115.0
0.3151855,0.307373,-0.8903809,3.389313,11.32824,-6.496183,-86.48,-111.32,-115.0
0.3515625,0.295166,-0.8415527,6.152672,-7.541985,1.167939,-86.48,-111.32,-115.0
0.4729004,0.3037109,-0.8623047,9.152672,-3.282443,4.10687,-86.48,-111.32,-115.0
0.4445801,0.3308105,-0.848877,3.89313,15.06107,-3.755725,-86.48,-111.32,-115.0
0.3583984,0.3146973,-0.840332,-5.641222,10.54962,-1.076336,-86.48,-111.32,-115.0
0.3759766,0.2885742,-0.8791504,-2.961832,-0.2977099,2.862595,-86.48,-111.32,-115.0
0.420166,0.2878418,-0.8896484,7.732824,1.969466,3.648855,-86.48,-111.32,-115.0
0.4135742,0.322998,-0.842041,11.42748,7.229008,0.2824428,-86.48,-111.32,-115.0
0.3969727,0.3481445,-0.8146973,0.7022901,4.885496,5.0,-86.48,-111.32,-115.0
0.4052734,0.3161621,-0.8691406,-5.587786,1.664122,-1.396947,-86.48,-111.32,-115.0
0.4306641,0.2875977,-0.8608398,6.91603,3.694656,-0.6335878,-86.48,-111.32,-115.92
0.4108887,0.3391113,-0.840332,3.625954,8.152672,3.198473,-86.48,-111.32,-115.92
0.394043,0.3295898,-0.8691406,-9.725191,5.877862,6.145038,-86.48,-111.32,-115.92
0.3857422,0.2519531,-0.869873,-7.198473,6.923664,3.015267,-86.48,-111.32,-115.0
0.3862305,0.2724609,-0.8679199,7.80916,1.160305,0.2290076,-86.48,-111.32,-115.0
0.4121094,0.342041,-0.8364258,11.58015,0.3282443,2.763359,-86.48,-112.24,-115.0
0.4462891,0.3884277,-0.8840332,-2.854962,3.465649,-0.2137404,-86.48,-112.24,-115.0
0.3942871,0.3188477,-0.894043,-11.81679,12.45802,-5.167939,-86.48,-112.24,-115.0
0.3459473,0.2138672,-0.8181152,0.1526718,-0.01526718,-3.381679,-86.48,-112.24,-114.08
0.4272461,0.3015137,-0.8325195,16.74809,-2.671756,1.427481,-86.48,-112.24,-114.08
0.4716797,0.3671875,-0.8918457,1.022901,10.94656,1.80916,-86.48,-112.24,-114.08
0.3356934,0.3076172,-0.8608398,-8.175572,13.53435,0.1832061,-86.48,-111.32,-115.0
0.3398438,0.2714844,-0.796875,6.022901,-6.335878,1.480916,-86.48,-111.32,-115.0
0.4694824,0.3540039,-0.8898926,1.717557,-2.320611,0.389313,-86.48,-111.32,-114.08
0.4470215,0.2956543,-0.8647461,-4.465649,12.93893,-2.687023,-86.48,-111.32,-114.08
0.355957,0.2695313,-0.8513184,3.045802,8.290076,-0.3587786,-86.48,-111.32,-114.08
0.3762207,0.34375,-0.8520508,11.81679,-1.396947,-0.610687,-86.48,-111.32,-114.08
0.4399414,0.3430176,-0.8544922,-2.465649,1.122137,1.755725,-86.48,-111.32,-114.08
0.4260254,0.2680664,-0.8640137,-5.793893,7.358778,-0.7099237,-86.48,-111.32,-114.08
0.3776855,0.2763672,-0.8464355,15.0916,11.60305,0.09923664,-86.48,-112.24,-114.08
0.3789063,0.401123,-0.8405762,10.64122,-2.473282,-0.2900764,-86.48,-112.24,-114.08
0.434082,0.3620605,-0.8518066,-16.14504,0.4351145,-5.793893,-87.4,-111.32,-115.0
0.4367676,0.2404785,-0.8745117,-12.38168,8.641221,-4.694656,-87.4,-111.32,-115.0
0.3913574,0.2536621,-0.8649902,13.38168,13.96947,1.129771,-87.4,-111.32,-115.0
0.3618164,0.3747559,-0.8688965,8.435115,7.580153,2.274809,-86.48,-111.32,-114.08
0.3913574,0.3034668,-0.8505859,-12.35114,-3.977099,0.4045802,-86.48,-111.32,-114.08
0.4443359,0.2229004,-0.8093262,7.664122,1.725191,4.89313,-86.48,-111.32,-114.08
0.4504395,0.4125977,-0.8669434,15.39695,10.8626,1.412214,-86.48,-112.24,-114.08
0.3649902,0.3552246,-0.859375,-12.94656,12.74046,-0.8167939,-86.48,-112.24,-114.08
0.3515625,0.2150879,-0.829834,-9.061069,-5.625954,3.59542,-86.48,-112.24,-114.08
0.4758301,0.3041992,-0.8852539,13.96947,-1.229008,3.625954,-87.4,-112.24,-114.08
0.4511719,0.3605957,-0.8674316,4.824428,15.61069,1.0,-87.4,-112.24,-114.08
0.3393555,0.3198242,-0.8261719,-2.763359,11.45038,-2.984733,-87.4,-111.32,-114.08
0.4599609,0.3596191,-0.895752,-6.206107,13.90076,-4.305344,-87.4,-112.24,-114.08
0.3525391,0.2685547,-0.8845215,-6.89313,13.47328,-0.7633588,-87.4,-112.24,-114.08
0.3474121,0.2436523,-0.829834,15.45038,-3.969466,1.114504,-87.4,-112.24,-114.08
0.4594727,0.3793945,-0.8457031,18.10687,-2.778626,4.175572,-86.48,-112.24,-114.08
0.4521484,0.3703613,-0.8547363,-11.39695,12.96947,1.358779,-86.48,-112.24,-114.08
0.3598633,0.2751465,-0.8486328,-10.34351,6.183206,1.114504,-86.48,-112.24,-114.08
0.3881836,0.2746582,-0.8842773,1.137405,-1.916031,1.572519,-86.48,-112.24,-114.08
0.4187012,0.2958984,-0.8459473,8.816793,0.3282443,2.618321,-86.48,-112.24,-114.08
0.4455566,0.3564453,-0.8305664,5.374046,4.0,3.160305,-86.48,-111.32,-114.08
0.4177246,0.3393555,-0.8740234,-9.435115,10.23664,2.167939,-86.48,-111.32,-114.08
0.3430176,0.2578125,-0.8620605,-1.572519,10.25191,-3.175573,-86.48,-111.32,-114.08
0.3747559,0.3029785,-0.8408203,11.62595,-7.236641,2.519084,-86.48,-112.24,-114.08
0.4726563,0.3498535,-0.8601074,-0.1908397,-3.114504,1.717557,-86.48,-112.24,-114.08
0.4482422,0.2871094,-0.8425293,-0.8931297,11.26718,3.664122,-86.48,-112.24,-114.08
0.3879395,0.3251953,-0.842041,12.35114,11.34351,-0.3053435,-86.48,-111.32,-114.08
0.3666992,0.3554688,-0.8566895,-4.473282,3.778626,0.2519084,-86.48,-111.32,-114.08
0.4135742,0.279541,-0.8723145,-6.740458,-3.503817,-3.038168,-86.48,-111.32,-114.08
0.4304199,0.2753906,-0.8874512,8.106871,6.335878,-1.732824,-86.48,-112.24,-114.08
0.3999023,0.324707,-0.8278809,10.94656,4.725191,0.9083969,-86.48,-112.24,-114.08
0.3972168,0.3632813,-0.828125,-1.389313,4.664122,4.40458,-86.48,-111.32,-114.08
0.4223633,0.3256836,-0.8867188,-5.427481,5.717557,-2.061069,-86.48,-111.32,-114.08
0.3925781,0.2539063,-0.8422852,1.366412,6.717557,-3.679389,-86.48,-111.32,-114.08
0.4111328,0.3188477,-0.8513184,7.732824,3.0,4.877862,-86.48,-112.24,-113.16
0.4250488,0.3154297,-0.8474121,-3.618321,3.839695,2.656489,-86.48,-112.24,-113.16
0.4189453,0.3037109,-0.8588867,-0.351145,9.297709,0.1832061,-86.48,-112.24,-113.16
0.3884277,0.3215332,-0.8808594,-0.2519084,7.374046,-1.503817,-87.4,-112.24,-113.16
0.3696289,0.291748,-0.8278809,0.6564885,-1.061069,4.10687,-87.4,-112.24,-113.16
0.4731445,0.3305664,-0.8762207,7.648855,-1.519084,1.045802,-87.4,-112.24,-113.16
0.454834,0.3308105,-0.8327637,2.320611,13.9542,-0.8396947,-87.4,-112.24,-113.16
0.3818359,0.3181152,-0.8356934,-3.10687,11.83969,0.3282443,-87.4,-112.24,-113.16
0.3852539,0.291748,-0.8762207,-2.015267,3.122137,4.435114,-87.4,-112.24,-113.16
0.4006348,0.3171387,-0.8850098,5.282443,4.908397,-1.80916,-87.4,-112.24,-113.16
0.3989258,0.3063965,-0.8371582,1.633588,0.5267176,-1.526718,-87.4,-112.24,-113.16
0.4399414,0.3081055,-0.8503418,6.923664,0.007633588,2.221374,-86.48,-112.24,-113.16
0.4279785,0.3574219,-0.8195801,8.992367,6.641222,2.427481,-86.48,-112.24,-113.16
0.4157715,0.4067383,-0.8525391,-6.755725,6.748092,1.900763,-87.4,-111.32,-113.16
0.3803711,0.3129883,-0.8815918,-28.32825,7.679389,2.10687,-87.4,-111.32,-113.16
0.3898926,0.177002,-0.8659668,-1.916031,-0.8396947,-3.587786,-87.4,-111.32,-113.16
0.4301758,0.28125,-0.8432617,27.25191,3.763359,1.160305,-86.48,-113.16,-112.24
0.4072266,0.4238281,-0.824707,8.854961,4.80916,2.198473,-86.48,-113.16,-112.24
0.4301758,0.3596191,-0.8635254,-14.84733,0.4198473,0.610687,-86.48,-113.16,-112.24
0.4072266,0.2316895,-0.8068848,-1.40458,7.450382,-13.74809,-87.4,-112.24,-112.24
0.4331055,0.3059082,-0.8745117,4.496183,5.839694,8.40458,-87.4,-112.24,-112.24
0.4116211,0.3242188,-0.8688965,4.625954,8.442748,4.78626,-86.48,-112.24,-112.24
0.3791504,0.3054199,-0.8161621,7.129771,3.755725,4.244275,-86.48,-112.24,-112.24
0.4338379,0.3491211,-0.8498535,4.717557,0.4580153,-2.603053,-86.48,-112.24,-112.24
0.4262695,0.3503418,-0.8894043,-8.038168,10.43511,-3.557252,-87.4,-112.24,-112.24
0.3742676,0.2817383,-0.8261719,-1.664122,5.343512,-1.267176,-87.4,-112.24,-112.24
0.4226074,0.3105469,-0.8461914,10.91603,-1.374046,1.770992,-87.4,-112.24,-112.24
0.458252,0.3466797,-0.8161621,6.870229,5.91603,-1.641221,-87.4,-112.24,-112.24
0.3405762,0.3049316,-0.8325195,-7.572519,-2.625954,1.374046,-88.32,-112.24,-112.24
0.4592285,0.2575684,-0.8344727,-1.755725,-7.78626,-1.312977,-88.32,-112.24,-112.24
0.510498,0.2919922,-0.8825684,7.343512,10.06107,-1.755725,-88.32,-112.24,-111.32
0.3771973,0.3359375,-0.8811035,7.29771,21.14504,0.9389313,-88.32,-112.24,-111.32
0.3205566,0.3217773,-0.8254395,-2.091603,-3.740458,4.427481,-88.32,-112.24,-111.32
0.4365234,0.2839355,-0.815918,2.21374,-7.977099,-2.351145,-88.32,-112.24,-112.24
0.4868164,0.3444824,-0.8352051,13.59542,8.129771,-7.465649,-88.32,-112.24,-112.24
0.4436035,0.3581543,-0.8220215,-4.21374,12.67176,1.793893,-88.32,-112.24,-112.24
0.3664551,0.2976074,-0.8808594,-11.87023,14.52672,0.7633588,-88.32,-112.24,-112.24
0.3308105,0.2663574,-0.8654785,8.564885,0.4732824,-1.732824,-88.32,-112.24,-112.24
0.4455566,0.3354492,-0.8393555,12.36641,-10.46565,3.458015,-88.32,-112.24,-112.24
0.5014648,0.3647461,-0.8869629,-5.816794,10.61832,1.351145,-88.32,-112.24,-112.24
0.3554688,0.2910156,-0.824707,1.038168,16.34351,-0.3969466,-88.32,-112.24,-112.24
0.3352051,0.3579102,-0.8410645,8.709924,-6.175572,-0.9160305,-88.32,-112.24,-112.24
0.4797363,0.3703613,-0.8571777,-11.89313,-10.35878,-3.335878,-88.32,-112.24,-112.24
0.4814453,0.2612305,-0.8847656,-8.549619,15.0458,-6.21374,-88.32,-112.24,-112.24
0.3579102,0.2929688,-0.800293,19.80153,12.35114,3.198473,-88.32,-112.24,-112.24
0.3583984,0.4250488,-0.8476563,4.358778,-2.564885,7.740458,-88.32,-112.24,-112.24
0.4543457,0.3344727,-0.8063965,-22.35878,-8.801527,7.954198,-88.32,-112.24,-112.24
0.5095215,0.2497559,-0.8774414,-8.015267,10.53435,-0.4122138,-88.32,-113.16,-111.32
0.3913574,0.3066406,-0.8781738,8.419847,21.89313,-0.6412213,-88.32,-113.16,-111.32
0.3024902,0.3476563,-0.8369141,2.122137,0.6259542,4.08397,-88.32,-113.16,-111.32
0.434082,0.2983398,-0.8146973,2.862595,-11.12977,2.916031,-88.32,-113.16,-111.32
0.5175781,0.3352051,-0.8051758,12.87786,1.473282,0.03816794,-88.32,-113.16,-111.32
0.4692383,0.3952637,-0.9020996,-13.16031,19.89313,5.091603,-88.32,-113.16,-111.32
0.3120117,0.2900391,-0.8823242,-12.46565,12.35878,0.519084,-88.32,-113.16,-111.32
0.3527832,0.2453613,-0.8256836,11.60305,-10.36641,-4.328244,-88.32,-113.16,-111.32
0.512207,0.3635254,-0.869873,14.16031,-3.633588,-0.9465649,-87.4,-113.16,-110.4
0.4484863,0.3505859,-0.8308105,-0.1755725,16.8855,-4.045802,-87.4,-113.16,-110.4
0.3444824,0.3325195,-0.8105469,2.732824,9.801527,-1.21374,-88.32,-112.24,-111.32
0.4152832,0.3469238,-0.8278809,1.129771,-7.603054,2.076336,-88.32,-112.24,-111.32
0.4677734,0.3457031,-0.8911133,-12.70229,4.648855,-0.3129771,-88.32,-112.24,-111.32
0.4211426,0.2597656,-0.8674316,-1.587786,10.9084,-2.755725,-88.32,-112.24,-111.32
0.3432617,0.3110352,-0.8413086,11.46565,7.244275,2.206107,-88.32,-112.24,-111.32
0.3828125,0.3562012,-0.7949219,5.335878,-9.992367,5.137404,-88.32,-112.24,-111.32
0.5007324,0.3300781,-0.8515625,-2.679389,-2.396947,-0.6564885,-88.32,-112.24,-111.32
0.4433594,0.3054199,-0.8303223,7.29771,15.65649,-5.198473,-88.32,-112.24,-111.32
0.376709,0.3583984,-0.8205566,4.282443,8.59542,2.274809,-88.32,-112.24,-112.24
0.4204102,0.3613281,-0.8405762,-2.40458,0.8396947,0.778626,-88.32,-112.24,-112.24
0.439209,0.3261719,-0.8903809,-7.389313,10.49618,0.3969466,-88.32,-112.24,-112.24
0.3605957,0.270752,-0.8505859,-2.038168,10.78626,-1.80916,-88.32,-113.16,-111.32
0.3811035,0.2602539,-0.8493652,11.0458,-4.931298,1.129771,-88.32,-113.16,-111.32
0.4614258,0.3498535,-0.8505859,17.77099,-2.938931,-4.19084,-88.32,-113.16,-111.32
0.4541016,0.4216309,-0.8671875,3.564885,12.94656,1.732824,-88.32,-112.24,-112.24
0.3737793,0.3537598,-0.8291016,-8.450381,1.366412,1.839695,-88.32,-112.24,-112.24
0.4243164,0.2993164,-0.8630371,-9.145039,-5.80916,7.08397,-88.32,-113.16,-111.32
0.4438477,0.2797852,-0.8920898,-3.21374,9.725191,0.6946565,-88.32,-113.16,-111.32
0.3601074,0.2539063,-0.8327637,12.60305,10.35878,0.9007633,-88.32,-113.16,-111.32
0.3820801,0.3244629,-0.7995605,16.27481,-10.03053,7.984733,-88.32,-113.16,-111.32
0.4897461,0.3908691,-0.8510742,2.519084,-0.7328244,4.725191,-88.32,-113.16,-111.32
0.3398438,0.2385254,-0.8317871,4.770992,0.7709923,0.02290076,-88.32,-113.16,-112.24
0.4475098,0.3361816,-0.8549805,16.08397,-8.977099,6.78626,-88.32,-113.16,-112.24
0.4833984,0.3884277,-0.8632813,2.900763,9.38168,-3.816794,-88.32,-113.16,-111.32
0.376709,0.3339844,-0.8369141,-7.763359,15.25191,-4.274809,-88.32,-113.16,-111.32
0.3613281,0.2993164,-0.8310547,0.07633588,-2.137405,2.29771,-88.32,-112.24,-112.24
0.4536133,0.3303223,-0.8632813,3.290076,-2.977099,-1.916031,-88.32,-112.24,-112.24
0.4584961,0.3212891,-0.8566895,1.198473,10.8855,-4.748092,-88.32,-112.24,-112.24
0.3867188,0.3244629,-0.8479004,0.5572519,9.427481,1.351145,-88.32,-112.24,-111.32
0.3625488,0.3168945,-0.8613281,-3.641221,1.305344,-0.519084,-88.32,-112.24,-111.32
0.4174805,0.2753906,-0.8552246,-3.091603,-5.206107,-1.320611,-88.32,-112.24,-111.32
0.4458008,0.2856445,-0.8515625,8.076336,4.435114,0.3358779,-88.32,-113.16,-111.32
0.407959,0.3432617,-0.8366699,14.9313,7.007634,0.6946565,-88.32,-113.16,-111.32
0.4111328,0.375,-0.8095703,1.664122,2.076336,0.1603053,-88.32,-112.24,-112.24
0.4353027,0.3320313,-0.878418,-16.82443,3.274809,1.007634,-88.32,-112.24,-112.24
0.4279785,0.2316895,-0.8525391,-1.969466,4.229008,0.9236641,-88.32,-112.24,-112.24
0.4187012,0.315918,-0.8674316,22.83969,9.480916,1.458015,-87.4,-113.16,-112.24
0.3896484,0.3723145,-0.8095703,10.36641,4.564886,3.541985,-87.4,-113.16,-112.24
0.4291992,0.3850098,-0.8476563,-5.816794,-3.412214,0.7328244,-87.4,-113.16,-112.24
0.4523926,0.3076172,-0.8583984,-14.61069,2.496183,-2.908397,-88.32,-112.24,-112.24
0.4040527,0.265625,-0.8725586,-1.259542,12.61832,-5.763359,-88.32,-112.24,-112.24
0.373291,0.2807617,-0.8337402,8.282443,0.9312977,0.2137404,-87.4,-112.24,-111.32
0.4318848,0.3273926,-0.8503418,7.519084,-1.847328,4.938931,-87.4,-112.24,-111.32
0.4506836,0.3728027,-0.8442383,1.51145,5.969466,-3.740458,-87.4,-112.24,-111.32
0.3825684,0.3447266,-0.8803711,-13.50382,12.70229,-1.419847,-88.32,-112.24,-112.24
0.3486328,0.2126465,-0.8239746,2.59542,-4.290076,-1.419847,-88.32,-112.24,-112.24
0.4719238,0.3037109,-0.8647461,13.56489,-2.091603,-1.015267,-88.32,-112.24,-112.24
0.4553223,0.3725586,-0.8376465,14.0458,11.0687,-0.8549618,-88.32,-113.16,-112.24
0.3833008,0.3513184,-0.8374023,-3.977099,10.12977,-2.916031,-88.32,-113.16,-112.24
0.3757324,0.3083496,-0.8588867,-12.22137,-0.6030535,0.5114504,-88.32,-112.24,-111.32
0.4416504,0.2514648,-0.8540039,3.396947,-1.580153,2.656489,-88.32,-112.24,-111.32
0.453125,0.3093262,-0.8203125,18.49618,8.458015,4.946565,-88.32,-112.24,-111.32
0.4055176,0.4016113,-0.8425293,-0.02290076,8.625955,3.229008,-88.32,-112.24,-112.24
0.4213867,0.3486328,-0.8657227,-10.17557,-0.9236641,-2.221374,-88.32,-112.24,-112.24
0.4313965,0.2885742,-0.8881836,-3.977099,10.10687,4.549618,-88.32,-112.24,-112.24
0.3701172,0.2973633,-0.8278809,7.343512,5.725191,0.6641222,-88.32,-112.24,-111.32
0.4174805,0.3286133,-0.842041,5.748092,-2.679389,-1.015267,-88.32,-112.24,-111.32
0.458252,0.3432617,-0.8598633,-2.557252,2.664122,1.717557,-88.32,-112.24,-111.32
0.4206543,0.3076172,-0.8666992,-4.312977,10.83206,-2.717557,-88.32,-112.24,-111.32
0.3588867,0.2802734,-0.8100586,2.015267,3.465649,2.572519,-88.32,-112.24,-111.32
0.4099121,0.3137207,-0.8479004,3.916031,-2.900763,1.114504,-88.32,-113.16,-111.32
0.4716797,0.3422852,-0.8891602,3.557252,4.198473,-2.656489,-88.32,-113.16,-111.32
0.3977051,0.3210449,-0.8300781,-2.175573,9.480916,0.5648855,-88.32,-113.16,-111.32
0.4008789,0.3188477,-0.8496094,2.534351,0.4656488,2.160305,-87.4,-112.24,-111.32
0.4228516,0.3041992,-0.8483887,1.396947,1.435114,2.267176,-87.4,-112.24,-111.32
0.4245605,0.3205566,-0.8256836,7.770992,1.519084,-0.1374046,-87.4,-112.24,-111.32
0.442627,0.3554688,-0.8571777,1.458015,6.862596,-1.709924,-87.4,-113.16,-111.32
0.3979492,0.3190918,-0.8530273,-1.335878,9.122137,0.6717557,-87.4,-113.16,-111.32
0.3964844,0.3083496,-0.8474121,3.053435,1.328244,-3.870229,-87.4,-112.24,-112.24
0.4240723,0.3261719,-0.8413086,1.78626,-0.6641222,4.10687,-87.4,-112.24,-112.24
0.4511719,0.2988281,-0.8657227,-5.91603,5.740458,0.9541985,-87.4,-112.24,-112.24
0.3803711,0.40625,-0.8312988,4.244275,-5.229008,1.89313,-87.4,-113.16,-111.32
0.453125,0.3510742,-0.8449707,-14.16031,-6.015267,4.870229,-88.32,-112.24,-112.24
0.4428711,0.2478027,-0.859375,-5.198473,9.732824,0.07633588,-88.32,-112.24,-112.24
0.3874512,0.239502,-0.8442383,13.52672,10.50382,3.473282,-88.32,-112.24,-112.24
0.3813477,0.3618164,-0.8366699,16.58015,-2.038168,5.770992,-87.4,-113.16,-111.32
0.4643555,0.3908691,-0.8583984,-3.374046,1.030534,4.175572,-87.4,-113.16,-111.32
