ax,ay,az,gx,gy,gz,mx,my,mz
-0.9406738,0.1196289,-0.4577637,-13.05344,9.221375,0.1984733,128.8,-61.64,-34.04
-1.018066,0.1069336,-0.4299316,-1.770992,13.74809,-7.099236,128.8,-61.64,-34.04
-1.035645,0.1623535,-0.3835449,-26.38168,15.24428,-3.290076,127.88,-61.64,-33.12
-0.9614258,0.07714844,-0.442627,-6.274809,-4.435114,2.167939,127.88,-61.64,-33.12
-0.907959,0.08422852,-0.472168,20.30534,5.091603,-2.328244,127.88,-61.64,-33.12
-0.9558105,0.1621094,-0.3154297,27.19084,-3.206107,11.29008,127.88,-60.72,-33.12
-0.8642578,0.3088379,-0.4228516,21.66412,-17.23664,11.81679,127.88,-60.72,-33.12
-0.7817383,0.3132324,-0.2922363,1.839695,-6.374046,4.503817,127.88,-60.72,-33.12
-0.753418,0.2946777,-0.3769531,-10.93893,12.16031,3.671756,127.88,-62.56,-33.12
-0.8635254,0.2314453,-0.3818359,-16.80916,29.05343,-6.267176,127.88,-62.56,-33.12
-0.9858398,0.1787109,-0.4228516,-14.67939,21.41985,-6.412214,127.88,-61.64,-33.12
-0.986084,0.1430664,-0.442627,-8.38168,0.2213741,-1.206107,127.88,-61.64,-33.12
-0.9677734,0.1367188,-0.4926758,-2.961832,6.435114,-5.419847,127.88,-61.64,-33.12
-0.9509277,0.1237793,-0.3618164,9.702291,-13.45038,6.496183,127.88,-61.64,-33.12
-0.8342285,0.1901855,-0.3669434,20.61069,-15.41221,6.19084,127.88,-61.64,-33.12
-0.7675781,0.2478027,-0.2424316,19.09924,-10.64122,6.351145,127.88,-61.64,-33.12
-0.7106934,0.3500977,-0.3339844,10.35114,11.39695,5.099236,127.88,-61.64,-34.04
-0.8637695,0.3359375,-0.4025879,-23.70992,43.51908,-11.03817,127.88,-61.64,-34.04
-1.036621,0.1855469,-0.3642578,-31.51908,17.86259,-5.587786,126.96,-62.56,-32.2
-0.9926758,0.08496094,-0.5371094,-16.86259,4.748092,-6.022901,126.96,-62.56,-32.2
-0.994873,0.05078125,-0.4526367,6.496183,-0.4274809,-1.053435,126.96,-62.56,-32.2
-0.90625,0.1257324,-0.3881836,39.16031,-19.54198,12.14504,127.88,-61.64,-33.12
-0.7971191,0.2727051,-0.3139648,36.53435,-15.0687,6.366412,127.88,-61.64,-33.12
-0.7197266,0.3930664,-0.2561035,14.79389,-7.152672,12.51145,127.88,-61.64,-33.12
-0.7380371,0.4284668,-0.4099121,-19.60305,29.78626,-1.900763,126.96,-62.56,-34.04
-0.9748535,0.2580566,-0.3935547,-44.51908,40.17557,-15.58779,126.96,-62.56,-34.04
-1.056396,0.09130859,-0.4338379,-34.10687,10.16794,-9.488549,127.88,-62.56,-33.12
-0.9758301,0.02978516,-0.5126953,-4.992366,-2.816794,-9.160305,127.88,-62.56,-33.12
-0.9506836,0.04223633,-0.395752,21.15267,-6.824428,3.221374,127.88,-62.56,-33.12
-0.8476563,0.1901855,-0.3405762,44.08397,-22.38168,14.65649,127.88,-61.64,-33.12
-0.7509766,0.3452148,-0.3046875,25.0,-8.435115,6.015267,127.88,-61.64,-33.12
-0.7404785,0.3845215,-0.2634277,1.274809,8.427481,2.251908,127.88,-61.64,-33.12
-0.8039551,0.3442383,-0.3776855,-20.61069,30.50382,-6.38168,127.88,-63.48,-33.12
-0.9880371,0.220459,-0.4116211,-32.32061,36.42748,-16.35114,127.88,-63.48,-33.12
-1.060059,0.1115723,-0.4311523,-14.9542,7.824428,-8.160305,127.88,-62.56,-34.04
-1.0354,0.07641602,-0.5151367,-5.328244,3.358779,-7.458015,127.88,-62.56,-34.04
-0.9772949,0.06982422,-0.3581543,21.50382,-20.56489,8.770992,127.88,-62.56,-34.04
-0.7866211,0.1894531,-0.3991699,38.35115,-24.1145,13.24428,127.88,-61.64,-34.96
-0.7331543,0.3469238,-0.3212891,34.9313,1.557252,8.511451,127.88,-61.64,-34.96
-0.7624512,0.425293,-0.2954102,10.71756,15.58779,7.251908,127.88,-61.64,-34.96
-0.8950195,0.3745117,-0.4055176,-35.54198,33.49618,-10.28244,126.96,-63.48,-33.12
-1.006104,0.1794434,-0.4230957,-45.99237,17.01527,-11.0229,126.96,-63.48,-33.12
-0.9836426,0.02319336,-0.5117188,-22.06107,10.14504,-6.748092,126.96,-63.48,-33.12
-1.019531,-0.009521484,-0.4440918,1.19084,-0.08396947,0.5496183,127.88,-61.64,-34.04
-0.9260254,0.0847168,-0.3774414,44.62595,-30.05343,12.10687,127.88,-61.64,-34.04
-0.7497559,0.276123,-0.338623,49.99237,-21.14504,10.69466,127.88,-61.64,-34.04
-0.6848145,0.4023438,-0.2355957,22.31298,-2.137405,12.87023,127.88,-61.64,-34.04
-0.7382813,0.4499512,-0.3701172,-12.28244,33.41985,-3.030534,127.88,-61.64,-34.04
-0.9824219,0.3063965,-0.3891602,-46.52672,42.22137,-18.21374,126.96,-64.4,-33.12
-1.032715,0.08105469,-0.4428711,-32.86259,4.458015,-14.67176,126.96,-64.4,-33.12
-0.9645996,0.02026367,-0.5439453,-0.7022901,7.053435,-9.587787,126.96,-64.4,-33.12
-0.8261719,0.2924805,-0.390625,35.65649,-25.39695,10.36641,127.88,-60.72,-34.04
-0.7177734,0.3601074,-0.2421875,17.96183,-9.137404,7.122138,127.88,-61.64,-34.04
-0.7070313,0.4020996,-0.3505859,-6.061069,18.87786,-1.412214,127.88,-61.64,-34.04
-0.9260254,0.3044434,-0.3862305,-35.1145,46.00763,-14.0916,127.88,-63.48,-33.12
-1.063965,0.1433105,-0.3996582,-40.41985,14.14504,-8.389313,127.88,-63.48,-33.12
-0.9907227,0.01733398,-0.5117188,-16.70992,-1.641221,-3.541985,127.88,-63.48,-33.12
-0.9643555,0.01586914,-0.418457,19.16794,-7.580153,7.946565,127.88,-61.64,-33.12
-0.8879395,0.1716309,-0.3916016,51.63359,-22.36641,16.07634,127.88,-61.64,-33.12
-0.7878418,0.3637695,-0.298584,38.9084,-15.12214,13.58779,127.88,-61.64,-33.12
-0.7199707,0.458252,-0.3063965,0.9694656,3.045802,3.030534,127.88,-62.56,-34.04
-0.8122559,0.3586426,-0.3613281,-37.61832,33.12977,-11.19847,127.88,-62.56,-34.04
-0.9875488,0.1418457,-0.3862305,-46.66412,28.40458,-11.45802,127.88,-62.56,-32.2
-1.009033,0.01977539,-0.4501953,-16.25191,4.450382,-4.778626,127.88,-62.56,-32.2
-0.956543,0.05493164,-0.4638672,20.62595,-2.282443,0.740458,127.88,-62.56,-32.2
-0.9362793,0.1872559,-0.3823242,34.0916,-10.36641,6.007634,127.88,-62.56,-32.2
-0.8361816,0.2995605,-0.3825684,28.75573,-17.37405,7.694656,127.88,-62.56,-32.2
-0.7785645,0.3232422,-0.3095703,11.39695,-2.503817,2.396947,127.88,-62.56,-32.2
-0.7885742,0.3237305,-0.2770996,-4.19084,10.65649,-2.015267,127.88,-62.56,-33.12
-0.8383789,0.2832031,-0.3686523,-27.03053,25.15267,-7.282443,127.88,-62.56,-33.12
-0.9760742,0.145752,-0.3911133,-32.9542,28.66412,-7.251908,127.88,-62.56,-32.2
-1.013428,0.03881836,-0.4418945,-5.244275,4.21374,1.114504,127.88,-62.56,-32.2
-0.9448242,0.07055664,-0.440918,29.9084,-7.992366,6.671756,127.88,-62.56,-32.2
-0.9072266,0.2729492,-0.449707,44.99237,-6.183206,3.114504,127.88,-62.56,-33.12
-0.8535156,0.3945313,-0.322998,27.38931,-11.44275,3.587786,127.88,-62.56,-33.12
-0.7895508,0.3830566,-0.3305664,-15.38931,1.335878,0.9389313,127.88,-62.56,-33.12
-0.8383789,0.2731934,-0.3479004,-34.43512,18.79389,-4.740458,127.88,-62.56,-33.12
-0.9284668,0.1230469,-0.3742676,-30.70992,21.99237,-6.068702,127.88,-62.56,-33.12
-0.9592285,0.05615234,-0.401123,-1.977099,5.984733,-1.603053,127.88,-61.64,-33.12
-0.9338379,0.1225586,-0.4006348,26.54962,-0.8625955,5.648855,127.88,-61.64,-33.12
-0.9035645,0.2766113,-0.4204102,25.84733,-2.114504,8.053435,127.88,-61.64,-33.12
-0.8835449,0.3432617,-0.4016113,10.69466,1.183206,1.290076,126.96,-63.48,-32.2
-0.8886719,0.3046875,-0.362793,-9.442748,0.870229,-2.954198,126.96,-63.48,-32.2
-0.8337402,0.2380371,-0.347168,-12.57252,-5.89313,-2.175573,126.96,-63.48,-32.2
-0.8081055,0.213623,-0.4069824,-10.65649,12.45038,-4.08397,127.88,-62.56,-33.12
-0.8989258,0.182373,-0.3713379,-8.603053,20.41221,-1.473282,127.88,-62.56,-33.12
-0.9870605,0.1748047,-0.4277344,-2.29771,9.931297,-3.748092,127.88,-62.56,-33.12
-0.9523926,0.1643066,-0.3635254,12.93893,-12.52672,0.9083969,127.88,-62.56,-33.12
-0.8383789,0.2094727,-0.4013672,19.65649,-6.923664,5.900764,127.88,-62.56,-33.12
-0.8349609,0.2819824,-0.3322754,10.31298,4.114504,0.2137404,127.88,-62.56,-33.12
-0.8586426,0.3110352,-0.3493652,-0.9465649,7.145038,-4.664122,127.88,-62.56,-33.12
-0.8837891,0.2490234,-0.3596191,-24.45802,13.50382,-8.541985,127.88,-62.56,-33.12
-0.9267578,0.1330566,-0.4304199,-17.60305,16.54198,-8.938931,127.88,-62.56,-33.12
-0.9621582,0.05541992,-0.3710938,5.671756,5.679389,3.610687,127.88,-62.56,-33.12
-0.9033203,0.1677246,-0.4291992,39.61069,-9.38168,8.816793,127.88,-62.56,-33.12
-0.8330078,0.3449707,-0.3596191,38.61069,-5.656488,4.877862,127.88,-62.56,-33.12
-0.8171387,0.4262695,-0.3288574,1.862595,5.358778,2.053435,127.88,-62.56,-33.12
-0.857666,0.3532715,-0.373291,-31.8855,17.48855,-9.541985,126.96,-64.4,-32.2
-0.932373,0.1318359,-0.3615723,-39.63359,19.09924,-9.931297,126.96,-64.4,-32.2
-0.9489746,0.03686523,-0.447998,-11.8626,10.80916,0.129771,126.96,-64.4,-32.2
-0.9777832,0.06958008,-0.4870605,27.41221,8.19084,3.801527,127.88,-62.56,-32.2
-0.9885254,0.2092285,-0.3693848,41.9542,-14.90076,10.74809,127.88,-62.56,-32.2
-0.7724609,0.3649902,-0.3134766,-17.98473,18.05343,-3.244275,127.88,-63.48,-33.12
-0.8476563,0.2451172,-0.3571777,-21.9084,17.15267,-8.877863,127.88,-63.48,-33.12
-0.9243164,0.1594238,-0.4091797,-17.38168,20.76336,-14.21374,127.88,-62.56,-33.12
-0.9743652,0.1157227,-0.4494629,-4.984733,6.366412,-3.419847,127.88,-62.56,-33.12
-0.9724121,0.1567383,-0.5114746,20.87023,6.61832,-0.06870229,127.88,-62.56,-31.28
-1.010254,0.2043457,-0.387207,21.89313,-1.48855,4.198473,127.88,-62.56,-31.28
-0.8703613,0.2739258,-0.3476563,25.16031,-32.59542,11.37405,127.88,-62.56,-31.28
-0.7409668,0.3366699,-0.3786621,1.572519,-5.450382,-2.572519,127.88,-62.56,-32.2
-0.7841797,0.2512207,-0.2758789,-6.862596,11.1145,-6.549618,127.88,-62.56,-32.2
-0.8708496,0.2043457,-0.2895508,-8.458015,23.66412,-6.900764,127.88,-62.56,-32.2
-0.9333496,0.1762695,-0.3659668,-12.29008,16.84733,-3.435115,128.8,-62.56,-32.2
-0.9450684,0.1564941,-0.4343262,0.3816794,10.23664,0.7022901,128.8,-62.56,-32.2
-1.021973,0.2075195,-0.5253906,4.519084,15.25954,-5.770992,127.88,-63.48,-31.28
-1.036621,0.1687012,-0.3671875,12.39695,-17.09924,3.679389,127.88,-63.48,-31.28
-0.8618164,0.1945801,-0.3752441,18.60305,-29.07634,6.007634,127.88,-63.48,-31.28
-0.7199707,0.2426758,-0.2529297,20.19847,-19.63359,5.21374,128.8,-62.56,-31.28
-0.6828613,0.3146973,-0.296875,8.748092,15.8626,0.09160305,128.8,-62.56,-31.28
-0.8718262,0.2871094,-0.3127441,-21.40458,38.63359,-5.091603,128.8,-62.56,-31.28
-0.9929199,0.1726074,-0.4194336,-23.46565,22.22901,0.2748091,127.88,-63.48,-30.36
-1.022461,0.1103516,-0.541748,-0.4274809,18.79389,-4.51145,127.88,-63.48,-30.36
-1.055664,0.1237793,-0.3950195,21.32825,-9.908397,7.145038,127.88,-62.56,-30.36
-0.892334,0.2543945,-0.4265137,30.70229,-30.0,8.763359,127.88,-62.56,-30.36
-0.7558594,0.3129883,-0.2978516,15.16031,-16.29008,-2.328244,127.88,-62.56,-30.36
-0.7019043,0.2915039,-0.25,-3.633588,5.38168,-0.3435115,127.88,-63.48,-30.36
-0.8239746,0.2424316,-0.3669434,-22.08397,35.10687,-5.633588,127.88,-63.48,-30.36
-0.9987793,0.1276855,-0.3271484,-12.45802,18.25954,-0.1679389,127.88,-63.48,-30.36
-0.972168,0.1608887,-0.5061035,10.54198,5.419847,1.603053,127.88,-62.56,-31.28
-1.003662,0.2285156,-0.4272461,5.40458,4.198473,-1.916031,127.88,-62.56,-31.28
-0.9338379,0.2512207,-0.3833008,-0.7480916,-15.35114,6.641222,128.8,-62.56,-30.36
-0.8269043,0.2077637,-0.3977051,-7.312977,-8.473283,-4.175572,128.8,-62.56,-30.36
-0.793457,0.1228027,-0.2080078,9.206107,-7.480916,2.328244,128.8,-62.56,-30.36
-0.760498,0.2409668,-0.3679199,17.68702,14.70229,3.358779,128.8,-61.64,-31.28
-0.8925781,0.3083496,-0.3903809,4.473282,31.51908,-4.183206,128.8,-61.64,-31.28
-1.028809,0.2768555,-0.4143066,-12.48092,20.43511,0.2290076,128.8,-61.64,-31.28
-1.051758,0.2111816,-0.4963379,-19.52672,1.335878,-4.89313,127.88,-63.48,-30.36
-0.9538574,0.1057129,-0.3820801,0.7251908,-21.96183,-2.396947,127.88,-63.48,-30.36
-0.8066406,0.1401367,-0.3596191,18.0916,-15.29771,1.091603,127.88,-63.48,-30.36
-0.7687988,0.2055664,-0.2731934,20.61832,-1.526718,4.977099,127.88,-61.64,-32.2
-0.7766113,0.2946777,-0.3041992,12.03053,13.03053,3.671756,127.88,-61.64,-32.2
-0.8759766,0.3037109,-0.3427734,-7.145038,25.17557,-3.396947,127.88,-62.56,-31.28
-0.9560547,0.2470703,-0.4116211,-18.17557,21.20611,0.1221374,127.88,-62.56,-31.28
-1.004395,0.1843262,-0.5061035,-14.24428,14.33588,-5.244275,127.88,-62.56,-31.28
-1.039307,0.1237793,-0.423584,-0.1755725,-6.251908,-1.48855,127.88,-62.56,-30.36
-0.9226074,0.1481934,-0.3725586,18.42748,-25.29771,4.091603,127.88,-62.56,-30.36
-0.7841797,0.2106934,-0.3093262,25.58015,-13.66412,0.4427481,127.88,-62.56,-30.36
-0.7287598,0.2800293,-0.2783203,20.60305,4.80916,3.007634,128.8,-62.56,-31.28
-0.8129883,0.3227539,-0.3713379,-1.557252,26.61069,2.89313,128.8,-62.56,-31.28
-0.9755859,0.2741699,-0.3527832,-14.83969,24.18321,-3.259542,127.88,-63.48,-30.36
-0.9929199,0.2145996,-0.425293,-18.08397,4.335878,-0.6335878,127.88,-63.48,-30.36
-0.9423828,0.1491699,-0.4423828,-7.496183,0.1603053,-4.129771,127.88,-63.48,-30.36
-0.8596191,0.2036133,-0.3632813,20.54962,-8.717557,6.274809,127.88,-62.56,-30.36
-0.8256836,0.2800293,-0.3422852,17.12977,-0.8625955,4.625954,127.88,-62.56,-30.36
-0.8305664,0.3217773,-0.3659668,2.328244,9.007633,4.48855,127.88,-62.56,-30.36
-0.8952637,0.2998047,-0.354248,-20.0458,20.81679,4.351145,127.88,-62.56,-30.36
-0.9516602,0.2409668,-0.4365234,-24.05343,13.1374,-1.832061,127.88,-63.48,-30.36
-0.9536133,0.1594238,-0.4162598,-9.488549,-0.3358779,-9.717557,127.88,-63.48,-30.36
-0.8840332,0.1088867,-0.3579102,5.366412,-6.541985,-3.526718,127.88,-63.48,-30.36
-0.8432617,0.1459961,-0.3615723,15.51908,5.236641,3.122137,127.88,-62.56,-31.28
-0.8701172,0.2355957,-0.3742676,22.76336,7.137404,4.854962,127.88,-62.56,-31.28
-0.8857422,0.3120117,-0.3681641,13.38931,4.152672,3.038168,127.88,-63.48,-30.36
-0.8747559,0.3308105,-0.3625488,-1.412214,2.061069,-0.3129771,127.88,-63.48,-30.36
-0.8652344,0.279541,-0.3813477,-18.23664,8.755725,-6.603054,127.88,-63.48,-30.36
-0.9086914,0.2080078,-0.3681641,-22.69466,14.29771,-6.709924,127.88,-63.48,-31.28
-0.9672852,0.1254883,-0.3986816,-14.60305,12.77863,-5.923664,127.88,-63.48,-31.28
-0.9580078,0.07324219,-0.3413086,5.656488,-6.221374,0.8167939,127.88,-63.48,-31.28
-0.8579102,0.1437988,-0.3864746,29.0458,-10.01527,8.229008,127.88,-61.64,-31.28
-0.8339844,0.3000488,-0.3642578,32.83969,2.900763,5.564886,127.88,-61.64,-31.28
-0.8789063,0.3864746,-0.3381348,7.671756,8.778625,3.740458,126.96,-63.48,-30.36
-0.9064941,0.3381348,-0.359375,-18.87023,6.725191,-4.389313,126.96,-63.48,-30.36
-0.9025879,0.177002,-0.3708496,-27.12214,5.664122,-6.992366,126.96,-63.48,-30.36
-0.8989258,0.09912109,-0.3894043,-6.496183,7.435114,-4.122138,127.88,-62.56,-31.28
-0.9267578,0.105957,-0.3811035,14.93893,6.725191,3.931298,127.88,-62.56,-31.28
-0.9169922,0.2150879,-0.3647461,29.14504,-7.709924,8.511451,127.88,-62.56,-31.28
-0.8527832,0.3364258,-0.3740234,20.82443,-4.832061,6.816794,127.88,-62.56,-30.36
-0.8378906,0.361084,-0.3630371,-5.358778,6.969466,1.977099,127.88,-62.56,-30.36
-0.8796387,0.2878418,-0.3850098,-20.39695,13.10687,-6.007634,127.88,-63.48,-29.44
-0.9023438,0.1733398,-0.3359375,-17.08397,4.801527,-4.854962,127.88,-63.48,-29.44
-0.8657227,0.1379395,-0.3681641,-8.725191,4.587786,-0.8015267,127.88,-63.48,-29.44
-0.8720703,0.1503906,-0.3293457,4.534351,12.98473,1.160305,128.8,-62.56,-30.36
-0.9155273,0.201416,-0.3762207,8.961832,11.85496,5.412214,128.8,-62.56,-30.36
-0.9111328,0.2773438,-0.3867188,12.44275,-1.045802,6.992366,128.8,-62.56,-30.36
-0.8745117,0.2893066,-0.4038086,5.251908,4.030534,-0.3358779,127.88,-62.56,-31.28
-0.8967285,0.2788086,-0.3830566,-2.992366,7.366412,-4.458015,127.88,-62.56,-31.28
-0.9277344,0.2304688,-0.329834,-12.84733,4.351145,-6.824428,127.88,-62.56,-30.36
-0.8852539,0.1677246,-0.3515625,-13.12214,-1.580153,-3.969466,127.88,-62.56,-30.36
-0.8566895,0.1335449,-0.3500977,0.7709923,4.717557,-0.1450382,127.88,-62.56,-30.36
-0.8886719,0.1791992,-0.3818359,12.0687,13.77863,3.305344,127.88,-62.56,-31.28
-0.9375,0.2453613,-0.3942871,15.96183,5.366412,3.381679,127.88,-62.56,-31.28
-0.9069824,0.2907715,-0.3796387,15.31298,-5.91603,2.603053,127.88,-62.56,-31.28
-0.848877,0.3271484,-0.3679199,2.534351,-3.053435,-1.59542,127.88,-63.48,-30.36
-0.8503418,0.2692871,-0.3508301,-13.74809,12.52672,-7.480916,127.88,-63.48,-30.36
-0.9211426,0.1745605,-0.3718262,-20.41985,18.58015,-3.251908,127.88,-62.56,-30.36
-0.9504395,0.1105957,-0.3681641,-4.656488,2.435115,-0.1908397,127.88,-62.56,-30.36
-0.9025879,0.1247559,-0.3850098,20.16031,-2.916031,5.954198,127.88,-62.56,-30.36
-0.8530273,0.2487793,-0.4001465,31.85496,-0.6412213,5.793893,127.88,-62.56,-31.28
-0.8625488,0.3649902,-0.3825684,22.63359,8.137404,1.564886,127.88,-62.56,-31.28
-0.907959,0.3706055,-0.3730469,-12.00763,7.900764,-5.38168,127.88,-62.56,-31.28
-0.9020996,0.2548828,-0.3520508,-28.29771,2.503817,-7.900764,127.88,-64.4,-30.36
-0.8730469,0.09570313,-0.3754883,-21.21374,8.862596,-8.916031,127.88,-64.4,-30.36
-0.9001465,0.0703125,-0.3676758,7.465649,10.20611,-0.4503817,127.88,-61.64,-31.28
-0.9157715,0.1616211,-0.3840332,26.57252,3.931298,3.793893,127.88,-61.64,-31.28
-0.8408203,0.3679199,-0.3850098,-1.625954,5.480916,-2.557252,127.88,-62.56,-30.36
-0.8652344,0.2854004,-0.3461914,-17.1145,10.45802,-9.0,127.88,-62.56,-30.36
-0.9265137,0.185791,-0.3764648,-25.36641,16.86259,-6.908397,127.88,-62.56,-31.28
-0.9458008,0.09472656,-0.3837891,-10.74046,4.557252,-2.40458,127.88,-62.56,-31.28
-0.9013672,0.08398438,-0.361084,14.31298,-0.6564885,4.961832,127.88,-62.56,-31.28
-0.8789063,0.1931152,-0.4074707,27.9542,-1.854962,4.816794,127.88,-62.56,-31.28
-0.8747559,0.2946777,-0.3491211,31.80153,1.091603,5.08397,127.88,-62.56,-31.28
-0.8701172,0.3774414,-0.3688965,6.694656,3.351145,3.343511,127.88,-62.56,-31.28
-0.8793945,0.3513184,-0.3752441,-18.29771,7.519084,-6.114504,127.88,-63.48,-30.36
-0.9040527,0.2236328,-0.3662109,-34.12214,11.9313,-8.969465,127.88,-63.48,-30.36
-0.927002,0.08325195,-0.3664551,-26.03817,8.160305,-4.305344,127.88,-62.56,-31.28
-0.9191895,0.04614258,-0.4057617,4.78626,-0.8625955,1.832061,127.88,-62.56,-31.28
-0.8984375,0.1164551,-0.3762207,36.96183,-3.961832,4.351145,127.88,-62.56,-31.28
-0.8615723,0.2961426,-0.3813477,41.9771,-6.816794,7.366412,127.88,-62.56,-30.36
-0.8439941,0.4194336,-0.3486328,12.76336,1.984733,4.21374,127.88,-62.56,-30.36
-0.8632813,0.3781738,-0.3552246,-23.0229,11.96183,-4.770992,127.88,-62.56,-30.36
-0.9040527,0.2216797,-0.3857422,-36.00763,16.93893,-8.671756,127.88,-64.4,-31.28
-0.9477539,0.06079102,-0.395752,-25.62595,10.58015,-7.748092,127.88,-64.4,-31.28
-0.947998,0.03515625,-0.4052734,11.47328,-0.08396947,0.389313,127.88,-61.64,-31.28
-0.8862305,0.1411133,-0.3605957,41.96183,-10.19847,6.725191,127.88,-61.64,-31.28
-0.8220215,0.3249512,-0.3630371,35.99237,-4.541985,6.70229,127.88,-61.64,-31.28
-0.8376465,0.4089355,-0.3681641,8.793893,14.70992,2.10687,127.88,-63.48,-30.36
-0.920166,0.3486328,-0.355957,-22.87023,18.38931,-6.045802,127.88,-63.48,-30.36
-0.9462891,0.1872559,-0.3769531,-35.52672,7.778626,-7.839694,127.88,-63.48,-30.36
-0.8994141,0.05688477,-0.3737793,-13.27481,3.656489,-4.08397,127.88,-62.56,-31.28
-0.9064941,0.06738281,-0.3874512,10.48855,8.580153,2.167939,127.88,-62.56,-31.28
-0.9272461,0.1704102,-0.3852539,30.64886,2.671756,6.877862,127.88,-62.56,-30.36
-0.8999023,0.2929688,-0.3898926,26.73282,-2.748092,6.717557,127.88,-62.56,-30.36
-0.8571777,0.338623,-0.34375,6.862596,-3.374046,7.679389,127.88,-62.56,-30.36
-0.828125,0.3129883,-0.3864746,-8.496183,6.61832,4.748092,127.88,-63.48,-30.36
-0.8913574,0.2565918,-0.3483887,-15.70229,14.0458,-2.80916,127.88,-63.48,-30.36
-0.9294434,0.201416,-0.4169922,-17.12977,8.923664,-5.847328,127.88,-63.48,-30.36
-0.9333496,0.1020508,-0.348877,-7.748092,2.312977,-4.167939,128.8,-63.48,-30.36
-0.8728027,0.1142578,-0.3540039,18.41985,-3.328244,6.10687,128.8,-63.48,-30.36
-0.8361816,0.2458496,-0.4008789,28.14504,7.51145,6.770992,127.88,-63.48,-31.28
-0.8952637,0.3544922,-0.3986816,7.977099,15.19084,3.763359,127.88,-63.48,-31.28
-0.9382324,0.3334961,-0.3828125,-13.63359,4.656488,-5.450382,127.88,-63.48,-31.28
-0.8886719,0.2160645,-0.3901367,-19.16794,-0.7709923,-6.320611,127.88,-63.48,-30.36
-0.8549805,0.1472168,-0.3833008,-7.366412,6.38168,-3.755725,127.88,-63.48,-30.36
-0.902832,0.1599121,-0.3688965,-0.7480916,12.14504,-0.351145,127.88,-63.48,-30.36
-0.9050293,0.1923828,-0.3935547,7.89313,-0.1450382,3.343511,127.88,-63.48,-30.36
-0.8647461,0.2194824,-0.3642578,13.33588,-0.5267176,3.503817,127.88,-63.48,-30.36
-0.8666992,0.2783203,-0.4165039,13.90076,8.0,0.5496183,127.88,-63.48,-30.36
-0.9111328,0.3017578,-0.3754883,4.526718,5.694656,-5.839694,127.88,-63.48,-30.36
-0.911377,0.2631836,-0.3769531,-16.35114,3.877863,-5.045802,127.88,-63.48,-30.36
-0.8833008,0.1760254,-0.3806152,-15.67939,5.633588,-3.465649,127.88,-63.48,-31.28
-0.890625,0.1376953,-0.3815918,-5.251908,7.931298,-1.954198,127.88,-63.48,-31.28
-0.9108887,0.1481934,-0.3728027,12.75572,4.984733,4.358778,127.88,-63.48,-31.28
-0.9013672,0.2346191,-0.420166,26.07634,-0.1068702,2.259542,128.8,-63.48,-31.28
-0.8620605,0.3203125,-0.3500977,20.83969,-5.08397,1.70229,128.8,-63.48,-31.28
-0.8537598,0.3579102,-0.390625,-5.442748,7.229008,-2.519084,127.88,-64.4,-30.36
-0.9094238,0.0625,-0.385498,-12.16031,4.312977,-2.480916,128.8,-62.56,-31.28
-0.8977051,0.08642578,-0.3811035,20.92366,0.6183206,3.687023,128.8,-62.56,-31.28
-0.8864746,0.2260742,-0.392334,36.9084,0.610687,4.374046,128.8,-62.56,-31.28
-0.8684082,0.345459,-0.3498535,21.1145,-1.977099,3.969466,127.88,-63.48,-31.28
-0.859375,0.3649902,-0.3842773,-7.534351,7.38168,-2.641221,127.88,-63.48,-31.28
-0.8894043,0.2592773,-0.359375,-23.48855,10.41985,-6.122138,127.88,-63.48,-31.28
-0.916748,0.1516113,-0.3747559,-21.99237,7.824428,-3.48855,128.8,-64.4,-31.28
-0.916748,0.08300781,-0.3862305,-3.061069,5.061069,-0.1679389,128.8,-64.4,-31.28
-0.9050293,0.1210938,-0.3879395,21.38931,0.5648855,3.335878,127.88,-63.48,-30.36
-0.8630371,0.2331543,-0.3869629,34.8855,-3.969466,3.610687,127.88,-63.48,-30.36
-0.8562012,0.3410645,-0.3500977,21.58015,2.954198,4.343512,127.88,-63.48,-30.36
-0.8725586,0.3942871,-0.3945313,-6.48855,10.90076,-0.2900764,127.88,-64.4,-31.28
-0.9155273,0.2834473,-0.3815918,-30.65649,12.0458,-6.442748,127.88,-64.4,-31.28
-0.9255371,0.1149902,-0.3669434,-27.87023,5.603054,-5.236641,127.88,-64.4,-31.28
-0.9016113,0.07324219,-0.3825684,0.1374046,-0.9312977,0.1374046,128.8,-63.48,-31.28
-0.8735352,0.142334,-0.3930664,23.96183,0.8244275,1.89313,128.8,-63.48,-31.28
-0.8725586,0.2421875,-0.3591309,28.96183,4.435114,4.824428,127.88,-64.4,-30.36
-0.8874512,0.3518066,-0.4001465,14.0458,5.007634,1.961832,127.88,-64.4,-30.36
-0.8989258,0.3466797,-0.3642578,-4.519084,4.236641,-6.091603,127.88,-64.4,-30.36
-0.8757324,0.2487793,-0.3557129,-22.12214,5.496183,-6.610687,127.88,-64.4,-31.28
-0.8862305,0.1347656,-0.3884277,-22.74809,12.36641,-3.274809,127.88,-64.4,-31.28
-0.940918,0.09863281,-0.3935547,-1.480916,9.717557,1.053435,127.88,-64.4,-31.28
-0.9313965,0.1364746,-0.3713379,18.50382,-4.328244,3.763359,128.8,-63.48,-31.28
-0.8469238,0.236084,-0.3925781,30.42748,-5.59542,4.732824,128.8,-63.48,-31.28
-0.8352051,0.3391113,-0.3950195,19.17557,6.526718,2.679389,127.88,-64.4,-31.28
-0.8999023,0.3659668,-0.3674316,-5.717557,14.12214,-0.09160305,127.88,-64.4,-31.28
-0.9431152,0.2790527,-0.3947754,-28.77863,5.89313,-4.977099,127.88,-64.4,-31.28
-0.8916016,0.1376953,-0.3771973,-21.27481,-2.068702,-4.923664,127.88,-63.48,-31.28
-0.8706055,0.08154297,-0.3789063,2.824427,7.694656,0.1984733,127.88,-63.48,-31.28
-0.8972168,0.1447754,-0.3723145,22.8855,6.587786,4.259542,127.88,-63.48,-31.28
-0.9016113,0.2763672,-0.3847656,25.30534,0.3053435,4.08397,127.88,-63.48,-31.28
-0.8681641,0.345459,-0.3774414,6.435114,-0.6412213,0.3282443,127.88,-63.48,-31.28
-0.8637695,0.2988281,-0.3757324,-14.0229,8.007633,-4.671756,127.88,-63.48,-30.36
-0.9035645,0.2058105,-0.3837891,-17.32825,11.78626,-5.679389,127.88,-63.48,-30.36
-0.9189453,0.1394043,-0.3681641,-8.114504,3.801527,-2.610687,127.88,-63.48,-30.36
-0.8935547,0.1340332,-0.3937988,8.114504,0.04580153,0.08396947,128.8,-62.56,-31.28
-0.8806152,0.1894531,-0.3640137,22.16031,1.145038,6.526718,128.8,-62.56,-31.28
-0.8928223,0.3012695,-0.40625,18.72519,9.152672,3.580153,128.8,-62.56,-31.28
-0.8959961,0.3203125,-0.3325195,-0.9236641,-2.206107,-0.5877862,127.88,-64.4,-31.28
-0.8666992,0.2907715,-0.4453125,-12.26718,3.076336,-6.908397,127.88,-64.4,-31.28
-0.9047852,0.1794434,-0.3266602,-11.96947,9.854961,-9.496183,127.88,-63.48,-31.28
-0.9196777,0.1437988,-0.3713379,-3.778626,2.183206,0.480916,127.88,-63.48,-31.28
-0.9055176,0.1435547,-0.380127,12.48855,2.969466,3.374046,127.88,-63.48,-31.28
-0.8786621,0.2226563,-0.3476563,24.30534,-1.030534,5.938931,127.88,-63.48,-30.36
-0.8723145,0.3286133,-0.3752441,6.450382,9.526717,3.847328,127.88,-63.48,-30.36
-0.8916016,0.3195801,-0.3728027,-16.70229,11.12214,-2.160305,127.88,-63.48,-30.36
-0.8991699,0.2077637,-0.3647461,-24.00763,9.267176,0.02290076,126.96,-64.4,-30.36
-0.8945313,0.1149902,-0.3884277,-12.35114,8.610687,2.534351,126.96,-64.4,-30.36
-0.9047852,0.1491699,-0.4057617,13.57252,4.465649,2.633588,126.96,-64.4,-30.36
-0.8979492,0.2561035,-0.380127,21.09924,0.4122138,-0.3587786,127.88,-63.48,-31.28
-0.8754883,0.2402344,-0.3947754,-18.61069,12.9542,-2.870229,127.88,-65.32,-31.28
-0.911377,0.1657715,-0.3996582,-6.412214,9.770992,-3.908397,127.88,-65.32,-31.28
-0.927002,0.1721191,-0.4147949,15.35878,6.679389,-2.335878,127.88,-63.48,-31.28
-0.9060059,0.2385254,-0.3691406,15.18321,-2.259542,0.3129771,127.88,-63.48,-31.28
