ax,ay,az,gx,gy,gz,mx,my,mz
-0.9802246,0.166748,-0.2492676,15.08397,0.4580153,0.6793893,126.96,-47.84,-51.52
-0.934082,0.2329102,-0.2502441,5.167939,-4.89313,4.458015,126.96,-47.84,-51.52
-0.885498,0.2314453,-0.2851563,19.13741,-5.625954,1.679389,126.96,-47.84,-52.44
-0.8813477,0.2861328,-0.234375,2.572519,10.64122,0.9541985,126.96,-47.84,-52.44
-0.9453125,0.2661133,-0.2739258,-29.30534,15.91603,1.824428,126.96,-47.84,-52.44
-0.9731445,0.125,-0.3144531,-31.33588,8.977099,1.732824,126.96,-47.84,-52.44
-0.9577637,0.05224609,-0.3408203,4.29771,2.59542,-2.656489,126.96,-47.84,-52.44
-0.9487305,0.1467285,-0.2963867,32.74809,-2.633588,-0.08396947,126.96,-47.84,-52.44
-0.9182129,0.3156738,-0.2790527,21.47328,-0.778626,-0.03816794,126.96,-48.76,-52.44
-0.9035645,0.3164063,-0.2397461,-13.51145,0.3282443,-4.38168,126.96,-48.76,-52.44
-0.9223633,0.1950684,-0.3244629,-30.38931,12.58779,-7.21374,126.96,-48.76,-52.44
-0.9594727,0.06835938,-0.2890625,-5.175572,6.320611,-3.351145,126.96,-47.84,-53.36
-0.9794922,0.1010742,-0.2724609,12.72519,3.679389,4.412214,126.96,-47.84,-53.36
-0.9619141,0.1791992,-0.2856445,21.05343,-5.145038,6.679389,126.96,-47.84,-53.36
-0.8930664,0.269043,-0.2597656,18.12214,-9.38168,3.221374,126.96,-48.76,-51.52
-0.8474121,0.3032227,-0.2619629,-0.870229,7.335878,-3.160305,126.96,-48.76,-51.52
-0.9257813,0.2412109,-0.2502441,-21.29008,21.32825,-3.167939,126.96,-48.76,-51.52
-0.9997559,0.1472168,-0.3181152,-24.35114,12.96947,-1.740458,126.96,-48.76,-51.52
-0.9919434,0.0847168,-0.3132324,-1.854962,-0.8396947,-3.59542,126.96,-48.76,-51.52
-0.9428711,0.1098633,-0.2785645,20.0687,-7.51145,1.152672,126.96,-47.84,-52.44
-0.8974609,0.2097168,-0.2485352,24.38168,-7.358778,3.580153,126.96,-47.84,-52.44
-0.8840332,0.2729492,-0.25,11.84733,2.503817,0.5801527,126.96,-47.84,-52.44
-0.8981934,0.270752,-0.2700195,-3.175573,9.198473,-1.572519,127.88,-48.76,-52.44
-0.9489746,0.2141113,-0.282959,-10.92366,12.32061,-4.0,127.88,-48.76,-52.44
-0.9733887,0.1552734,-0.2753906,-6.641222,4.274809,-2.778626,127.88,-48.76,-52.44
-0.9362793,0.1445313,-0.2941895,3.396947,-0.6641222,2.938931,127.88,-47.84,-51.52
-0.9125977,0.1801758,-0.2712402,13.80153,1.763359,2.129771,127.88,-47.84,-51.52
-0.9523926,0.2319336,-0.2600098,8.526717,8.259542,-0.1755725,127.88,-47.84,-51.52
-0.9521484,0.206543,-0.2268066,0.351145,0.2137404,4.412214,127.88,-47.84,-51.52
-0.9118652,0.1777344,-0.2661133,-2.587786,0.351145,7.198473,127.88,-47.84,-51.52
-0.9060059,0.220459,-0.2421875,4.862596,5.931298,5.236641,126.96,-47.84,-52.44
-0.9343262,0.2741699,-0.2683105,-18.70229,15.51145,-3.89313,126.96,-47.84,-52.44
-0.9785156,0.2070313,-0.314209,-19.93893,6.564886,-7.267176,126.96,-47.84,-52.44
-0.9550781,0.123291,-0.2817383,0.4580153,-1.030534,-5.740458,127.88,-48.76,-51.52
-0.9250488,0.1481934,-0.2646484,10.1145,1.770992,-1.885496,127.88,-48.76,-51.52
-0.923584,0.2277832,-0.2839355,10.36641,2.129771,-1.946565,127.88,-48.76,-51.52
-0.9240723,0.2595215,-0.2392578,0.9541985,1.198473,-3.198473,127.88,-48.76,-51.52
-0.907959,0.1972656,-0.2592773,-13.08397,5.038168,-0.519084,127.88,-48.76,-51.52
-0.9445801,0.1340332,-0.3034668,-4.564886,11.22901,-1.053435,127.88,-47.84,-52.44
-0.9960938,0.1315918,-0.3125,14.17557,3.083969,-1.381679,127.88,-47.84,-52.44
-0.9953613,0.1147461,-0.2114258,27.48855,-9.022901,4.175572,127.88,-47.84,-52.44
-0.8808594,0.2370605,-0.2480469,27.8855,-15.96947,8.793893,127.88,-47.84,-51.52
-0.8391113,0.2963867,-0.2409668,6.61832,9.610687,4.396946,127.88,-47.84,-51.52
-0.951416,0.2851563,-0.2624512,-16.92366,21.22137,1.114504,127.88,-48.76,-50.6
-1.01123,0.1657715,-0.2817383,-26.45038,3.854962,-0.1908397,127.88,-48.76,-50.6
-0.9589844,0.04492188,-0.2626953,-1.862595,-7.045802,3.343511,127.88,-48.76,-50.6
-0.9025879,0.1433105,-0.2875977,25.55725,-0.3282443,6.458015,127.88,-46.92,-51.52
-0.9072266,0.2702637,-0.2331543,20.24427,3.061069,3.526718,127.88,-46.92,-51.52
-0.9211426,0.2714844,-0.2043457,-7.89313,8.526717,4.389313,127.88,-46.92,-51.52
-0.9318848,0.2104492,-0.3115234,-14.37405,12.14504,2.51145,127.88,-47.84,-50.6
-0.9589844,0.1674805,-0.2531738,-6.557252,8.78626,-1.832061,127.88,-47.84,-50.6
-0.9572754,0.142334,-0.2668457,12.08397,-3.984733,-1.0,128.8,-47.84,-50.6
-0.9091797,0.2001953,-0.2709961,20.10687,-3.534351,0.8931297,128.8,-47.84,-50.6
-0.901123,0.2719727,-0.2199707,3.732824,5.931298,3.389313,128.8,-47.84,-51.52
-0.9204102,0.2668457,-0.2844238,-17.20611,13.38168,1.442748,128.8,-47.84,-51.52
-0.9731445,0.1550293,-0.3034668,-26.80153,15.16794,-3.954198,128.8,-48.76,-50.6
-0.984375,0.06738281,-0.3039551,-1.412214,0.2977099,-2.0,128.8,-48.76,-50.6
-0.9492188,0.09765625,-0.2783203,26.16031,-4.946565,5.030534,128.8,-48.76,-50.6
-0.8959961,0.2687988,-0.2504883,33.38931,-3.40458,6.114504,128.8,-48.76,-50.6
-0.8947754,0.3762207,-0.2460938,0.1145038,8.229008,0.6717557,128.8,-48.76,-50.6
-0.9316406,0.3027344,-0.248291,-33.58779,8.305344,-3.664122,128.8,-48.76,-50.6
-0.9433594,0.1333008,-0.2885742,-36.22137,8.755725,-3.267176,127.88,-49.68,-50.6
-0.9348145,0.03491211,-0.3134766,-0.259542,7.748092,-2.290076,127.88,-49.68,-50.6
-0.9692383,0.1083984,-0.2783203,25.90076,7.419847,1.931298,128.8,-47.84,-50.6
-0.9663086,0.2543945,-0.2753906,28.9542,-6.160306,1.732824,128.8,-47.84,-50.6
-0.9179688,0.2695313,-0.2668457,6.603054,-2.519084,-3.412214,128.8,-47.84,-50.6
-0.9013672,0.2189941,-0.255127,-2.083969,4.496183,-0.351145,128.8,-48.76,-49.68
-0.9345703,0.2045898,-0.2922363,0.9007633,11.80916,-2.580153,128.8,-48.76,-49.68
-0.9743652,0.1970215,-0.2587891,1.099237,3.381679,-2.541985,128.8,-48.76,-49.68
-0.9504395,0.2045898,-0.2871094,-0.9160305,-0.6717557,-2.259542,127.88,-48.76,-49.68
-0.9104004,0.1782227,-0.2648926,2.931298,2.778626,-0.3435115,127.88,-48.76,-49.68
-0.9228516,0.2016602,-0.2834473,6.625954,3.969466,-2.229008,127.88,-48.76,-49.68
-0.9453125,0.2314453,-0.2800293,1.954198,3.89313,-3.114504,127.88,-48.76,-49.68
-0.9204102,0.2077637,-0.230957,0.1526718,1.160305,-1.076336,127.88,-48.76,-49.68
-0.9279785,0.1826172,-0.265625,-10.32061,9.816793,2.847328,128.8,-48.76,-49.68
-0.9665527,0.1738281,-0.2861328,0.8778625,5.274809,1.358779,128.8,-48.76,-49.68
-0.9506836,0.1945801,-0.2507324,8.656488,-3.641221,-0.5038168,128.8,-48.76,-49.68
-0.9130859,0.2055664,-0.2878418,5.229008,0.8091603,-3.030534,128.8,-48.76,-49.68
-0.9135742,0.1958008,-0.2424316,2.900763,4.251908,-1.19084,128.8,-48.76,-49.68
-0.9169922,0.239502,-0.3005371,3.664122,6.38168,-1.389313,128.8,-47.84,-49.68
-0.9580078,0.2302246,-0.2644043,-11.09924,10.32061,-4.053435,128.8,-47.84,-49.68
-0.9602051,0.1992188,-0.2878418,-10.30534,2.946565,-2.900763,128.8,-47.84,-49.68
-0.9433594,0.130127,-0.2714844,-2.091603,4.61832,-2.259542,128.8,-47.84,-49.68
-0.958252,0.1433105,-0.2612305,17.75573,-0.1526718,0.6412213,128.8,-47.84,-49.68
-0.9216309,0.2675781,-0.229248,19.61069,-5.40458,3.801527,128.8,-47.84,-49.68
-0.8674316,0.3381348,-0.2556152,-11.57252,4.519084,-0.6564885,128.8,-47.84,-49.68
-0.9160156,0.2387695,-0.270752,-35.51145,22.29771,-4.29771,128.8,-47.84,-49.68
-1.018311,0.09423828,-0.2895508,-21.54962,13.38931,-6.366412,128.8,-47.84,-50.6
-0.9963379,0.04931641,-0.2419434,9.061069,-8.251908,-0.4045802,128.8,-47.84,-50.6
-0.8984375,0.1455078,-0.2597656,23.36641,-7.137404,6.419847,128.8,-47.84,-50.6
-0.8686523,0.2634277,-0.2678223,19.61832,7.473282,5.198473,128.8,-47.84,-49.68
-0.9545898,0.2944336,-0.2409668,-6.580153,14.1374,-1.381679,128.8,-47.84,-49.68
-0.9748535,0.2099609,-0.2629395,-17.30534,0.2213741,-4.129771,128.8,-47.84,-49.68
-0.918457,0.09863281,-0.2751465,-0.7862596,2.282443,-1.068702,128.8,-47.84,-50.6
-0.935791,0.1733398,-0.2839355,19.49618,7.778626,3.473282,128.8,-47.84,-50.6
-0.9714355,0.2924805,-0.2451172,9.832061,4.21374,5.526718,128.8,-47.84,-50.6
-0.9484863,0.2570801,-0.2670898,-16.43511,1.519084,1.709924,128.8,-48.76,-49.68
-0.9238281,0.1230469,-0.2475586,-12.68702,1.114504,-0.778626,128.8,-48.76,-49.68
-0.9211426,0.1335449,-0.2956543,13.77863,6.954198,-0.4580153,128.8,-47.84,-50.6
-0.9587402,0.206543,-0.2470703,13.84733,5.91603,2.351145,128.8,-47.84,-50.6
-0.9372559,0.2617188,-0.2573242,2.099237,-1.755725,3.969466,128.8,-47.84,-50.6
-0.9138184,0.223877,-0.2802734,-8.732824,7.259542,-4.068702,128.8,-48.76,-49.68
-0.9333496,0.1748047,-0.2319336,13.1145,0.9236641,3.045802,128.8,-47.84,-49.68
-0.9086914,0.2268066,-0.2702637,2.183206,7.29771,2.465649,128.8,-47.84,-49.68
-0.9619141,0.2121582,-0.2854004,-0.8778625,10.59542,-3.206107,128.8,-47.84,-49.68
-0.9719238,0.2043457,-0.2397461,1.832061,-2.442748,-0.6717557,128.8,-48.76,-49.68
-0.8984375,0.2111816,-0.2512207,0.03053435,-3.839695,2.312977,128.8,-48.76,-49.68
-0.8886719,0.2102051,-0.2683105,-7.099236,14.15267,1.21374,128.8,-48.76,-49.68
-0.9831543,0.2285156,-0.3032227,-5.229008,14.33588,-3.19084,128.8,-48.76,-49.68
-0.9956055,0.2043457,-0.2763672,2.038168,-4.007634,-4.854962,128.8,-48.76,-49.68
-0.895752,0.1748047,-0.2370605,3.908397,-5.198473,1.633588,128.8,-46.92,-51.52
-0.8835449,0.2143555,-0.3273926,3.290076,11.0916,-0.2824428,128.8,-46.92,-51.52
-0.9814453,0.1989746,-0.2370605,5.015267,8.755725,-2.167939,128.8,-46.92,-51.52
-0.9743652,0.1799316,-0.229248,0.4045802,-6.022901,4.030534,127.88,-48.76,-49.68
-0.8769531,0.1723633,-0.2631836,7.21374,-8.198473,5.977099,127.88,-48.76,-49.68
-0.857666,0.1665039,-0.2302246,13.12977,14.12977,5.61832,128.8,-48.76,-49.68
-0.9418945,0.2277832,-0.2824707,8.374045,19.72519,6.053435,128.8,-48.76,-49.68
-1.026611,0.2226563,-0.2666016,-2.496183,11.58015,5.801527,128.8,-48.76,-49.68
-0.9902344,0.1875,-0.2998047,-1.442748,-8.122137,4.977099,128.8,-49.68,-48.76
-0.9023438,0.1560059,-0.2871094,12.8626,-6.450382,5.267176,128.8,-49.68,-48.76
-0.894043,0.2172852,-0.2490234,24.51908,2.832061,4.870229,128.8,-49.68,-48.76
-0.9328613,0.3208008,-0.2575684,7.763359,8.267176,3.633588,128.8,-48.76,-47.84
-0.9394531,0.3200684,-0.2172852,-22.23664,2.793893,-2.900763,128.8,-48.76,-47.84
-0.9306641,0.1767578,-0.2453613,-26.51145,5.610687,3.435115,128.8,-49.68,-47.84
-0.921875,0.1025391,-0.3095703,-2.625954,4.679389,-1.679389,128.8,-49.68,-47.84
-0.9145508,0.1318359,-0.1850586,22.01527,2.725191,5.389313,128.8,-49.68,-47.84
-0.9406738,0.2805176,-0.2888184,9.099236,7.351145,9.335877,128.8,-49.68,-48.76
-0.9716797,0.2780762,-0.2709961,-3.48855,-1.992366,-2.908397,128.8,-49.68,-48.76
-0.9208984,0.1723633,-0.2521973,-1.954198,-4.145038,-1.396947,128.8,-49.68,-48.76
-0.8969727,0.1696777,-0.2739258,9.778625,6.473282,1.801527,128.8,-49.68,-47.84
-0.9262695,0.2495117,-0.2177734,11.77863,8.977099,1.572519,128.8,-49.68,-47.84
-0.8798828,0.3054199,-0.21875,-0.4503817,-2.045802,12.8855,128.8,-50.6,-46.92
-0.8942871,0.1865234,-0.223877,-27.17557,22.0687,8.0,128.8,-50.6,-46.92
-1.004395,0.1364746,-0.3557129,-7.961832,17.70229,4.641222,128.8,-50.6,-46.92
-1.020752,0.137207,-0.3391113,24.9313,-5.984733,0.1526718,127.88,-49.68,-47.84
-0.9594727,0.1696777,-0.2478027,33.1145,-15.22901,2.282443,127.88,-49.68,-47.84
-0.8647461,0.3081055,-0.2282715,31.32061,-13.41221,6.351145,127.88,-49.68,-47.84
-0.8278809,0.3583984,-0.2888184,-5.175572,11.24428,-2.778626,128.8,-49.68,-46.92
-0.9309082,0.2631836,-0.2333984,-20.0458,24.13741,-4.40458,128.8,-49.68,-46.92
-1.015381,0.1330566,-0.3146973,-21.9771,12.10687,-6.717557,128.8,-50.6,-46.0
-0.9892578,0.07446289,-0.3015137,7.923664,-7.648855,-4.175572,128.8,-50.6,-46.0
-0.902832,0.1235352,-0.2441406,33.47328,-9.320611,2.687023,128.8,-50.6,-46.0
-0.8806152,0.2675781,-0.3005371,34.76336,6.114504,2.89313,128.8,-49.68,-46.0
-0.9482422,0.3466797,-0.189209,9.954199,8.824428,1.061069,128.8,-49.68,-46.0
-0.911377,0.3540039,-0.1848145,-19.78626,-3.656489,8.083969,128.8,-49.68,-46.0
-0.8515625,0.2373047,-0.3491211,-40.12214,18.64886,1.259542,128.8,-50.6,-46.92
-0.9970703,0.05395508,-0.324707,-22.69466,28.96183,-6.580153,128.8,-50.6,-46.92
-1.087646,0.009521484,-0.3181152,21.64886,-7.167939,-2.419847,128.8,-49.68,-46.0
-0.9436035,0.1257324,-0.2124023,56.07634,-32.52672,5.969466,128.8,-49.68,-46.0
-0.7434082,0.3884277,-0.2558594,40.49618,-11.1145,10.38168,128.8,-49.68,-46.0
-0.8354492,0.4633789,-0.2631836,-14.51145,36.20611,-0.7557252,128.8,-52.44,-44.16
-1.062012,0.3137207,-0.3344727,-53.0,28.74809,-12.42748,128.8,-52.44,-44.16
-1.007568,0.03662109,-0.2468262,-30.48855,-11.22901,-6.778626,128.8,-52.44,-44.16
-0.8598633,0.02978516,-0.3505859,4.259542,-1.687023,4.961832,128.8,-48.76,-46.92
-1.01123,0.3532715,-0.2885742,1.740458,-3.992366,-2.625954,128.8,-51.52,-45.08
-0.9106445,0.201416,-0.1962891,-9.152672,-13.9313,-1.259542,128.8,-51.52,-45.08
-0.8337402,0.1574707,-0.3227539,-1.030534,7.351145,2.694656,128.8,-51.52,-45.08
-0.9587402,0.1652832,-0.2446289,11.72519,19.59542,2.778626,128.8,-50.6,-45.08
-0.9960938,0.2524414,-0.2490234,13.50382,-3.885496,6.70229,128.8,-50.6,-45.08
-0.892334,0.2902832,-0.2802734,-2.022901,-7.167939,2.938931,128.8,-50.6,-45.08
-0.8674316,0.2375488,-0.2780762,-14.60305,12.49618,1.183206,128.8,-50.6,-45.08
-0.9353027,0.1638184,-0.2666016,-11.0229,15.98473,0.6335878,128.8,-50.6,-45.08
-0.9951172,0.1435547,-0.2783203,5.358778,6.778626,0.7022901,128.8,-50.6,-46.0
-0.9440918,0.1791992,-0.3081055,16.60305,-7.08397,2.740458,128.8,-50.6,-46.0
-0.8994141,0.2299805,-0.2629395,21.21374,0.7251908,4.038168,128.8,-50.6,-46.0
-0.9082031,0.314209,-0.2402344,9.832061,4.236641,3.908397,128.8,-51.52,-44.16
-0.9135742,0.3100586,-0.2783203,-17.48855,8.183207,-1.183206,128.8,-51.52,-44.16
-0.9399414,0.1855469,-0.2883301,-22.68702,10.46565,-3.908397,128.8,-51.52,-44.16
-0.9655762,0.109375,-0.3205566,0.04580153,7.51145,-2.969466,128.8,-51.52,-44.16
-0.9697266,0.1691895,-0.2521973,25.37405,-3.19084,3.656489,128.8,-51.52,-44.16
-0.8981934,0.2958984,-0.2570801,14.36641,-6.816794,5.29771,128.8,-50.6,-45.08
-0.8759766,0.3127441,-0.2724609,-6.961832,6.984733,-1.305344,128.8,-50.6,-45.08
-0.9291992,0.2128906,-0.2802734,-14.54962,14.14504,-5.244275,128.8,-50.6,-45.08
-0.9648438,0.1584473,-0.2592773,-0.4351145,4.259542,-2.099237,128.8,-50.6,-44.16
-0.9306641,0.1730957,-0.2805176,7.717557,-3.160305,-1.198473,128.8,-50.6,-44.16
-0.921875,0.1933594,-0.3579102,13.43511,4.045802,-6.122138,128.8,-51.52,-43.24
-0.9675293,0.220459,-0.2102051,24.08397,-3.282443,0.6030535,128.8,-51.52,-43.24
-0.953125,0.2719727,-0.2744141,5.526718,-3.022901,0.129771,128.8,-51.52,-43.24
-0.9038086,0.2121582,-0.2592773,3.366412,-10.15267,-1.954198,129.72,-50.6,-43.24
-0.8508301,0.1782227,-0.2687988,12.22901,2.458015,-2.618321,129.72,-50.6,-43.24
-0.9187012,0.2763672,-0.2526855,17.70992,15.66412,-1.183206,129.72,-50.6,-43.24
-0.9970703,0.3452148,-0.2827148,-12.57252,10.58015,-3.167939,129.72,-50.6,-43.24
-0.9641113,0.2216797,-0.2080078,-28.24427,-5.748092,3.114504,129.72,-50.6,-43.24
-0.8845215,0.1057129,-0.3571777,-18.54962,8.511451,-1.412214,129.72,-49.68,-44.16
-0.9575195,0.06298828,-0.2404785,23.85496,11.57252,-1.328244,129.72,-49.68,-44.16
-0.9892578,0.2197266,-0.251709,29.90076,-4.580153,7.022901,129.72,-49.68,-44.16
-0.9172363,0.3190918,-0.2556152,14.25191,-9.610687,4.885496,129.72,-50.6,-42.32
-0.855957,0.3125,-0.217041,-8.412213,5.748092,4.442748,129.72,-50.6,-42.32
-0.8837891,0.2385254,-0.2915039,-24.78626,20.54962,1.625954,129.72,-50.6,-42.32
-1.000732,0.1108398,-0.3425293,-13.64886,17.77863,-7.671756,128.8,-51.52,-43.24
-1.048828,0.03930664,-0.2897949,25.74046,-12.16031,-6.503817,128.8,-51.52,-43.24
-0.9282227,0.1726074,-0.1992188,56.1145,-27.82443,5.366412,129.72,-49.68,-43.24
-0.7856445,0.3859863,-0.2478027,29.0,-1.328244,7.977099,129.72,-49.68,-43.24
-0.8762207,0.4099121,-0.2380371,-19.87023,29.48855,-0.03053435,129.72,-49.68,-43.24
-1.015137,0.2104492,-0.291748,-41.78626,23.39695,-6.053435,129.72,-52.44,-40.48
-1.029053,0.02172852,-0.3137207,-13.21374,-0.351145,-5.938931,129.72,-52.44,-40.48
-0.9289551,0.0480957,-0.3049316,36.0687,-13.15267,3.267176,129.72,-52.44,-40.48
-0.887207,0.2797852,-0.2714844,45.72519,-0.7709923,7.343512,129.72,-50.6,-42.32
-0.9057617,0.4140625,-0.1977539,11.77099,8.282443,8.282443,129.72,-50.6,-42.32
-0.9116211,0.3603516,-0.262207,-35.35115,8.167939,0.9694656,128.8,-51.52,-41.4
-0.9165039,0.1066895,-0.2595215,-30.80153,13.81679,-2.236641,128.8,-51.52,-41.4
-0.9689941,0.04516602,-0.3671875,-1.816794,11.29771,-5.206107,128.8,-51.52,-41.4
-1.011963,0.06152344,-0.2697754,44.51908,-1.389313,-2.267176,129.72,-49.68,-41.4
-0.9260254,0.2619629,-0.2258301,49.03053,-20.96183,9.167939,129.72,-49.68,-41.4
-0.8071289,0.4274902,-0.234375,12.19847,-0.02290076,6.48855,129.72,-49.68,-41.4
-1.018555,0.1003418,-0.2790527,-39.0,14.57252,2.40458,129.72,-52.44,-39.56
-0.9335938,0.07885742,-0.3269043,5.053435,-3.374046,10.99237,129.72,-50.6,-42.32
-0.8896484,0.1325684,-0.2568359,18.16031,8.259542,23.64886,129.72,-50.6,-42.32
-0.9973145,0.246582,-0.3291016,12.01527,12.39695,14.83206,129.72,-50.6,-42.32
-1.01416,0.2561035,-0.2609863,20.59542,-9.290076,5.473282,128.8,-54.28,-39.56
-0.8774414,0.2966309,-0.2543945,14.77099,-17.55725,5.061069,128.8,-54.28,-39.56
-0.7941895,0.375,-0.2282715,1.076336,7.870229,6.908397,128.8,-54.28,-39.56
-0.8894043,0.3481445,-0.2949219,-33.35115,32.58779,-0.9389313,128.8,-54.28,-39.56
-1.044189,0.1569824,-0.3032227,-29.60305,22.60305,-6.305344,128.8,-54.28,-39.56
-1.019531,0.07519531,-0.3198242,2.099237,-14.0458,-2.770992,128.8,-52.44,-40.48
-0.8752441,0.1560059,-0.3034668,36.25191,-19.64886,0.2061069,128.8,-52.44,-40.48
-0.8352051,0.331543,-0.2646484,34.03817,5.229008,2.717557,128.8,-52.44,-40.48
-0.9438477,0.3996582,-0.3017578,-4.389313,12.96183,-10.0916,128.8,-54.28,-38.64
-0.9741211,0.269043,-0.2460938,-11.36641,-0.9007633,-12.38168,128.8,-54.28,-38.64
-0.8723145,0.1538086,-0.2346191,-7.51145,-7.244275,0.832061,129.72,-52.44,-41.4
-0.8605957,0.2070313,-0.3171387,1.732824,15.89313,3.145038,129.72,-52.44,-41.4
-0.9765625,0.2514648,-0.2922363,5.740458,15.71756,-1.832061,129.72,-52.44,-41.4
-1.026367,0.2402344,-0.2927246,2.725191,-0.519084,-5.152672,128.8,-53.36,-39.56
-0.9226074,0.190918,-0.2197266,7.328244,-16.22137,1.206107,128.8,-53.36,-39.56
-0.8276367,0.2805176,-0.3105469,9.21374,0.7709923,1.839695,128.8,-53.36,-39.56
-0.90625,0.2990723,-0.2363281,-4.465649,15.80916,-2.19084,128.8,-53.36,-39.56
-0.9711914,0.2404785,-0.2875977,-16.10687,7.900764,-4.534351,128.8,-53.36,-39.56
-0.9560547,0.1445313,-0.2597656,-3.053435,-2.664122,-0.2900764,128.8,-52.44,-39.56
-0.9023438,0.1799316,-0.2758789,16.54962,-1.358779,2.10687,128.8,-52.44,-39.56
-0.9160156,0.2695313,-0.2727051,11.45802,7.358778,2.236641,128.8,-52.44,-39.56
-0.9365234,0.2609863,-0.2888184,3.152672,1.80916,-2.015267,128.8,-53.36,-39.56
-0.9165039,0.2119141,-0.203125,2.038168,-0.8549618,1.664122,128.8,-53.36,-39.56
-0.9067383,0.2390137,-0.2915039,-4.687023,8.763359,2.312977,128.8,-53.36,-39.56
-0.9350586,0.2167969,-0.2570801,0.7175572,6.366412,1.984733,129.72,-53.36,-39.56
-0.9416504,0.2177734,-0.307373,1.709924,5.427481,-1.412214,129.72,-53.36,-39.56
-0.951416,0.2224121,-0.2885742,10.80153,1.274809,-3.290076,129.72,-53.36,-39.56
-0.9301758,0.2519531,-0.2668457,12.71756,-1.458015,-2.938931,129.72,-52.44,-39.56
-0.9018555,0.2731934,-0.2536621,6.267176,3.061069,-1.259542,129.72,-52.44,-39.56
-0.9128418,0.2792969,-0.2473145,-5.099236,7.351145,3.091603,129.72,-52.44,-38.64
-0.9248047,0.2443848,-0.2814941,-13.70992,7.931298,-1.725191,129.72,-52.44,-38.64
-0.9450684,0.1669922,-0.276123,-5.015267,7.427481,-3.244275,129.72,-52.44,-38.64
-0.9580078,0.1616211,-0.2724609,7.358778,1.80916,0.4274809,128.8,-52.44,-39.56
-0.9611816,0.2128906,-0.3513184,16.14504,1.519084,-6.984733,128.8,-52.44,-39.56
-0.9311523,0.2280273,-0.2165527,20.25954,-9.145039,-3.526718,128.8,-52.44,-39.56
-0.8605957,0.2900391,-0.2348633,6.587786,-0.8778625,3.229008,128.8,-52.44,-38.64
-0.8835449,0.298584,-0.2683105,-10.67176,15.48092,-1.450382,128.8,-52.44,-38.64
-0.9641113,0.2172852,-0.3183594,-15.76336,16.72519,-8.274809,129.72,-52.44,-37.72
-0.9899902,0.1289063,-0.2375488,6.435114,-5.221374,-2.19084,129.72,-52.44,-37.72
-0.9216309,0.1911621,-0.293457,19.80916,-4.358778,1.145038,129.72,-52.44,-37.72
-0.9116211,0.2619629,-0.2922363,19.28244,2.908397,-3.480916,129.72,-52.44,-38.64
-0.9484863,0.2844238,-0.2600098,4.854962,6.946565,-4.954198,129.72,-52.44,-38.64
-0.9230957,0.2348633,-0.2260742,-2.916031,-0.3129771,-1.740458,129.72,-52.44,-38.64
-0.8894043,0.2336426,-0.2592773,-4.61832,6.923664,2.282443,129.72,-52.44,-38.64
-0.9133301,0.2600098,-0.2880859,-6.0,12.59542,-1.534351,129.72,-52.44,-38.64
-0.9914551,0.2211914,-0.3193359,-17.08397,13.9084,-5.80916,128.8,-53.36,-38.64
-0.9824219,0.1374512,-0.2670898,5.007634,-8.923664,-3.70229,128.8,-53.36,-38.64
-0.8811035,0.3413086,-0.2431641,2.007634,13.58779,-0.4198473,129.72,-51.52,-39.56
-0.9733887,0.2856445,-0.3181152,-25.06107,20.34351,-4.656488,129.72,-51.52,-39.56
-1.014648,0.1081543,-0.2390137,-14.05344,-2.083969,-2.412214,129.72,-52.44,-38.64
-0.921875,0.1132813,-0.2824707,18.69466,-10.17557,2.175573,129.72,-52.44,-38.64
-0.8652344,0.2324219,-0.204834,25.32061,-1.877863,4.396946,129.72,-52.44,-38.64
-0.8808594,0.3518066,-0.2739258,4.274809,13.51908,2.099237,129.72,-52.44,-38.64
-0.9519043,0.2932129,-0.2666016,-17.69466,15.22137,-3.496183,129.72,-52.44,-38.64
-0.982666,0.1838379,-0.2990723,-15.15267,4.885496,-5.290076,129.72,-51.52,-38.64
-0.9489746,0.1396484,-0.298584,9.969465,-2.648855,-3.091603,129.72,-51.52,-38.64
-0.9135742,0.2060547,-0.2529297,21.50382,-2.137405,2.244275,129.72,-51.52,-38.64
-0.9035645,0.3110352,-0.2521973,7.862596,2.862595,2.099237,129.72,-52.44,-38.64
-0.9057617,0.3015137,-0.2375488,-8.534351,7.923664,1.78626,129.72,-52.44,-38.64
-0.935791,0.2260742,-0.28125,-24.03053,15.87023,-2.70229,129.72,-52.44,-38.64
-0.9487305,0.1345215,-0.2617188,-6.931298,4.748092,1.839695,129.72,-52.44,-38.64
-0.9353027,0.1582031,-0.3000488,10.03053,4.38168,1.931298,129.72,-52.44,-38.64
-0.940918,0.2553711,-0.2753906,22.19847,-0.07633588,0.9923664,129.72,-52.44,-38.64
-0.9187012,0.3066406,-0.2614746,8.328244,1.358779,-2.320611,129.72,-52.44,-38.64
-0.9060059,0.2717285,-0.2624512,-7.816794,4.748092,-3.351145,129.72,-52.44,-38.64
-0.9177246,0.2158203,-0.2578125,-5.114504,9.335877,-4.923664,129.72,-52.44,-38.64
-0.9492188,0.1901855,-0.279541,-5.549618,11.51145,-2.618321,129.72,-52.44,-38.64
-0.9682617,0.2055664,-0.2753906,0.259542,5.068702,1.885496,129.72,-52.44,-38.64
-0.9255371,0.2167969,-0.2963867,6.221374,-2.061069,2.022901,129.72,-52.44,-38.64
-0.911377,0.2421875,-0.2995605,8.496183,3.534351,0.4580153,129.72,-52.44,-38.64
-0.9418945,0.2561035,-0.2631836,6.839694,4.877862,-1.633588,129.72,-52.44,-38.64
-0.9326172,0.2319336,-0.2324219,2.984733,-1.740458,-1.541985,129.72,-52.44,-38.64
-0.8994141,0.2421875,-0.2495117,-1.022901,2.419847,-0.1145038,129.72,-52.44,-38.64
-0.9162598,0.2512207,-0.2712402,-3.587786,12.70992,-2.541985,129.72,-52.44,-39.56
-0.9509277,0.2021484,-0.2678223,-8.473283,7.816794,-2.664122,129.72,-52.44,-39.56
-0.9602051,0.1672363,-0.3066406,5.473282,1.450382,-4.328244,129.72,-52.44,-39.56
-0.9562988,0.2658691,-0.2927246,18.42748,-4.129771,-3.870229,129.72,-51.52,-39.56
-0.9177246,0.3105469,-0.215332,-4.847328,-4.78626,1.839695,129.72,-51.52,-39.56
-0.8828125,0.2717285,-0.2687988,-20.9542,2.717557,-1.709924,129.72,-52.44,-39.56
-0.9240723,0.1386719,-0.2553711,-12.46565,13.77863,-4.328244,129.72,-52.44,-39.56
-0.9846191,0.1623535,-0.2602539,12.1374,7.045802,1.763359,129.72,-52.44,-39.56
-0.956543,0.2067871,-0.2668457,10.74046,-5.610687,3.419847,129.72,-51.52,-39.56
-0.9035645,0.2436523,-0.2634277,11.64886,-0.9160305,5.633588,129.72,-51.52,-39.56
-0.8967285,0.2724609,-0.2570801,8.916031,7.61832,1.022901,129.72,-51.52,-39.56
-0.9294434,0.2714844,-0.230957,-1.290076,8.236641,0.2824428,129.72,-51.52,-38.64
-0.9189453,0.2712402,-0.2700195,-5.854962,5.328244,1.305344,129.72,-51.52,-38.64
-0.9221191,0.2246094,-0.2773438,-16.29008,10.48092,-0.4580153,129.72,-52.44,-39.56
-0.9648438,0.1477051,-0.2502441,-4.580153,10.33588,0.3740458,129.72,-52.44,-39.56
-0.9682617,0.157959,-0.2770996,9.641221,1.145038,3.549618,129.72,-52.44,-39.56
-0.918457,0.2131348,-0.2595215,21.41221,-1.167939,5.328244,129.72,-52.44,-39.56
-0.8947754,0.2919922,-0.2600098,13.87023,3.473282,4.549618,129.72,-52.44,-39.56
-0.9226074,0.3149414,-0.2487793,-5.442748,7.61832,-0.8091603,129.72,-52.44,-39.56
-0.9353027,0.2512207,-0.277832,-10.54962,9.923664,-5.160306,129.72,-52.44,-38.64
-0.9372559,0.1574707,-0.2573242,-6.969466,5.839694,-2.21374,129.72,-52.44,-38.64
-0.9411621,0.1796875,-0.2893066,6.007634,7.938931,3.732824,129.72,-52.44,-39.56
-0.9526367,0.2463379,-0.2731934,13.74046,0.8091603,0.6259542,129.72,-52.44,-39.56
-0.9289551,0.2695313,-0.2409668,4.40458,-2.221374,-1.679389,129.72,-52.44,-39.56
-0.8896484,0.2590332,-0.3076172,-1.503817,3.076336,-2.152672,129.72,-52.44,-39.56
-0.9396973,0.222168,-0.269043,-2.938931,0.1679389,0.07633588,129.72,-52.44,-39.56
