ax,ay,az,gx,gy,gz,mx,my,mz
0.3691406,0.3271484,-0.9589844,7.572519,10.92366,-11.94656,-34.04,-155.48,6.44
0.267334,0.3681641,-0.8496094,11.73282,13.48855,-6.534351,-34.04,-155.48,6.44
0.2626953,0.4091797,-0.8759766,7.709924,-4.167939,1.305344,-33.12,-156.4,5.52
0.3295898,0.3762207,-0.8234863,-7.305344,-8.946565,15.06107,-33.12,-156.4,5.52
0.3781738,0.3376465,-0.9169922,-2.793893,12.92366,-5.282443,-33.12,-156.4,5.52
0.2683105,0.3632813,-0.8742676,0.7328244,14.9542,-0.5496183,-33.12,-156.4,5.52
0.2248535,0.3425293,-0.8618164,-5.152672,1.916031,3.725191,-33.12,-156.4,5.52
0.3193359,0.3151855,-0.9221191,5.755725,-2.015267,4.946565,-34.04,-155.48,7.36
0.3044434,0.3647461,-0.8754883,11.83969,4.877862,-2.908397,-34.04,-155.48,7.36
0.3063965,0.3847656,-0.8244629,7.442748,-4.099236,4.633588,-34.04,-156.4,6.44
0.3747559,0.4033203,-0.9145508,-2.839695,6.908397,1.984733,-34.04,-156.4,6.44
0.2954102,0.3789063,-0.857666,-7.038168,15.45802,-2.419847,-34.04,-156.4,6.44
0.2485352,0.3496094,-0.878418,-9.709924,4.89313,-0.2137404,-34.04,-155.48,7.36
0.3085938,0.3093262,-0.9091797,2.496183,-2.251908,-2.045802,-34.04,-155.48,7.36
0.3449707,0.3647461,-0.8776855,9.59542,3.229008,0.7022901,-34.04,-155.48,7.36
0.2988281,0.4008789,-0.855957,-3.938931,8.152672,0.5267176,-34.04,-155.48,7.36
0.267334,0.3554688,-0.8552246,-4.442748,1.206107,4.748092,-34.04,-155.48,7.36
0.3217773,0.3498535,-0.9001465,-0.2748091,-1.045802,-0.07633588,-34.04,-155.48,7.36
0.3381348,0.3234863,-0.8513184,5.282443,2.564885,4.633588,-34.04,-155.48,7.36
0.3154297,0.3811035,-0.8461914,4.312977,5.08397,4.793893,-34.04,-155.48,7.36
0.309082,0.395752,-0.8996582,-1.48855,10.69466,-4.633588,-34.04,-155.48,7.36
0.2976074,0.3515625,-0.8649902,-5.725191,5.038168,5.770992,-34.04,-155.48,7.36
0.3000488,0.3266602,-0.8972168,-0.3969466,6.587786,3.946565,-34.04,-155.48,7.36
0.28125,0.342041,-0.8806152,9.274809,2.458015,3.732824,-34.96,-155.48,9.2
0.2915039,0.4160156,-0.8635254,9.572519,-1.503817,2.503817,-34.96,-155.48,9.2
0.3496094,0.4204102,-0.862793,-4.793893,1.251908,0.08396947,-34.04,-155.48,8.28
0.3186035,0.3520508,-0.892334,-10.38168,11.35114,1.381679,-34.04,-155.48,8.28
0.2885742,0.3137207,-0.8415527,0.7938931,3.099237,3.847328,-34.04,-155.48,8.28
0.3391113,0.3146973,-0.8508301,8.755725,-1.778626,7.89313,-34.96,-155.48,10.12
0.345459,0.4020996,-0.8879395,9.366412,12.60305,-1.061069,-34.96,-155.48,10.12
0.2458496,0.4345703,-0.8752441,-6.396946,8.870229,-3.335878,-34.96,-155.48,10.12
0.2678223,0.348877,-0.8564453,-7.328244,-6.076336,2.328244,-34.96,-154.56,9.2
0.3742676,0.2866211,-0.847168,3.183206,-4.251908,4.053435,-34.96,-154.56,9.2
0.3679199,0.3552246,-0.9003906,9.961832,17.0458,-6.236641,-34.04,-155.48,9.2
0.2338867,0.4172363,-0.8652344,4.679389,9.679389,-1.664122,-34.04,-155.48,9.2
0.2468262,0.3896484,-0.8508301,-4.29771,-7.167939,5.068702,-34.04,-155.48,9.2
0.3562012,0.3352051,-0.869873,-3.221374,-5.580153,0.8931297,-34.04,-155.48,9.2
0.3789063,0.3266602,-0.8771973,6.328244,7.061069,-1.290076,-34.04,-155.48,9.2
0.2919922,0.4125977,-0.8884277,8.175572,17.78626,-5.610687,-34.04,-155.48,9.2
0.2202148,0.4111328,-0.861084,-5.923664,2.061069,0.1526718,-34.96,-155.48,9.2
0.2949219,0.3337402,-0.8757324,-2.48855,-8.442748,1.450382,-34.96,-155.48,9.2
0.3840332,0.3288574,-0.8771973,8.320611,-1.259542,-0.5877862,-34.96,-155.48,9.2
0.3562012,0.3796387,-0.8691406,9.801527,15.06107,-2.442748,-33.12,-155.48,9.2
0.2529297,0.4157715,-0.8374023,-1.51145,11.77863,2.969466,-33.12,-155.48,9.2
0.2646484,0.371582,-0.8703613,-10.73282,-1.259542,0.7557252,-34.04,-155.48,8.28
0.3347168,0.2932129,-0.8818359,-2.244275,-0.4961832,-1.946565,-34.04,-155.48,8.28
0.3325195,0.3249512,-0.8740234,11.31298,6.89313,-1.465649,-34.04,-155.48,8.28
0.3044434,0.40625,-0.8579102,11.77863,4.541985,0.3664122,-33.12,-155.48,9.2
0.2995605,0.4282227,-0.8632813,-2.160305,7.877862,0.7328244,-33.12,-155.48,9.2
0.2924805,0.3728027,-0.8806152,-10.70229,5.755725,-2.694656,-33.12,-155.48,9.2
0.2990723,0.2961426,-0.8608398,-0.832061,3.610687,4.076336,-34.04,-155.48,9.2
0.3286133,0.3347168,-0.8781738,13.15267,1.618321,5.38168,-34.04,-155.48,9.2
0.3120117,0.401123,-0.8623047,-6.183206,-0.480916,-2.038168,-34.04,-155.48,9.2
0.3449707,0.3583984,-0.8713379,-3.633588,6.923664,1.778626,-34.04,-155.48,9.2
0.2878418,0.3312988,-0.8696289,-0.1832061,11.31298,-1.610687,-34.04,-155.48,9.2
0.2810059,0.3417969,-0.8671875,8.908397,-1.251908,0.1145038,-34.04,-155.48,9.2
0.3288574,0.4333496,-0.9104004,5.854962,5.328244,-4.396946,-34.04,-155.48,9.2
0.2866211,0.3989258,-0.8635254,-6.80916,4.076336,-1.427481,-34.04,-155.48,9.2
0.3269043,0.3439941,-0.8837891,-2.381679,1.290076,-2.732824,-34.04,-155.48,9.2
0.3410645,0.3483887,-0.8813477,6.946565,7.770992,-2.885496,-34.04,-155.48,9.2
0.2792969,0.3928223,-0.8442383,1.687023,5.70229,-1.793893,-34.04,-155.48,9.2
0.2980957,0.3693848,-0.8671875,-7.21374,1.664122,-1.022901,-34.04,-155.48,9.2
0.340332,0.3369141,-0.8666992,1.396947,2.030534,2.717557,-34.04,-155.48,9.2
0.3266602,0.3955078,-0.8752441,5.725191,8.80916,-2.748092,-34.04,-155.48,9.2
0.2783203,0.4008789,-0.8862305,-5.114504,8.496183,-4.40458,-34.04,-154.56,9.2
0.276123,0.3378906,-0.8759766,0.7022901,0.2061069,0.1068702,-34.04,-154.56,9.2
0.3239746,0.3742676,-0.871582,5.366412,-1.824428,-1.526718,-34.04,-154.56,9.2
0.3359375,0.3608398,-0.8393555,0.5038168,4.854962,3.916031,-33.12,-155.48,9.2
0.3186035,0.3789063,-0.9035645,2.900763,9.106871,-3.351145,-33.12,-155.48,9.2
0.2956543,0.371582,-0.8857422,7.854962,5.038168,-4.778626,-34.04,-155.48,9.2
0.2905273,0.4094238,-0.8535156,3.419847,-0.7251908,2.0,-34.04,-155.48,9.2
0.3344727,0.3962402,-0.8588867,-4.91603,-1.10687,0.6183206,-34.04,-155.48,9.2
0.3823242,0.3444824,-0.8630371,-4.557252,8.641221,3.099237,-34.04,-155.48,9.2
0.2976074,0.3408203,-0.8798828,-1.587786,16.86259,-2.503817,-34.04,-155.48,9.2
0.2216797,0.394043,-0.8762207,4.503817,6.167939,-3.709924,-34.04,-155.48,9.2
0.2827148,0.3676758,-0.854248,-3.48855,-8.030535,7.114504,-34.04,-155.48,10.12
0.3759766,0.3215332,-0.890625,0.3587786,2.793893,1.534351,-34.04,-155.48,10.12
0.3254395,0.3740234,-0.8833008,9.083969,10.72519,-6.48855,-34.04,-154.56,10.12
0.263916,0.4267578,-0.8481445,2.099237,4.022901,-0.3053435,-34.04,-154.56,10.12
0.3129883,0.3720703,-0.8571777,-4.351145,-3.435115,1.793893,-34.04,-154.56,10.12
0.362793,0.3305664,-0.8503418,3.923664,2.022901,3.0,-33.12,-155.48,10.12
0.3442383,0.371582,-0.8728027,8.251908,10.75572,2.129771,-33.12,-155.48,10.12
0.2651367,0.4187012,-0.864502,-1.206107,11.51908,-3.717557,-33.12,-155.48,10.12
0.2595215,0.3745117,-0.8791504,-6.183206,-1.412214,3.0,-34.04,-155.48,10.12
0.3222656,0.3195801,-0.8720703,1.572519,-5.717557,5.38168,-34.04,-155.48,10.12
0.3706055,0.3586426,-0.8520508,13.39695,3.19084,0.2900764,-34.04,-155.48,10.12
0.3068848,0.4304199,-0.8552246,-0.4503817,12.24428,-2.419847,-34.04,-155.48,10.12
0.2541504,0.3852539,-0.8613281,-9.748092,4.748092,-0.3435115,-34.04,-155.48,10.12
0.302002,0.3027344,-0.8642578,3.435115,-2.076336,5.114504,-34.04,-155.48,10.12
0.3676758,0.3588867,-0.8952637,13.72519,1.51145,-0.7557252,-34.04,-155.48,10.12
0.3115234,0.4438477,-0.8640137,5.549618,11.76336,-3.946565,-34.04,-155.48,10.12
0.2583008,0.4023438,-0.8552246,-11.07634,3.977099,2.885496,-34.04,-155.48,9.2
0.2978516,0.3017578,-0.8623047,-4.923664,-3.351145,2.725191,-34.04,-155.48,9.2
0.3574219,0.3408203,-0.887207,12.84733,0.5648855,-5.961832,-34.04,-155.48,9.2
0.3408203,0.4091797,-0.8266602,11.27481,7.694656,2.290076,-33.12,-155.48,10.12
0.3027344,0.434082,-0.8876953,-5.160306,12.56489,-2.625954,-33.12,-155.48,10.12
0.2561035,0.3601074,-0.8918457,-7.61832,6.229008,-3.099237,-34.04,-155.48,9.2
0.3139648,0.2868652,-0.8493652,5.793893,-6.91603,8.664123,-34.04,-155.48,9.2
0.375,0.3752441,-0.8952637,17.56489,6.282443,-2.236641,-34.04,-155.48,9.2
0.2868652,0.4421387,-0.838623,5.244275,14.50382,1.503817,-34.04,-155.48,9.2
0.2695313,0.3991699,-0.8710938,-9.022901,-0.129771,1.045802,-34.04,-155.48,9.2
0.3544922,0.3288574,-0.894043,0.1603053,1.465649,0.7099237,-34.04,-155.48,9.2
0.3105469,0.3518066,-0.8615723,6.129771,8.755725,0.02290076,-34.04,-155.48,10.12
0.2814941,0.3952637,-0.8566895,7.603054,5.061069,0.2748091,-34.04,-155.48,10.12
0.3312988,0.4040527,-0.8779297,-0.832061,2.045802,0.9236641,-34.04,-155.48,9.2
0.2629395,0.3435059,-0.875,5.51145,3.389313,0.6030535,-34.04,-154.56,10.12
0.277832,0.3786621,-0.8493652,6.274809,-3.198473,-0.519084,-34.04,-154.56,10.12
0.3620605,0.3720703,-0.8530273,4.557252,-3.427481,2.725191,-34.04,-154.56,10.12
0.364502,0.3706055,-0.8815918,4.603054,13.35114,-0.6030535,-33.12,-155.48,9.2
0.2756348,0.387207,-0.8391113,4.961832,10.32061,0.6030535,-33.12,-155.48,9.2
0.2868652,0.4025879,-0.887207,-3.48855,2.80916,-1.396947,-33.12,-155.48,9.2
0.3134766,0.3552246,-0.8786621,-2.923664,1.29771,0.01526718,-34.04,-155.48,10.12
0.3007813,0.3522949,-0.8747559,4.442748,6.030534,-0.6335878,-34.04,-155.48,10.12
0.2939453,0.3852539,-0.8688965,5.007634,0.5496183,-0.8778625,-34.04,-155.48,10.12
0.3374023,0.3928223,-0.871582,-0.9312977,0.9694656,1.030534,-34.04,-155.48,9.2
0.3352051,0.3759766,-0.8718262,-3.206107,7.770992,-1.167939,-34.04,-155.48,9.2
0.2912598,0.3452148,-0.8320313,2.839695,6.824428,-0.02290076,-34.96,-155.48,9.2
0.3220215,0.3615723,-0.8745117,2.328244,3.038168,1.824428,-34.96,-155.48,9.2
0.3330078,0.3735352,-0.8864746,1.832061,8.206107,-0.610687,-34.96,-155.48,9.2
0.2849121,0.4106445,-0.8894043,2.160305,12.05344,-3.961832,-34.96,-155.48,9.2
0.2661133,0.4052734,-0.9035645,-6.763359,4.40458,-7.671756,-34.96,-155.48,9.2
0.3510742,0.2758789,-0.8447266,3.091603,-4.358778,5.21374,-34.96,-155.48,9.2
0.3618164,0.3632813,-0.904541,12.15267,11.49618,-3.992366,-34.96,-155.48,11.96
0.2414551,0.4260254,-0.8244629,5.78626,10.93893,-2.870229,-34.96,-155.48,11.96
0.3098145,0.3945313,-0.8640137,-8.687023,-8.183207,5.587786,-34.96,-155.48,10.12
0.3901367,0.3349609,-0.9130859,-1.763359,6.053435,-2.160305,-34.96,-155.48,10.12
0.2712402,0.3435059,-0.8508301,4.839694,12.94656,-3.083969,-34.96,-155.48,10.12
0.2749023,0.3857422,-0.8518066,8.19084,-5.824428,1.931298,-34.96,-154.56,10.12
0.3549805,0.4191895,-0.8935547,-0.3969466,0.1526718,-1.885496,-34.96,-154.56,10.12
0.3195801,0.3701172,-0.8581543,-6.526718,9.297709,-0.7709923,-34.96,-154.56,10.12
0.279541,0.333252,-0.8596191,2.198473,3.900763,2.748092,-34.04,-155.48,10.12
0.309082,0.3666992,-0.8742676,7.145038,1.770992,-1.229008,-34.04,-155.48,10.12
0.34375,0.3703613,-0.857666,5.244275,1.89313,1.954198,-34.96,-155.48,10.12
0.3320313,0.4064941,-0.8901367,3.038168,11.32061,-4.877862,-34.96,-155.48,10.12
0.2651367,0.3964844,-0.8369141,-2.801527,5.351145,-2.229008,-34.96,-155.48,10.12
0.3063965,0.3491211,-0.8479004,-6.671756,-1.641221,5.29771,-34.96,-155.48,10.12
0.3469238,0.3134766,-0.8793945,3.335878,4.183206,3.099237,-34.96,-155.48,10.12
0.3015137,0.3823242,-0.9001465,8.648855,10.45038,-3.877863,-34.96,-155.48,10.12
0.2700195,0.4001465,-0.8486328,0.3816794,-2.381679,1.80916,-34.96,-155.48,10.12
0.3322754,0.3706055,-0.8549805,-1.870229,-3.59542,3.045802,-34.96,-155.48,10.12
0.3588867,0.342041,-0.8505859,5.824428,4.351145,-0.2366412,-34.04,-155.48,10.12
0.3310547,0.3664551,-0.8605957,7.816794,10.00763,-2.427481,-34.04,-155.48,10.12
0.2993164,0.4199219,-0.8793945,-0.8473283,10.12977,-1.618321,-34.04,-155.48,10.12
0.2709961,0.3864746,-0.8713379,-11.61832,6.671756,0.1374046,-34.96,-154.56,10.12
0.3032227,0.3041992,-0.8974609,-0.4198473,1.320611,2.053435,-34.96,-154.56,10.12
0.3254395,0.3452148,-0.8564453,16.79389,2.450382,4.076336,-34.96,-154.56,10.12
0.3173828,0.4443359,-0.8366699,4.946565,4.725191,2.267176,-34.96,-155.48,10.12
0.3422852,0.3925781,-0.8754883,-5.610687,4.992366,-2.465649,-34.96,-155.48,10.12
0.3139648,0.3664551,-0.871582,-0.351145,8.328244,-0.8091603,-34.96,-155.48,10.12
0.2885742,0.3581543,-0.8273926,-2.931298,2.625954,-0.648855,-34.96,-155.48,10.12
0.3171387,0.3405762,-0.8691406,-0.5419847,4.427481,1.78626,-34.96,-155.48,10.12
0.3017578,0.3549805,-0.8706055,5.374046,7.717557,2.59542,-34.96,-155.48,11.04
0.2927246,0.3815918,-0.8557129,4.183206,0.4351145,-0.4122138,-34.96,-155.48,11.04
0.3486328,0.401123,-0.8891602,3.48855,3.870229,-1.641221,-34.96,-155.48,11.04
0.3034668,0.3737793,-0.845459,-4.824428,7.29771,-0.09160305,-34.04,-155.48,10.12
0.322998,0.348877,-0.8554688,1.083969,0.4274809,-1.053435,-34.04,-155.48,10.12
0.2570801,0.3779297,-0.8408203,0.4732824,-1.206107,4.671756,-34.96,-155.48,10.12
0.3608398,0.3583984,-0.8759766,3.78626,-3.160305,2.793893,-34.96,-155.48,10.12
0.3649902,0.378418,-0.8723145,5.122138,11.26718,-2.259542,-34.96,-155.48,10.12
0.2817383,0.3969727,-0.8586426,0.480916,10.21374,-3.816794,-34.96,-155.48,10.12
0.2856445,0.3867188,-0.8813477,-1.534351,-0.5725191,-0.6564885,-34.96,-155.48,10.12
0.3486328,0.3647461,-0.862793,2.320611,0.7938931,3.10687,-34.96,-155.48,10.12
0.3161621,0.362793,-0.8691406,-0.6641222,12.61069,-0.3053435,-34.96,-155.48,10.12
0.2548828,0.3444824,-0.8496094,7.335878,5.519084,2.030534,-34.96,-154.56,10.12
0.3354492,0.3789063,-0.845459,13.14504,-9.099236,7.0,-34.96,-154.56,10.12
0.390625,0.4353027,-0.8820801,0.961832,9.244275,-1.473282,-34.96,-154.56,10.12
0.2878418,0.3740234,-0.8535156,-9.80916,14.76336,-0.5801527,-34.04,-155.48,10.12
0.2685547,0.3232422,-0.8793945,-1.167939,0.7251908,1.465649,-34.04,-155.48,10.12
0.3125,0.3427734,-0.8581543,10.84733,-2.541985,0.9160305,-34.96,-155.48,11.04
0.3300781,0.3837891,-0.8188477,7.167939,0.2977099,3.580153,-34.96,-155.48,11.04
0.3674316,0.3952637,-0.8864746,0.2366412,9.045801,-2.030534,-34.96,-155.48,11.04
0.3000488,0.3632813,-0.8862305,1.412214,12.61069,-2.053435,-34.96,-155.48,10.12
0.2619629,0.3754883,-0.8625488,1.335878,0.2519084,0.870229,-34.96,-155.48,10.12
0.3349609,0.3649902,-0.8708496,8.633588,-2.396947,-0.4885496,-34.96,-155.48,10.12
0.3737793,0.3745117,-0.8601074,5.374046,5.740458,3.328244,-34.96,-155.48,10.12
0.3024902,0.3891602,-0.8623047,0.832061,11.65649,-1.145038,-34.96,-155.48,10.12
0.2675781,0.3913574,-0.8562012,0.4885496,5.664122,-3.541985,-34.96,-155.48,10.12
0.3195801,0.3620605,-0.8852539,-4.687023,-0.5801527,4.48855,-34.96,-155.48,10.12
0.3342285,0.3525391,-0.8903809,2.442748,6.221374,-3.435115,-34.96,-155.48,10.12
0.3034668,0.3603516,-0.8405762,5.59542,4.954198,1.89313,-34.96,-154.56,10.12
0.3127441,0.385498,-0.857666,1.183206,1.854962,0.08396947,-34.96,-154.56,10.12
0.3244629,0.3728027,-0.8603516,1.656489,1.229008,-1.854962,-34.96,-154.56,10.12
0.329834,0.3894043,-0.845459,-0.8396947,3.954198,-0.1374046,-34.96,-155.48,10.12
0.3354492,0.3710938,-0.8808594,-3.946565,9.725191,-1.221374,-34.96,-155.48,10.12
0.2792969,0.3366699,-0.8720703,0.007633588,6.0,-0.9770992,-34.96,-154.56,11.04
0.284668,0.3781738,-0.8852539,8.396947,0.09923664,-1.114504,-34.96,-154.56,11.04
0.3205566,0.401123,-0.873291,3.748092,-0.6259542,-2.366412,-34.96,-154.56,11.04
0.3295898,0.3930664,-0.8400879,-2.351145,5.358778,1.458015,-34.96,-155.48,10.12
0.3127441,0.3249512,-0.8452148,-5.748092,3.954198,1.519084,-34.96,-155.48,10.12
0.3388672,0.3334961,-0.8952637,12.03817,5.503817,-3.465649,-34.96,-155.48,10.12
0.3232422,0.4265137,-0.876709,11.35878,5.328244,-3.687023,-34.04,-155.48,10.12
0.2875977,0.4187012,-0.8413086,-6.648855,4.29771,2.603053,-34.04,-155.48,10.12
0.3166504,0.3337402,-0.8835449,-7.21374,1.221374,-0.6412213,-34.04,-155.48,10.12
0.3371582,0.3337402,-0.8845215,8.442748,6.129771,-3.778626,-34.04,-155.48,10.12
0.2949219,0.4064941,-0.8393555,5.38168,7.061069,0.7480916,-34.04,-155.48,10.12
0.3032227,0.3601074,-0.8337402,-1.442748,1.160305,7.030534,-34.96,-155.48,10.12
0.3361816,0.340332,-0.875,1.076336,4.152672,1.51145,-34.96,-155.48,10.12
0.3054199,0.362793,-0.9008789,9.870229,10.37405,-7.167939,-34.96,-155.48,10.12
0.260498,0.4060059,-0.8554688,8.587787,0.8015267,0.3435115,-34.96,-155.48,10.12
0.3337402,0.385498,-0.8422852,2.10687,-6.236641,6.358778,-34.96,-155.48,10.12
0.3862305,0.3669434,-0.8728027,-1.961832,6.541985,-1.694656,-34.96,-155.48,10.12
0.3271484,0.3625488,-0.8632813,2.091603,12.98473,-1.931298,-34.04,-155.48,9.2
0.2407227,0.387207,-0.8894043,-5.251908,10.48855,-3.916031,-34.04,-155.48,9.2
0.2543945,0.3466797,-0.8691406,0.7557252,-4.312977,-1.908397,-34.96,-155.48,10.12
0.3742676,0.3322754,-0.8637695,8.862596,-7.816794,2.755725,-34.96,-155.48,10.12
0.3898926,0.416748,-0.8681641,10.21374,11.16794,-8.007633,-34.96,-155.48,10.12
0.2895508,0.440918,-0.8969727,-4.801527,18.27481,-5.870229,-34.04,-155.48,9.2
0.3312988,0.3178711,-0.8381348,9.389313,1.885496,3.900763,-34.04,-155.48,10.12
0.309082,0.402832,-0.8881836,9.198473,10.90076,-9.877863,-34.04,-155.48,10.12
0.2578125,0.4082031,-0.8337402,-1.122137,0.2213741,-0.778626,-34.04,-155.48,10.12
0.3532715,0.3486328,-0.8493652,-4.496183,-6.137404,3.80916,-34.96,-155.48,9.2
0.3981934,0.3366699,-0.9047852,6.480916,12.32824,0.03816794,-34.96,-155.48,9.2
0.244873,0.4133301,-0.8737793,1.328244,17.45038,-3.770992,-34.96,-155.48,9.2
0.2402344,0.3771973,-0.8376465,0.740458,-7.022901,3.251908,-34.96,-155.48,9.2
0.4157715,0.3374023,-0.8903809,4.908397,-5.282443,2.541985,-34.96,-155.48,9.2
0.3620605,0.4060059,-0.8725586,8.488549,21.83969,-7.694656,-34.04,-156.4,9.2
0.232666,0.4182129,-0.8369141,-6.030534,9.770992,-2.824427,-34.04,-156.4,9.2
0.2927246,0.3361816,-0.8798828,-5.167939,-6.328244,2.938931,-34.04,-156.4,9.2
0.3535156,0.3303223,-0.8969727,7.137404,5.21374,-2.389313,-34.96,-155.48,10.12
0.2814941,0.3879395,-0.8459473,3.908397,9.450381,-2.312977,-34.96,-155.48,10.12
0.2900391,0.3728027,-0.8564453,-6.763359,-1.564886,1.351145,-34.96,-155.48,9.2
0.3508301,0.3156738,-0.875,2.625954,1.221374,5.412214,-34.96,-155.48,9.2
0.3029785,0.3613281,-0.8574219,12.19084,8.19084,-4.70229,-34.96,-155.48,9.2
0.2875977,0.4057617,-0.8347168,3.099237,-2.885496,4.793893,-34.04,-155.48,8.28
0.3894043,0.3701172,-0.8625488,0.3587786,-1.587786,5.725191,-34.04,-155.48,8.28
0.361084,0.3735352,-0.8879395,3.099237,18.71756,1.335878,-34.04,-155.48,8.28
0.2316895,0.4047852,-0.8806152,-1.717557,14.36641,-5.480916,-34.96,-155.48,8.28
0.2490234,0.3583984,-0.8334961,-6.580153,-10.53435,7.854962,-34.96,-155.48,8.28
0.3869629,0.3259277,-0.90625,-0.5877862,-1.580153,1.625954,-34.04,-155.48,9.2
0.342041,0.340332,-0.8566895,9.099236,11.90076,0.05343511,-34.04,-155.48,9.2
0.2578125,0.4025879,-0.8117676,8.419847,3.748092,2.969466,-34.04,-155.48,9.2
0.3320313,0.4245605,-0.8757324,-4.167939,-3.030534,-0.05343511,-34.04,-155.48,9.2
0.3701172,0.3447266,-0.880127,-3.839695,8.580153,-1.251908,-34.04,-155.48,9.2
0.3071289,0.3347168,-0.8666992,4.38168,9.717557,0.2977099,-34.04,-155.48,9.2
0.28125,0.3720703,-0.8684082,7.870229,5.534351,0.4656488,-34.96,-155.48,9.2
0.2983398,0.4101563,-0.8818359,0.961832,2.328244,-1.679389,-34.96,-155.48,9.2
0.314209,0.392334,-0.857666,-6.603054,3.114504,0.1832061,-34.96,-155.48,9.2
0.3256836,0.3261719,-0.8706055,-0.9160305,6.549618,-0.740458,-34.96,-155.48,9.2
0.3056641,0.3342285,-0.864502,9.664123,5.045802,-0.7328244,-34.96,-155.48,9.2
0.3227539,0.3974609,-0.8493652,10.39695,-0.1755725,1.244275,-34.96,-155.48,9.2
0.3344727,0.4372559,-0.9262695,-10.45038,10.01527,-4.885496,-34.96,-155.48,9.2
0.3151855,0.3190918,-0.8830566,1.40458,5.442748,-0.6564885,-34.96,-155.48,9.2
0.3127441,0.3254395,-0.8312988,11.91603,-0.3816794,9.656488,-34.96,-155.48,10.12
0.3081055,0.4094238,-0.8415527,6.068702,7.007634,-3.78626,-34.96,-155.48,10.12
0.3234863,0.3781738,-0.8544922,-0.1374046,4.007634,-0.5648855,-34.96,-155.48,10.12
0.3378906,0.3476563,-0.8603516,0.6183206,4.08397,6.259542,-34.96,-155.48,9.2
0.3222656,0.3720703,-0.911377,2.618321,11.51145,-5.038168,-34.96,-155.48,9.2
0.2697754,0.4018555,-0.8740234,-1.770992,5.977099,-0.9541985,-34.96,-155.48,9.2
0.3015137,0.3305664,-0.8654785,1.259542,-5.526718,8.625955,-34.96,-155.48,9.2
0.3225098,0.3696289,-0.8842773,8.893129,1.435114,-2.022901,-34.96,-155.48,9.2
0.3374023,0.3791504,-0.8244629,5.030534,-1.832061,0.9160305,-34.96,-155.48,9.2
0.3967285,0.3566895,-0.8674316,2.419847,6.725191,5.076336,-34.96,-155.48,9.2
0.2910156,0.4052734,-0.9069824,0.4274809,18.38931,-5.549618,-35.88,-155.48,8.28
0.2387695,0.3835449,-0.8295898,-3.259542,-5.114504,2.656489,-35.88,-155.48,8.28
0.3696289,0.3442383,-0.8740234,-2.770992,-5.534351,4.755725,-35.88,-155.48,8.28
0.3771973,0.342041,-0.8996582,4.137404,16.81679,-9.083969,-34.04,-155.48,9.2
0.2250977,0.3911133,-0.8544922,1.198473,10.50382,-2.335878,-34.04,-155.48,9.2
0.2746582,0.3806152,-0.84375,-1.625954,-9.450381,4.419847,-34.04,-155.48,9.2
0.3933105,0.3366699,-0.8696289,-2.312977,0.7633588,3.419847,-34.96,-155.48,9.2
0.2924805,0.439209,-0.8669434,0.8473283,3.068702,-3.381679,-34.96,-155.48,9.2
0.3273926,0.3850098,-0.8691406,-6.519084,4.450382,-3.007634,-34.96,-155.48,9.2
0.3222656,0.3381348,-0.871582,-4.129771,7.541985,-1.48855,-34.96,-155.48,9.2
0.3017578,0.317627,-0.8374023,5.458015,3.847328,1.236641,-34.96,-155.48,10.12
0.3056641,0.3830566,-0.8967285,5.343512,4.664122,-2.099237,-34.96,-155.48,10.12
0.2873535,0.4179688,-0.8793945,4.061069,2.541985,-4.679389,-34.96,-155.48,9.2
0.3139648,0.4150391,-0.8828125,-5.732824,-3.160305,-2.122137,-34.96,-155.48,9.2
0.3762207,0.3210449,-0.8632813,-2.908397,0.6870229,0.7328244,-34.96,-155.48,9.2
0.3151855,0.3383789,-0.8591309,5.748092,12.51145,-3.755725,-34.96,-155.48,10.12
0.2805176,0.3945313,-0.8308105,5.435114,-1.534351,-3.389313,-34.96,-155.48,10.12
0.3688965,0.3635254,-0.8898926,-0.7022901,2.679389,5.70229,-34.96,-155.48,10.12
0.3432617,0.3625488,-0.9204102,8.748092,17.43511,-5.236641,-34.96,-155.48,8.28
0.2104492,0.3796387,-0.84375,3.984733,4.572519,1.89313,-34.96,-155.48,8.28
0.3383789,0.3806152,-0.8862305,6.625954,-11.9084,2.648855,-34.96,-155.48,9.2
0.4262695,0.357666,-0.8366699,4.328244,6.648855,6.206107,-34.96,-155.48,9.2
0.2976074,0.421875,-0.8662109,-8.106871,22.14504,-3.48855,-34.96,-155.48,9.2
0.213623,0.3596191,-0.8640137,-5.931298,0.8854962,-2.534351,-35.88,-155.48,9.2
0.3249512,0.3249512,-0.8881836,-0.03053435,-8.923664,0.8473283,-35.88,-155.48,9.2
0.4050293,0.3317871,-0.9082031,12.68702,4.847328,-2.48855,-35.88,-155.48,9.2
0.2683105,0.4135742,-0.869873,8.389313,15.12977,-4.557252,-34.04,-155.48,9.2
0.2419434,0.4223633,-0.8310547,-1.854962,-8.717557,-0.6793893,-34.04,-155.48,9.2
0.423584,0.3356934,-0.8337402,-7.435114,-7.221374,7.648855,-34.04,-155.48,9.2
0.4172363,0.3540039,-0.920166,-0.2137404,25.9771,-4.458015,-34.04,-155.48,9.2
0.203125,0.3903809,-0.8735352,6.984733,19.25191,-4.656488,-34.04,-155.48,9.2
0.2104492,0.3942871,-0.8479004,-1.282443,-11.19084,4.51145,-35.88,-155.48,9.2
0.3979492,0.359375,-0.9082031,-3.251908,-6.61832,-3.80916,-35.88,-155.48,9.2
0.3713379,0.3134766,-0.8291016,5.954198,9.442748,2.564885,-35.88,-155.48,9.2
0.2709961,0.3669434,-0.8369141,4.022901,11.9771,0.2824428,-34.04,-155.48,9.2
0.3095703,0.3686523,-0.8493652,10.74046,-2.312977,3.641221,-34.04,-155.48,9.2
0.3552246,0.4472656,-0.9060059,-1.358779,10.05344,-2.419847,-34.04,-155.48,9.2
0.2978516,0.3630371,-0.8830566,-4.946565,11.27481,-6.068702,-34.04,-155.48,9.2
0.2644043,0.3237305,-0.8586426,0.08396947,-0.7862596,0.7862596,-34.04,-155.48,9.2
0.3427734,0.3354492,-0.859375,12.9542,-3.709924,1.167939,-34.04,-155.48,9.2
0.3823242,0.40625,-0.8728027,12.32061,8.458015,-2.022901,-34.04,-155.48,9.2
0.2973633,0.4372559,-0.8569336,1.343511,13.25191,0.3587786,-34.04,-155.48,9.2
0.2495117,0.3898926,-0.8681641,-12.34351,0.9083969,-0.9007633,-34.96,-155.48,8.28
0.347168,0.3320313,-0.8991699,-1.984733,-2.59542,-4.442748,-34.96,-155.48,8.28
0.3527832,0.3146973,-0.8557129,10.41221,7.526718,2.198473,-34.96,-155.48,8.28
0.2941895,0.3825684,-0.8195801,8.335877,6.267176,2.793893,-34.04,-155.48,8.28
0.3310547,0.4694824,-0.9018555,-5.10687,6.694656,-5.679389,-34.04,-155.48,8.28
0.3022461,0.3442383,-0.8913574,-11.60305,10.48092,-2.236641,-34.96,-155.48,9.2
0.2900391,0.2478027,-0.8652344,8.977099,-3.251908,7.557252,-34.96,-155.48,9.2
0.3312988,0.3391113,-0.8325195,19.20611,-3.89313,5.603054,-34.96,-155.48,9.2
0.3442383,0.4445801,-0.8803711,14.21374,7.541985,-8.946565,-34.04,-156.4,8.28
0.3012695,0.4682617,-0.848877,-5.038168,4.900764,-4.221374,-34.04,-156.4,8.28
0.3498535,0.3789063,-0.8688965,-17.1145,2.664122,0.8549618,-34.04,-156.4,8.28
0.3413086,0.2822266,-0.9162598,-9.38168,17.77863,-7.0,-34.96,-155.48,8.28
0.2243652,0.3200684,-0.8649902,11.83969,8.519084,-4.961832,-34.96,-155.48,8.28
0.2858887,0.3864746,-0.8308105,13.78626,-12.96183,4.473282,-34.96,-155.48,9.2
0.4121094,0.4289551,-0.8840332,5.755725,4.366412,-1.625954,-34.96,-155.48,9.2
0.326416,0.4074707,-0.8491211,-9.030535,17.03817,-4.076336,-34.96,-155.48,9.2
0.2790527,0.329834,-0.875,-8.274809,3.824427,-1.030534,-34.96,-155.48,8.28
