ax,ay,az,gx,gy,gz,mx,my,mz
-0.6606445,-0.2783203,-0.7382813,30.30534,15.40458,-1.610687,108.56,-110.4,-8.28
-0.638916,-0.2998047,-0.7556152,47.34351,29.9313,-7.603054,108.56,-110.4,-8.28
-0.5644531,-0.265625,-0.8720703,35.62595,26.47328,32.64122,111.32,-109.48,-14.72
-0.5622559,-0.2561035,-0.8669434,34.67939,21.54962,41.96183,108.56,-112.24,-14.72
-0.5532227,-0.2536621,-0.9050293,25.16031,17.40458,45.63359,108.56,-112.24,-14.72
-0.5119629,-0.2973633,-0.9416504,25.03053,19.68702,48.99237,106.72,-114.08,-12.88
-0.4748535,-0.2770996,-0.9519043,21.83206,19.16794,38.86259,106.72,-114.08,-12.88
-0.5061035,-0.2614746,-0.9450684,3.801527,0.03053435,43.45802,106.72,-114.08,-12.88
-0.5256348,-0.2053223,-0.972168,-10.0916,-10.8626,55.0916,103.04,-117.76,-9.2
-0.513916,-0.2329102,-0.9782715,-13.98473,-13.33588,57.73283,103.04,-117.76,-9.2
-0.5107422,-0.1811523,-0.9914551,-14.71756,-16.31298,46.52672,103.04,-117.76,-9.2
-0.5441895,-0.1323242,-1.018555,-21.16031,-12.22901,42.74046,98.44,-119.6,0.0
-0.588623,-0.07617188,-1.012695,-32.87786,-13.38931,47.96947,98.44,-119.6,0.0
-0.5812988,-0.05883789,-0.9919434,-36.64885,-24.12977,60.26717,95.68,-120.52,9.2
-0.5480957,-0.06274414,-0.9963379,-38.32824,-27.16794,62.87023,95.68,-120.52,9.2
-0.5048828,-0.08520508,-0.9824219,-40.10687,-26.0687,57.80153,95.68,-120.52,9.2
-0.5092773,-0.06201172,-0.9414063,-43.54198,-27.13741,49.16031,90.16,-119.6,20.24
-0.4816895,-0.03027344,-0.9313965,-45.27481,-25.80153,53.80153,90.16,-119.6,20.24
-0.456543,-0.07666016,-0.9069824,-48.26717,-24.56489,44.70229,90.16,-119.6,20.24
-0.4443359,-0.05273438,-0.8911133,-52.9771,-27.56489,27.83206,87.4,-116.84,30.36
-0.4597168,-0.03442383,-0.8769531,-61.32824,-21.54198,16.50382,87.4,-116.84,30.36
-0.4680176,-0.01391602,-0.8310547,-56.86259,-12.09924,7.664122,87.4,-116.84,30.36
-0.4675293,-0.005126953,-0.7854004,-47.72519,-12.18321,0.2977099,84.64,-114.08,36.8
-0.4746094,-0.01049805,-0.7792969,-46.37405,-7.572519,-2.78626,84.64,-114.08,36.8
-0.480957,-0.02099609,-0.769043,-54.16794,-4.29771,-14.67176,85.56001,-110.4,39.56
-0.4648438,-0.03662109,-0.7089844,-53.98473,5.656488,-20.29771,85.56001,-110.4,39.56
-0.4499512,-0.04541016,-0.6516113,-45.9542,17.51145,-31.17557,85.56001,-110.4,39.56
-0.4899902,-0.01586914,-0.5761719,-38.96183,12.33588,-37.64885,89.24,-109.48,38.64
-0.5253906,-0.01000977,-0.5708008,-30.0687,11.10687,-37.51908,89.24,-109.48,38.64
-0.5466309,-0.03320313,-0.5751953,-22.29771,12.40458,-41.60305,89.24,-109.48,38.64
-0.5544434,-0.06298828,-0.5620117,-11.08397,9.068703,-46.90076,92.92,-109.48,33.12
-0.5720215,-0.06494141,-0.5888672,-9.603053,6.51145,-49.48855,92.92,-109.48,33.12
-0.5754395,-0.09667969,-0.5769043,-4.244275,11.9542,-51.32061,97.52,-107.64,26.68
-0.5654297,-0.1333008,-0.552002,3.564885,11.19847,-59.00763,97.52,-107.64,26.68
-0.6279297,-0.1347656,-0.5637207,6.580153,5.541985,-69.9771,97.52,-107.64,26.68
-0.640625,-0.1425781,-0.5942383,18.64886,9.725191,-61.9084,102.12,-107.64,17.48
-0.6403809,-0.177002,-0.5883789,36.58015,16.92366,-65.68702,102.12,-107.64,17.48
-0.7182617,-0.1496582,-0.5991211,46.0,8.534351,-66.87786,102.12,-107.64,17.48
-0.7927246,-0.1398926,-0.6582031,44.47328,1.29771,-56.48092,108.56,-106.72,7.36
-0.7941895,-0.1369629,-0.7038574,48.08397,11.90076,-48.68702,108.56,-106.72,7.36
-0.7983398,-0.1508789,-0.6870117,39.87023,16.29008,-39.05344,113.16,-102.12,-1.84
-0.831543,-0.1225586,-0.708252,24.25191,7.167939,-27.28244,113.16,-102.12,-1.84
-0.8381348,-0.1582031,-0.7556152,26.25954,2.458015,-19.51145,113.16,-102.12,-1.84
-0.8356934,-0.1948242,-0.7700195,35.74046,12.38931,-15.79389,114.08,-103.04,-8.28
-0.8518066,-0.1933594,-0.7687988,31.99237,11.1374,-5.503817,114.08,-103.04,-8.28
-0.8354492,-0.1904297,-0.7626953,31.07634,12.68702,4.992366,114.08,-103.04,-8.28
-0.8081055,-0.1779785,-0.7905273,43.07634,15.34351,5.900764,114.08,-103.96,-11.04
-0.7993164,-0.1660156,-0.8051758,41.52672,14.64122,14.41221,114.08,-103.96,-11.04
-0.7692871,-0.1955566,-0.8122559,22.31298,9.534351,33.45038,115.0,-103.04,-10.12
-0.6984863,-0.2121582,-0.7851563,16.76336,2.877863,36.96947,115.0,-103.04,-10.12
-0.6848145,-0.1433105,-0.7978516,15.03053,-2.862595,35.70229,115.0,-103.04,-10.12
-0.732666,-0.1206055,-0.8354492,12.37405,-8.893129,48.05344,114.08,-103.04,-5.52
-0.7226563,-0.09936523,-0.8310547,7.328244,-4.389313,48.58015,112.24,-103.96,1.84
-0.7229004,-0.06616211,-0.8105469,7.78626,-6.89313,48.19847,112.24,-103.96,1.84
-0.720459,-0.03442383,-0.826416,5.59542,-10.03053,48.64122,112.24,-103.96,1.84
-0.7060547,-0.004394531,-0.8225098,3.496183,-14.79389,51.08397,109.48,-104.88,10.12
-0.6877441,0.005371094,-0.8261719,-0.6793893,-13.29008,55.67176,109.48,-104.88,10.12
-0.6933594,0.0,-0.8679199,-7.648855,-8.480916,56.79389,105.8,-104.88,20.24
-0.6640625,-0.03222656,-0.8916016,-11.19084,-4.068702,51.12977,105.8,-104.88,20.24
-0.6479492,-0.03662109,-0.8935547,-9.167939,-2.19084,45.61069,105.8,-104.88,20.24
-0.6357422,-0.02734375,-0.8935547,-16.29008,-2.183206,44.69466,101.2,-103.96,29.44
-0.6342773,-0.003173828,-0.8884277,-31.34351,-5.129771,44.74809,101.2,-103.96,29.44
-0.6196289,0.009033203,-0.8515625,-37.0229,-0.4503817,40.23664,101.2,-103.96,29.44
-0.6074219,0.02612305,-0.8115234,-42.59542,1.091603,33.45038,96.6,-103.96,36.8
-0.5913086,0.03564453,-0.7937012,-46.75573,2.59542,29.21374,96.6,-103.96,36.8
-0.5856934,0.04370117,-0.7844238,-50.68702,-4.59542,25.92366,92.0,-102.12,43.24
-0.5742188,0.03369141,-0.7714844,-49.27481,-3.244275,22.9313,92.0,-102.12,43.24
-0.5515137,0.02099609,-0.7524414,-49.31298,-1.19084,15.12214,92.0,-102.12,43.24
-0.5341797,0.04492188,-0.7004395,-51.79389,-2.847328,-1.267176,91.08,-99.36,47.84
-0.5444336,0.06420898,-0.6589355,-47.57252,-3.358779,-9.480916,91.08,-99.36,47.84
-0.5617676,0.06347656,-0.6687012,-43.9771,-2.870229,-7.091603,91.08,-99.36,47.84
-0.565918,0.05273438,-0.6677246,-47.82443,-2.290076,-9.580153,92.92,-95.68,48.76
-0.5769043,0.03833008,-0.640625,-45.41985,3.847328,-16.30534,92.92,-95.68,48.76
-0.567627,0.02709961,-0.59375,-36.16794,11.32061,-25.22137,94.76,-94.76,46.0
-0.5925293,0.01953125,-0.604248,-29.28244,11.48855,-32.55725,94.76,-94.76,46.0
-0.6352539,0.02368164,-0.625,-28.0,6.664122,-34.71756,94.76,-94.76,46.0
-0.6518555,0.008789063,-0.6108398,-32.63359,5.427481,-37.59542,98.44,-93.84,40.48
-0.6569824,0.008544922,-0.588623,-29.31298,7.969466,-39.42748,98.44,-93.84,40.48
-0.6904297,-0.002929688,-0.5651855,-28.61069,6.068702,-46.1832,98.44,-93.84,40.48
-0.7172852,0.01367188,-0.5554199,-25.18321,14.9084,-47.0687,103.04,-94.76,34.04
-0.701416,0.009033203,-0.5212402,-20.18321,22.48855,-47.9542,103.04,-94.76,34.04
-0.7070313,-0.006103516,-0.4907227,-11.78626,22.90076,-49.09924,106.72,-95.68,27.6
-0.6972656,-0.008544922,-0.4855957,4.045802,20.67939,-49.71756,106.72,-95.68,27.6
-0.7363281,0.02709961,-0.4780273,12.58779,21.87786,-51.54962,106.72,-95.68,27.6
-0.7470703,0.04077148,-0.473877,18.14504,21.87786,-43.32824,110.4,-96.6,20.24
-0.7387695,-0.005126953,-0.5083008,26.92366,18.99237,-36.15267,110.4,-96.6,20.24
-0.7790527,-0.05151367,-0.5925293,36.59542,8.885496,-32.72519,110.4,-96.6,20.24
-0.8029785,-0.08422852,-0.7026367,40.32061,14.73282,-28.20611,113.16,-95.68,13.8
-0.824707,-0.1069336,-0.720459,34.48092,32.49618,-28.22137,113.16,-95.68,13.8
-0.8325195,-0.06616211,-0.666748,20.01527,31.61069,-26.16794,115.0,-95.68,9.2
-0.8537598,-0.06201172,-0.637207,39.20611,30.15267,-22.16794,115.0,-95.68,9.2
-0.8520508,-0.04296875,-0.6762695,46.13741,31.79389,-10.87023,115.0,-95.68,9.2
-0.8789063,-0.05249023,-0.6970215,36.78626,24.9771,-0.7938931,115.0,-99.36,3.68
-0.8852539,-0.04833984,-0.6879883,37.14504,16.07634,7.755725,115.0,-99.36,3.68
-0.8723145,-0.02905273,-0.7294922,41.21374,12.32824,10.0229,115.0,-99.36,3.68
-0.8452148,-0.02856445,-0.7199707,36.1832,11.29008,17.51145,114.08,-101.2,1.84
-0.8198242,-0.04077148,-0.71875,35.44275,0.04580153,23.74046,114.08,-101.2,1.84
-0.8168945,-0.02587891,-0.7565918,37.06107,-4.603054,30.12214,114.08,-101.2,1.84
-0.7995605,-0.06054688,-0.7663574,41.20611,-3.885496,34.15267,112.24,-102.12,4.6
-0.7773438,-0.04785156,-0.7700195,32.99237,-6.557252,27.61832,112.24,-102.12,4.6
-0.7954102,0.02954102,-0.7668457,22.87786,-23.79389,29.90076,111.32,-101.2,11.04
-0.7941895,0.06958008,-0.8007813,4.847328,-46.54198,45.9542,110.4,-97.52,19.32
-0.782959,0.05419922,-0.7910156,9.572519,-35.57252,41.0,110.4,-97.52,19.32
-0.78125,0.05395508,-0.7727051,14.44275,-27.26718,33.27481,110.4,-97.52,19.32
-0.7646484,0.06225586,-0.776123,10.96947,-31.37405,34.38931,108.56,-94.76,27.6
-0.7626953,0.05957031,-0.7687988,7.229008,-25.83969,46.48092,108.56,-94.76,27.6
-0.6855469,0.009033203,-0.779541,8.938931,-14.65649,44.1145,108.56,-94.76,27.6
-0.684082,0.01391602,-0.7128906,7.19084,-8.480916,36.56488,106.72,-90.16,36.8
-0.7087402,0.04541016,-0.6928711,-1.274809,-8.099236,38.96947,106.72,-90.16,36.8
-0.7233887,0.03833008,-0.6975098,-3.648855,2.396947,41.05344,102.12,-90.16,43.24
-0.7478027,0.09472656,-0.6401367,-8.969465,6.740458,39.60305,102.12,-90.16,43.24
-0.734375,0.1181641,-0.6333008,-3.59542,11.19084,37.82443,102.12,-90.16,43.24
-0.7641602,0.1091309,-0.6477051,-6.48855,8.061069,33.87023,98.44,-90.16,47.84
-0.7900391,0.1450195,-0.651123,-15.1374,-2.351145,34.9313,98.44,-90.16,47.84
-0.7529297,0.1494141,-0.6660156,-15.94656,-3.534351,33.35115,98.44,-90.16,47.84
-0.7509766,0.1208496,-0.6708984,-16.68702,-13.80916,26.16031,94.76,-90.16,52.44
-0.7568359,0.1569824,-0.6721191,-24.64886,-15.45802,25.94657,94.76,-90.16,52.44
-0.7351074,0.1879883,-0.6621094,-26.9084,-5.664122,27.48092,92.0,-86.48,57.04
-0.6970215,0.1494141,-0.6242676,-26.66412,-1.717557,22.0,92.0,-86.48,57.04
-0.6940918,0.175293,-0.6311035,-30.0916,-8.175572,16.96183,92.0,-86.48,57.04
-0.708252,0.204834,-0.626709,-31.16794,-1.625954,10.05344,91.08,-82.8,59.8
-0.7019043,0.2067871,-0.5893555,-26.67175,11.22137,5.396946,91.08,-82.8,59.8
-0.6865234,0.213623,-0.5456543,-24.35878,5.29771,0.6870229,91.08,-82.8,59.8
-0.7109375,0.1799316,-0.527832,-23.9313,1.984733,-2.099237,91.08,-80.96,59.8
-0.7492676,0.1572266,-0.5046387,-21.81679,-4.328244,-1.687023,91.08,-80.96,59.8
-0.7590332,0.1437988,-0.5407715,-23.0,-6.671756,-0.1908397,91.08,-80.96,59.8
-0.7790527,0.1347656,-0.5290527,-22.03817,0.9389313,-7.519084,92.0,-79.12,59.8
-0.7775879,0.1689453,-0.5168457,-13.78626,2.755725,-9.854961,92.0,-79.12,59.8
-0.7883301,0.1704102,-0.5136719,-10.21374,-0.5496183,-10.14504,92.92,-78.2,58.88
-0.7687988,0.1899414,-0.5163574,-14.9084,-5.748092,-11.53435,92.92,-78.2,58.88
-0.755127,0.2036133,-0.5263672,-12.30534,-3.053435,-13.76336,92.92,-78.2,58.88
-0.75,0.2141113,-0.5358887,-14.35114,-0.480916,-15.38168,94.76,-74.52,57.04
-0.7519531,0.2233887,-0.5368652,-14.45038,-2.305344,-15.35114,94.76,-74.52,57.04
-0.7609863,0.2412109,-0.546875,-19.13741,-2.465649,-12.9542,94.76,-74.52,57.04
-0.7763672,0.2438965,-0.5849609,-16.75573,2.656489,-11.29008,97.52,-72.68,55.2
-0.7854004,0.2302246,-0.5808105,-14.42748,11.68702,-12.78626,97.52,-72.68,55.2
-0.8186035,0.2243652,-0.567627,-19.1145,10.78626,-15.0229,100.28,-72.68,52.44
-0.8320313,0.2253418,-0.5446777,-20.93893,9.167939,-11.48092,100.28,-72.68,52.44
-0.8500977,0.215332,-0.5378418,-23.46565,7.679389,-9.274809,100.28,-72.68,52.44
-0.8327637,0.1899414,-0.4973145,-15.25191,9.343512,-5.984733,102.12,-72.68,49.68
-0.8205566,0.1650391,-0.4899902,-13.03053,11.29771,-7.045802,102.12,-72.68,49.68
-0.8242188,0.1557617,-0.4816895,-10.82443,10.14504,-8.885496,102.12,-72.68,49.68
-0.8334961,0.1560059,-0.4599609,-14.74809,-2.290076,-8.839695,103.04,-72.68,47.84
-0.8166504,0.1525879,-0.4597168,-12.80153,-2.10687,-7.358778,103.04,-72.68,47.84
-0.795166,0.1484375,-0.4587402,-9.328244,0.2900764,-12.0,104.88,-71.76,46.0
-0.7785645,0.1506348,-0.4475098,-3.358779,5.030534,-11.48855,104.88,-71.76,46.0
-0.7583008,0.1464844,-0.4321289,0.9541985,6.045802,-12.55725,104.88,-71.76,46.0
-0.7634277,0.1416016,-0.439209,2.610687,1.900763,-13.34351,106.72,-72.68,45.08
-0.7685547,0.1164551,-0.4912109,-0.3053435,-3.412214,-9.977099,106.72,-72.68,45.08
-0.763916,0.09521484,-0.5107422,7.38168,4.435114,-8.343512,106.72,-72.68,45.08
-0.7832031,0.09008789,-0.4785156,14.1145,16.48092,-20.06107,107.64,-73.6,42.32
-0.7885742,0.1088867,-0.4282227,17.24427,14.54198,-24.31298,107.64,-73.6,42.32
-0.767334,0.1315918,-0.4291992,16.25191,9.175572,-13.83206,109.48,-74.52,41.4
-0.8303223,0.1157227,-0.5187988,26.25954,10.19084,-20.16031,109.48,-74.52,41.4
-0.7956543,0.1213379,-0.4995117,30.63359,17.14504,-21.87023,111.32,-74.52,38.64
-0.8449707,0.1362305,-0.5007324,38.20611,7.541985,-21.64122,111.32,-74.52,38.64
-0.8833008,0.1540527,-0.5693359,25.75573,-4.343512,-13.47328,112.24,-74.52,36.8
-0.8503418,0.1464844,-0.6015625,21.03817,-3.267176,-7.251908,112.24,-74.52,36.8
-0.7834473,0.121582,-0.6547852,37.56488,23.33588,-14.94656,112.24,-74.52,36.8
-0.8012695,0.09545898,-0.6884766,39.66412,35.01527,-19.62595,114.08,-75.44,34.96
-0.8449707,0.1103516,-0.6633301,21.70992,24.61069,-17.75573,114.08,-75.44,34.96
-0.8374023,0.1540527,-0.7004395,20.48092,29.38168,-13.84733,114.08,-75.44,34.96
-0.769043,0.1489258,-0.723877,17.85496,43.16794,-16.42748,115.0,-78.2,31.28
-0.7199707,0.1193848,-0.701416,19.93893,48.90076,-11.70229,115.0,-78.2,31.28
-0.7463379,0.09375,-0.6660156,10.1145,39.03817,-22.61069,115.0,-82.8,27.6
-0.8027344,0.170166,-0.6650391,-2.740458,30.0916,-25.84733,115.0,-82.8,27.6
-0.755127,0.1906738,-0.6469727,1.572519,42.63359,-28.18321,115.0,-82.8,27.6
-0.7910156,0.1704102,-0.5876465,5.51145,35.45802,-33.55725,115.92,-85.56001,22.08
-0.8586426,0.2312012,-0.5979004,-8.068703,10.9084,-24.03817,115.92,-85.56001,22.08
-0.9050293,0.1547852,-0.6889648,-13.22901,1.664122,-15.20611,115.92,-85.56001,22.08
-0.8505859,0.09619141,-0.7270508,-16.59542,4.160306,-19.36641,117.76,-85.56001,17.48
-0.8300781,0.08251953,-0.7268066,-19.12214,4.427481,-18.89313,117.76,-85.56001,17.48
-0.8173828,0.07446289,-0.7160645,-31.16031,9.763359,-7.229008,119.6,-84.64,14.72
-0.817627,0.04589844,-0.6694336,-28.87023,6.007634,-7.923664,119.6,-84.64,14.72
-0.8068848,0.05273438,-0.6523438,-26.9771,2.206107,-11.61069,119.6,-84.64,14.72
-0.8066406,0.04785156,-0.6437988,-28.70992,0.1374046,-13.19084,121.44,-82.8,12.88
-0.829834,0.06347656,-0.6235352,-31.9771,3.732824,-9.229008,121.44,-82.8,12.88
-0.8461914,0.05712891,-0.5878906,-36.49618,1.992366,-5.870229,121.44,-82.8,12.88
-0.8349609,0.06835938,-0.6079102,-30.43511,0.9083969,-11.9542,120.52,-83.72,11.04
-0.8671875,0.06274414,-0.6000977,-34.17557,0.1374046,-7.801527,120.52,-83.72,11.04
-0.8994141,0.06884766,-0.6003418,-41.45802,-6.305344,0.7633588,119.6,-87.4,10.12
-0.9304199,0.07006836,-0.59375,-42.25191,-14.51908,7.519084,119.6,-87.4,10.12
-0.9245605,0.07446289,-0.5895996,-35.29008,-16.62595,12.38931,119.6,-87.4,10.12
-0.9174805,0.08496094,-0.5961914,-29.41985,-13.87786,17.0,116.84,-88.32,12.88
-0.8798828,0.08813477,-0.5734863,-34.66412,-14.83206,21.1145,116.84,-88.32,12.88
-0.840332,0.08691406,-0.5332031,-25.12977,-17.00763,23.96947,116.84,-88.32,12.88
-0.8720703,0.07958984,-0.5307617,-21.53435,-26.89313,30.96183,115.92,-86.48,17.48
-0.8549805,0.08959961,-0.519043,-19.39695,-30.75573,32.35115,115.92,-86.48,17.48
-0.8212891,0.09765625,-0.5114746,-10.32061,-21.05343,35.43512,115.92,-83.72,23.0
-0.7954102,0.0793457,-0.4833984,-4.419847,-18.62595,37.31298,115.92,-83.72,23.0
-0.7873535,0.1010742,-0.4797363,-4.969466,-25.84733,24.9771,115.92,-83.72,23.0
-0.8125,0.1157227,-0.4807129,6.862596,-21.32825,32.20611,114.08,-80.04,28.52
-0.809082,0.1120605,-0.4912109,3.061069,-23.51908,32.51145,114.08,-80.04,28.52
-0.763916,0.1203613,-0.519043,10.38168,-15.1145,32.19084,114.08,-80.04,28.52
-0.7521973,0.1508789,-0.5166016,11.82443,-18.48855,28.54962,112.24,-77.28,34.04
-0.7485352,0.1647949,-0.5405273,16.54198,-12.91603,25.67939,112.24,-77.28,34.04
-0.7609863,0.1896973,-0.5478516,14.52672,-3.938931,23.42748,110.4,-74.52,37.72
-0.7421875,0.2092285,-0.534668,14.45038,0.1603053,23.54198,110.4,-74.52,37.72
-0.7211914,0.2092285,-0.5373535,19.22901,-2.496183,22.9084,110.4,-74.52,37.72
-0.7294922,0.204834,-0.541748,19.53435,0.9770992,22.26718,108.56,-72.68,41.4
-0.7124023,0.2033691,-0.5283203,20.20611,2.549618,23.93893,108.56,-72.68,41.4
-0.6616211,0.1828613,-0.5473633,23.77099,8.580153,19.62595,108.56,-72.68,41.4
-0.6633301,0.1928711,-0.5705566,22.68702,11.46565,13.38931,107.64,-71.76,44.16
-0.6379395,0.203125,-0.5576172,20.98473,16.20611,5.778626,107.64,-71.76,44.16
-0.6337891,0.2109375,-0.6103516,21.48855,19.08397,-1.091603,107.64,-71.76,44.16
-0.7111816,0.270752,-0.6281738,16.35114,25.58015,-7.465649,104.88,-74.52,46.0
-0.6901855,0.2597656,-0.6276855,16.45802,30.71756,-8.358779,104.88,-77.28,45.08
-0.6716309,0.2473145,-0.6376953,11.64122,32.21374,-8.656488,104.88,-77.28,45.08
-0.6728516,0.220459,-0.623291,18.01527,35.64885,-10.09924,104.88,-80.96,43.24
-0.6723633,0.2126465,-0.6298828,18.42748,35.29008,-15.57252,104.88,-80.96,43.24
-0.6936035,0.222168,-0.6210938,13.0,36.51145,-13.51145,104.88,-80.96,43.24
-0.690918,0.1813965,-0.6188965,8.412213,36.9084,-12.08397,105.8,-85.56001,40.48
-0.701416,0.1672363,-0.621582,9.755725,37.59542,-21.03817,105.8,-85.56001,40.48
-0.7358398,0.1916504,-0.6252441,14.12977,31.9084,-23.93893,105.8,-85.56001,40.48
-0.7497559,0.1665039,-0.6672363,15.89313,34.22901,-19.40458,105.8,-90.16,35.88
-0.7412109,0.1437988,-0.6750488,11.41985,34.34351,-20.37405,105.8,-90.16,35.88
-0.7219238,0.1347656,-0.626709,7.854962,35.48855,-24.39695,107.64,-92.92,30.36
-0.723877,0.1240234,-0.595459,9.694656,32.56488,-33.03053,107.64,-92.92,30.36
-0.8010254,0.1550293,-0.572998,9.572519,30.06107,-38.71756,107.64,-92.92,30.36
-0.8608398,0.1799316,-0.5756836,9.938931,20.22137,-25.50382,109.48,-95.68,24.84
-0.8442383,0.1574707,-0.6201172,16.05343,23.19084,-15.93893,109.48,-95.68,24.84
-0.8476563,0.1523438,-0.6101074,24.43511,16.29771,-22.87786,109.48,-95.68,24.84
-0.878418,0.1704102,-0.6171875,24.19084,6.396946,-12.98473,108.56,-98.44,19.32
-0.8991699,0.1574707,-0.6379395,22.21374,5.458015,-5.38168,108.56,-98.44,19.32
-0.8835449,0.142334,-0.6074219,19.54962,0.05343511,-3.068702,110.4,-97.52,18.4
-0.8669434,0.1506348,-0.6218262,22.0916,-8.534351,0.5419847,110.4,-97.52,18.4
-0.8544922,0.1508789,-0.6599121,25.10687,-15.64886,8.78626,110.4,-97.52,18.4
-0.8459473,0.1394043,-0.6733398,26.51908,-19.25191,11.66412,110.4,-97.52,18.4
-0.8295898,0.1420898,-0.7021484,24.58779,-20.83206,16.51908,110.4,-97.52,18.4
-0.7922363,0.130127,-0.7133789,21.51145,-17.0458,21.36641,110.4,-97.52,18.4
-0.7634277,0.1337891,-0.7043457,17.41985,-20.57252,19.50382,110.4,-95.68,22.08
-0.7663574,0.1533203,-0.6816406,8.061069,-26.12214,21.43511,110.4,-95.68,22.08
-0.7602539,0.1711426,-0.7023926,8.152672,-30.0916,24.31298,109.48,-92.92,26.68
-0.8037109,0.1875,-0.6984863,11.54198,-31.21374,22.1145,109.48,-92.92,26.68
-0.8039551,0.1906738,-0.6879883,1.259542,-31.18321,26.57252,109.48,-92.92,26.68
-0.776123,0.1743164,-0.6572266,-3.473282,-37.67939,29.89313,109.48,-89.24,33.12
-0.7941895,0.1743164,-0.6726074,-12.9313,-50.55725,30.48855,109.48,-89.24,33.12
-0.8139648,0.1813965,-0.6542969,-30.0687,-64.08397,38.1832,109.48,-89.24,33.12
-0.7883301,0.184082,-0.6350098,-36.01527,-67.58778,32.8855,107.64,-83.72,40.48
-0.8046875,0.2148438,-0.6313477,-30.9084,-61.35878,21.0687,107.64,-83.72,40.48
-0.8574219,0.2658691,-0.6542969,-30.0,-46.48092,21.15267,105.8,-76.36,47.84
-0.8225098,0.2575684,-0.6140137,-35.28244,-37.56488,24.85496,105.8,-76.36,47.84
-0.7883301,0.2573242,-0.5700684,-33.22901,-32.22137,18.67939,105.8,-76.36,47.84
-0.7983398,0.2773438,-0.5678711,-32.76336,-25.64122,14.69466,104.88,-69.92,52.44
-0.796875,0.2983398,-0.550293,-35.32824,-22.67939,16.25954,104.88,-69.92,52.44
-0.7907715,0.2973633,-0.5249023,-37.0,-19.9771,17.94657,104.88,-69.92,52.44
-0.7878418,0.3105469,-0.5141602,-37.32061,-12.62595,17.82443,103.96,-65.32,54.28
-0.7883301,0.3027344,-0.4938965,-33.87786,-5.687023,18.31298,103.96,-65.32,54.28
-0.7875977,0.2695313,-0.4951172,-32.42748,-8.534351,17.03053,103.04,-61.64,56.12
-0.807373,0.2858887,-0.5129395,-29.15267,-6.78626,13.15267,103.04,-61.64,56.12
-0.7963867,0.279541,-0.5087891,-28.25191,4.412214,19.54962,103.04,-61.64,56.12
-0.7744141,0.2521973,-0.4812012,-29.87023,13.29008,11.90076,103.04,-59.8,56.12
-0.7717285,0.262207,-0.4460449,-25.54962,18.70229,5.557252,103.04,-59.8,56.12
-0.7556152,0.260498,-0.4384766,-23.61832,21.51145,4.091603,103.04,-59.8,56.12
-0.7272949,0.2385254,-0.4187012,-18.39695,31.30534,1.916031,103.04,-60.72,55.2
-0.7043457,0.2407227,-0.3950195,-13.70992,34.12977,-7.221374,103.04,-60.72,55.2
-0.668457,0.2106934,-0.3950195,3.076336,43.64885,-20.86259,104.88,-61.64,52.44
-0.6525879,0.1972656,-0.3532715,1.175573,48.41221,-29.94657,104.88,-61.64,52.44
-0.6591797,0.2011719,-0.3408203,4.763359,50.82443,-37.37405,108.56,-64.4,48.76
-0.6472168,0.1906738,-0.3669434,9.946565,53.60305,-44.50382,108.56,-64.4,48.76
-0.6687012,0.1503906,-0.3762207,9.694656,47.49618,-55.80153,111.32,-69.92,40.48
-0.7495117,0.1516113,-0.4206543,19.08397,33.9771,-63.69466,111.32,-69.92,40.48
-0.8127441,0.1721191,-0.4689941,26.51145,29.87786,-66.1145,111.32,-69.92,40.48
-0.8706055,0.1589355,-0.5117188,28.32825,35.82443,-63.70992,117.76,-72.68,31.28
-0.8808594,0.151123,-0.5061035,38.42748,39.15267,-67.27481,117.76,-72.68,31.28
-0.8828125,0.1413574,-0.5495605,42.9771,45.21374,-63.46565,117.76,-72.68,31.28
-0.9123535,0.1286621,-0.6057129,22.14504,40.21374,-51.50382,121.44,-75.44,22.08
-0.84375,0.06884766,-0.609375,16.48092,43.16794,-50.46565,121.44,-75.44,22.08
-0.8864746,0.05078125,-0.6015625,16.8855,37.0687,-54.0,120.52,-82.8,13.8
-0.9382324,0.09570313,-0.6418457,17.07634,35.92366,-44.8855,120.52,-82.8,13.8
-0.9067383,0.07128906,-0.6572266,19.20611,41.83969,-39.28244,120.52,-82.8,13.8
-0.9169922,0.05615234,-0.670166,20.43511,45.9084,-40.37405,121.44,-86.48,4.6
-0.9455566,0.09472656,-0.6848145,6.129771,28.05343,-31.80153,121.44,-86.48,4.6
-0.934082,0.08178711,-0.7304688,0.6412213,30.70229,-25.86259,121.44,-86.48,4.6
-0.9401855,0.03540039,-0.7148438,4.580153,36.79389,-41.74809,121.44,-89.24,-0.92
-0.8840332,0.105957,-0.6987305,-0.8931297,32.32824,-32.64122,121.44,-89.24,-0.92
-0.9223633,0.121582,-0.7145996,-10.82443,21.83969,-11.9542,120.52,-91.08,-3.68
-0.8896484,0.1025391,-0.7175293,-20.66412,14.43511,2.618321,120.52,-91.08,-3.68
-0.8432617,0.09692383,-0.7194824,-18.68702,15.31298,8.305344,120.52,-91.08,-3.68
-0.8684082,0.1115723,-0.7141113,-31.61069,13.92366,16.53435,119.6,-92.92,-4.6
-0.8498535,0.1152344,-0.6870117,-41.26717,2.419847,27.98473,119.6,-92.92,-4.6
-0.8273926,0.08642578,-0.6789551,-36.64122,-2.022901,24.00763,119.6,-92.92,-4.6
-0.8552246,0.1132813,-0.6606445,-38.00763,-5.671756,25.42748,117.76,-95.68,-2.76
-0.8569336,0.1208496,-0.6313477,-39.96947,-14.0,32.87786,117.76,-95.68,-2.76
-0.847168,0.1015625,-0.6105957,-38.25191,-22.49618,41.46565,115.0,-97.52,1.84
-0.8395996,0.1003418,-0.5908203,-38.98473,-28.83969,45.17557,115.0,-97.52,1.84
-0.8156738,0.08691406,-0.5681152,-37.32061,-33.21374,46.37405,115.0,-97.52,1.84
-0.7775879,0.08544922,-0.5314941,-22.45038,-34.36641,35.78626,115.0,-94.76,8.28
-0.7919922,0.09521484,-0.5358887,-9.725191,-34.74046,33.08397,115.0,-94.76,8.28
-0.8098145,0.1130371,-0.5378418,-9.519084,-29.62595,38.16794,115.0,-94.76,8.28
-0.7785645,0.09960938,-0.5146484,-8.0,-30.41985,39.89313,115.0,-90.16,14.72
-0.753418,0.1118164,-0.4943848,-1.160305,-26.90076,38.20611,115.0,-90.16,14.72
-0.7731934,0.1157227,-0.4743652,4.10687,-25.46565,31.80153,114.08,-87.4,21.16
-0.7802734,0.1308594,-0.4553223,11.67176,-20.66412,29.53435,114.08,-87.4,21.16
-0.7788086,0.1403809,-0.458252,17.78626,-17.51908,29.68702,114.08,-87.4,21.16
-0.7587891,0.1520996,-0.4523926,25.77099,-10.25191,31.31298,113.16,-84.64,25.76
-0.7416992,0.1499023,-0.4528809,34.96183,-9.702291,31.82443,113.16,-84.64,25.76
-0.7541504,0.152832,-0.4831543,35.10687,-16.29771,26.21374,113.16,-84.64,25.76
-0.7890625,0.170166,-0.513916,32.20611,-17.38168,29.53435,112.24,-81.88,30.36
-0.7709961,0.1589355,-0.5187988,32.79389,-16.72519,28.46565,112.24,-81.88,30.36
-0.7646484,0.1572266,-0.53125,34.39695,-8.80916,24.61832,111.32,-80.04,32.2
-0.748291,0.1711426,-0.529541,32.53435,-11.77863,25.07634,111.32,-80.04,32.2
-0.7246094,0.1887207,-0.5693359,34.64885,-15.51908,30.01527,111.32,-80.04,32.2
-0.7058105,0.1774902,-0.5761719,35.03053,-9.832061,30.54198,113.16,-76.36,32.2
-0.6809082,0.1599121,-0.5688477,36.51145,-9.259542,21.05343,113.16,-76.36,32.2
-0.6813965,0.1984863,-0.5834961,31.0229,-8.244275,14.03817,113.16,-76.36,32.2
-0.7189941,0.2036133,-0.5852051,33.42748,-7.137404,12.16031,112.24,-74.52,34.96
-0.7290039,0.222168,-0.5788574,29.63359,-0.6259542,12.77099,112.24,-74.52,34.96
-0.673584,0.2312012,-0.5917969,30.96947,14.96183,13.28244,110.4,-77.28,37.72
-0.7263184,0.2214355,-0.6291504,28.08397,9.717557,9.900764,105.8,-82.8,41.4
-0.713623,0.2827148,-0.6369629,36.71756,25.05343,10.20611,105.8,-82.8,41.4
-0.642334,0.2558594,-0.6437988,53.98473,38.20611,4.748092,105.8,-82.8,41.4
-0.6120605,0.1962891,-0.6838379,50.54198,36.29008,2.938931,102.12,-87.4,43.24
-0.6401367,0.2404785,-0.7155762,48.0687,36.22901,-0.6259542,102.12,-87.4,43.24
-0.6396484,0.2924805,-0.7390137,42.87023,36.67939,4.038168,102.12,-87.4,43.24
-0.604248,0.2258301,-0.7800293,48.35115,54.54198,5.557252,100.28,-93.84,41.4
-0.6281738,0.197998,-0.7841797,48.12977,61.19084,-7.977099,100.28,-93.84,41.4
-0.6157227,0.246582,-0.7788086,39.92366,58.87786,-14.20611,98.44,-100.28,37.72
-0.6120605,0.2294922,-0.7873535,30.75573,55.66412,-18.72519,98.44,-100.28,37.72
-0.6413574,0.1965332,-0.784668,29.30534,53.63359,-18.44275,98.44,-100.28,37.72
-0.6750488,0.1933594,-0.751709,11.54198,38.45802,-21.19084,97.52,-105.8,32.2
-0.626709,0.190918,-0.7543945,15.15267,32.43512,-21.47328,97.52,-105.8,32.2
-0.6403809,0.151123,-0.7580566,15.51908,39.05344,-33.42748,97.52,-105.8,32.2
-0.6379395,0.08813477,-0.7543945,12.77099,35.0916,-36.60305,97.52,-109.48,26.68
-0.7382813,0.08178711,-0.7109375,2.312977,9.519084,-47.84733,97.52,-109.48,26.68
-0.776123,0.1105957,-0.7458496,3.40458,-0.8854962,-39.91603,97.52,-109.48,26.68
-0.769043,0.07226563,-0.736084,4.091603,5.91603,-48.50382,101.2,-109.48,18.4
-0.7668457,0.07080078,-0.6955566,-5.030534,11.79389,-43.85496,101.2,-109.48,18.4
-0.7697754,0.06640625,-0.6376953,-19.79389,-3.419847,-37.34351,104.88,-108.56,11.96
-0.7995605,0.06640625,-0.6550293,-19.69466,-14.49618,-35.85496,104.88,-108.56,11.96
-0.8652344,0.07592773,-0.6708984,-15.05344,-19.46565,-39.70992,104.88,-108.56,11.96
-0.8803711,0.1008301,-0.6713867,-12.31298,-23.09924,-27.21374,107.64,-106.72,5.52
-0.84375,0.08740234,-0.6520996,-2.274809,-23.70992,-14.83969,107.64,-106.72,5.52
-0.8293457,0.07446289,-0.637207,1.045802,-26.28244,-7.832061,107.64,-106.72,5.52
-0.8288574,0.078125,-0.6633301,0.9389313,-33.32061,2.450382,112.24,-103.04,3.68
-0.8183594,0.09545898,-0.6660156,-3.10687,-38.68702,6.122138,112.24,-103.04,3.68
-0.8220215,0.1257324,-0.6530762,-8.0,-38.71756,6.427481,115.0,-96.6,4.6
-0.8439941,0.1464844,-0.6784668,-9.984733,-47.38931,17.47328,115.0,-96.6,4.6
-0.8439941,0.1794434,-0.6923828,-5.450382,-40.12977,24.0,115.0,-96.6,4.6
-0.8041992,0.1616211,-0.689209,1.091603,-28.63359,21.50382,115.92,-94.76,6.44
-0.7990723,0.1816406,-0.6589355,-2.015267,-32.33588,26.72519,115.92,-94.76,6.44
-0.8000488,0.1945801,-0.6787109,-4.045802,-27.67939,35.40458,115.92,-94.76,6.44
-0.7592773,0.1828613,-0.6767578,-0.9236641,-21.47328,36.38931,115.92,-92.0,11.04
-0.7456055,0.1809082,-0.682373,1.366412,-16.51145,36.80916,115.92,-92.0,11.04
-0.7631836,0.2006836,-0.6950684,-3.732824,-20.70229,35.89313,115.92,-90.16,17.48
-0.7651367,0.2165527,-0.7102051,-9.290076,-18.54962,35.12977,115.92,-90.16,17.48
-0.795166,0.232666,-0.732666,-7.870229,-11.12977,34.54962,115.92,-90.16,17.48
-0.7973633,0.2504883,-0.7141113,-15.85496,-9.297709,33.98473,113.16,-88.32,24.84
-0.7714844,0.2583008,-0.6953125,-18.51908,-16.8855,29.22137,113.16,-88.32,24.84
-0.7480469,0.25,-0.7229004,-22.81679,-19.48092,34.07634,113.16,-88.32,24.84
-0.7416992,0.2597656,-0.7421875,-32.49618,-16.41985,33.37405,111.32,-84.64,32.2
-0.7202148,0.246582,-0.7055664,-36.57252,-7.610687,32.1145,111.32,-84.64,32.2
-0.6694336,0.2497559,-0.6586914,-33.90076,-1.832061,22.87786,109.48,-80.96,36.8
-0.6445313,0.2634277,-0.6091309,-33.58015,1.541985,11.38168,109.48,-80.96,36.8
-0.6643066,0.229248,-0.6142578,-39.16031,-6.038168,12.05344,109.48,-80.96,36.8
-0.6159668,0.1987305,-0.5915527,-40.83969,-3.526718,6.0,109.48,-76.36,40.48
-0.5788574,0.1813965,-0.5285645,-38.21374,-0.8473283,-6.969466,109.48,-76.36,40.48
-0.5476074,0.1555176,-0.4846191,-24.54962,-3.503817,-22.12214,109.48,-76.36,40.48
-0.5285645,0.1049805,-0.4650879,-10.25191,3.633588,-37.32061,111.32,-71.76,38.64
-0.5869141,0.0847168,-0.5026855,-11.9542,11.61832,-54.00763,111.32,-71.76,38.64
-0.6860352,0.05541992,-0.4333496,-19.62595,18.68702,-62.82443,115.92,-70.84,31.28
-0.7421875,0.06298828,-0.4680176,-14.47328,20.90076,-64.0229,120.52,-71.76,23.0
-0.75,0.07080078,-0.4516602,-17.14504,19.94657,-52.64885,120.52,-71.76,23.0
-0.7124023,0.0300293,-0.4580078,-2.801527,25.71756,-58.60305,120.52,-71.76,23.0
-0.7563477,-0.006591797,-0.5075684,12.77099,24.55725,-73.39695,124.2,-73.6,13.8
-0.8410645,0.06860352,-0.5427246,17.38931,21.46565,-71.59542,124.2,-73.6,13.8
-0.8215332,0.07226563,-0.6166992,15.73282,40.19084,-59.14504,124.2,-73.6,13.8
-0.8874512,0.0324707,-0.621582,20.76336,60.23664,-62.79389,127.88,-74.52,2.76
-0.9406738,0.107666,-0.5842285,19.84733,44.9542,-61.80153,127.88,-74.52,2.76
-0.9428711,0.1247559,-0.6848145,7.900764,39.35878,-40.25954,127.88,-78.2,-5.52
-0.9521484,0.06176758,-0.697998,3.183206,51.16031,-34.42748,127.88,-78.2,-5.52
-0.9499512,0.09228516,-0.651123,-6.045802,45.89313,-28.61069,127.88,-78.2,-5.52
-0.8820801,0.2016602,-0.5297852,-11.23664,57.41221,-28.35878,124.2,-85.56001,-8.28
-1.038574,0.1381836,-0.7802734,-5.839694,59.13741,-11.83969,124.2,-85.56001,-8.28
-0.9904785,0.2062988,-0.6984863,-23.18321,55.65649,6.030534,124.2,-85.56001,-8.28
-0.9851074,0.1430664,-0.6560059,-25.70229,37.9313,19.48855,120.52,-92.92,-11.04
-0.953125,0.1274414,-0.6420898,-25.65649,28.85496,17.28244,120.52,-92.92,-11.04
-0.9160156,0.1171875,-0.657959,-33.73283,19.12977,15.10687,117.76,-98.44,-11.04
-0.9155273,0.09619141,-0.6398926,-32.96183,7.931298,27.44275,117.76,-98.44,-11.04
-0.8798828,0.0793457,-0.6472168,-26.87023,3.557252,25.26718,117.76,-98.44,-11.04
-0.8535156,0.09057617,-0.6713867,-24.83969,7.610687,23.54962,115.0,-101.2,-11.04
-0.8271484,0.1096191,-0.666748,-25.72519,10.20611,31.99237,115.0,-101.2,-11.04
-0.7814941,0.1025391,-0.625,-26.13741,9.526717,38.28244,115.0,-101.2,-11.04
-0.7524414,0.1271973,-0.5976563,-25.33588,3.816794,37.30534,113.16,-104.88,-9.2
-0.7561035,0.1323242,-0.5895996,-14.24428,-2.305344,38.1832,113.16,-104.88,-9.2
-0.7380371,0.1435547,-0.59375,-15.0,-2.977099,45.12977,110.4,-105.8,-4.6
-0.7468262,0.1171875,-0.5722656,-21.64886,-12.71756,48.26717,110.4,-105.8,-4.6
-0.7456055,0.1242676,-0.5891113,-9.259542,-21.12977,45.96183,110.4,-105.8,-4.6
-0.722168,0.1210938,-0.6086426,-5.480916,-14.36641,45.17557,108.56,-105.8,1.84
-0.7036133,0.1125488,-0.5720215,-4.717557,-9.778625,41.62595,108.56,-105.8,1.84
-0.690918,0.1025391,-0.5439453,5.496183,-14.41221,41.1832,108.56,-105.8,1.84
-0.6564941,0.0793457,-0.5568848,15.74046,-16.50382,41.70229,108.56,-103.96,8.28
-0.640625,0.06420898,-0.5412598,15.12214,-15.96183,33.17557,108.56,-103.96,8.28
-0.6640625,0.1027832,-0.5266113,18.40458,-20.90076,24.77099,110.4,-97.52,12.88
-0.6394043,0.1191406,-0.5476074,23.50382,-23.15267,25.23664,110.4,-97.52,12.88
-0.6311035,0.121582,-0.5644531,26.41221,-18.83969,19.58779,110.4,-97.52,12.88
-0.5856934,0.1396484,-0.5803223,26.59542,-19.07634,16.92366,111.32,-94.76,16.56
-0.5361328,0.1403809,-0.6196289,36.82443,-19.53435,14.0229,111.32,-94.76,16.56
-0.4990234,0.07641602,-0.6887207,40.9084,-19.67939,5.458015,111.32,-94.76,16.56
-0.5056152,0.078125,-0.7141113,41.0916,-3.580153,-2.458015,112.24,-91.08,18.4
-0.5180664,0.1276855,-0.7060547,38.74046,6.442748,-5.236641,112.24,-91.08,18.4
-0.5385742,0.1313477,-0.7287598,34.63359,12.17557,-5.08397,112.24,-92.0,19.32
-0.5683594,0.1608887,-0.7409668,31.27481,19.60305,-10.41221,112.24,-92.0,19.32
-0.6027832,0.1960449,-0.7512207,33.64122,27.9542,-18.18321,112.24,-92.0,19.32
-0.6086426,0.2390137,-0.7424316,43.01527,31.77099,-13.52672,110.4,-96.6,19.32
-0.5949707,0.1918945,-0.7617188,45.47328,36.96183,-11.0916,110.4,-96.6,19.32
-0.6062012,0.1694336,-0.7648926,40.26717,39.59542,-15.61832,110.4,-96.6,19.32
-0.6379395,0.1755371,-0.7978516,25.85496,38.1832,-20.80153,109.48,-99.36,16.56
-0.6582031,0.1672363,-0.8349609,22.63359,41.55725,-22.48092,109.48,-99.36,16.56
-0.6748047,0.1611328,-0.8413086,29.69466,52.33588,-26.64122,109.48,-99.36,16.56
-0.6264648,0.1298828,-0.7854004,30.53435,55.96183,-24.49618,108.56,-104.88,11.04
-0.6325684,0.1118164,-0.7583008,24.46565,51.30534,-29.83206,108.56,-104.88,11.04
-0.7595215,0.1210938,-0.7397461,11.19084,30.69466,-16.9313,106.72,-109.48,1.84
-0.8217773,0.1237793,-0.6845703,10.82443,24.40458,-26.0,103.96,-115.0,-4.6
-0.8388672,0.1381836,-0.7192383,13.0916,6.053435,-21.39695,103.96,-115.0,-4.6
-0.8552246,0.1848145,-0.7348633,17.49618,-0.6412213,-14.38168,103.96,-115.0,-4.6
-0.8308105,0.1606445,-0.720459,22.45802,2.870229,-6.923664,103.96,-115.0,-7.36
-0.847168,0.166748,-0.7487793,12.35114,-13.80153,1.641221,103.96,-115.0,-7.36
-0.8122559,0.1591797,-0.7758789,9.984733,-20.81679,15.93893,103.96,-115.0,-7.36
-0.7939453,0.1196289,-0.7941895,15.74809,-17.31298,23.80153,104.88,-113.16,-7.36
-0.7976074,0.1384277,-0.8093262,10.9542,-13.46565,25.96947,104.88,-113.16,-7.36
-0.7854004,0.1411133,-0.8017578,9.145039,-14.58779,27.51908,103.96,-114.08,-2.76
-0.7739258,0.168457,-0.7539063,9.801527,-18.40458,30.32061,103.96,-114.08,-2.76
-0.7868652,0.1838379,-0.7514648,1.114504,-36.14504,37.98473,103.96,-114.08,-2.76
-0.7419434,0.1682129,-0.7790527,-0.1526718,-38.30534,46.92366,103.96,-112.24,5.52
-0.7084961,0.1550293,-0.7641602,3.541985,-35.16031,41.23664,103.96,-112.24,5.52
-0.7324219,0.1853027,-0.7653809,1.076336,-44.63359,37.25954,103.96,-112.24,5.52
-0.7231445,0.1901855,-0.802002,-4.977099,-61.92366,37.53435,103.96,-108.56,15.64
-0.7460938,0.1914063,-0.8554688,-12.96183,-64.14503,41.08397,103.96,-108.56,15.64
-0.6838379,0.1760254,-0.8371582,-14.22137,-48.32824,33.49618,104.88,-98.44,27.6
-0.661377,0.2067871,-0.7856445,-15.77863,-39.86259,20.78626,104.88,-98.44,27.6
-0.6704102,0.2275391,-0.7556152,-21.99237,-45.38931,21.80916,104.88,-98.44,27.6
-0.6518555,0.2248535,-0.7714844,-25.71756,-41.83969,21.58015,106.72,-90.16,34.96
-0.6782227,0.2009277,-0.7575684,-23.67175,-28.70229,13.35878,106.72,-90.16,34.96
-0.6259766,0.1911621,-0.7275391,-30.77099,-27.24427,8.702291,106.72,-90.16,34.96
-0.6047363,0.1733398,-0.7287598,-33.37405,-21.58779,2.183206,107.64,-82.8,38.64
-0.6223145,0.1796875,-0.6967773,-38.58015,-19.76336,1.832061,107.64,-82.8,38.64
-0.6413574,0.1911621,-0.6762695,-45.0229,-16.54198,4.053435,108.56,-76.36,39.56
-0.6098633,0.1677246,-0.6342773,-42.70992,-4.129771,-2.396947,108.56,-76.36,39.56
-0.590332,0.1518555,-0.5825195,-38.13741,-1.305344,-17.09924,108.56,-76.36,39.56
-0.6140137,0.1674805,-0.5598145,-43.54962,-7.526718,-17.32825,110.4,-72.68,37.72
-0.6115723,0.1628418,-0.5356445,-39.05344,-4.78626,-21.78626,110.4,-72.68,37.72
-0.6174316,0.1503906,-0.5002441,-37.49618,3.160305,-28.17557,110.4,-72.68,37.72
-0.6567383,0.1342773,-0.4841309,-31.89313,5.832061,-32.52672,113.16,-69.0,33.12
-0.6762695,0.1130371,-0.4616699,-29.18321,7.679389,-33.33588,113.16,-69.0,33.12
-0.6787109,0.07592773,-0.4538574,-22.72519,10.0687,-39.35115,117.76,-68.08,27.6
-0.7009277,0.04614258,-0.4433594,-14.61832,13.43511,-47.72519,117.76,-68.08,27.6
-0.6965332,0.002685547,-0.4321289,-3.419847,15.76336,-53.03817,117.76,-68.08,27.6
-0.6887207,-0.04199219,-0.4985352,-1.519084,18.35878,-54.93893,121.44,-69.92,19.32
-0.6640625,-0.07763672,-0.4904785,-7.015267,24.82443,-55.50382,121.44,-69.92,19.32
-0.6269531,-0.1115723,-0.4711914,5.091603,35.54962,-67.23664,121.44,-69.92,19.32
-0.770752,-0.1018066,-0.4931641,10.31298,38.15267,-66.89313,125.12,-72.68,10.12
-0.8518066,-0.03051758,-0.4909668,19.49618,27.38168,-58.58779,125.12,-72.68,10.12
-0.8317871,0.0004882813,-0.541748,28.69466,49.10687,-58.0916,125.12,-72.68,10.12
-0.8000488,-0.05712891,-0.6069336,27.28244,73.83969,-56.73283,128.8,-73.6,0.0
-0.8232422,-0.06323242,-0.642334,18.91603,56.1145,-55.67176,128.8,-73.6,0.0
-0.7832031,-0.06542969,-0.7060547,20.76336,64.16031,-51.42748,127.88,-80.96,-12.88
-0.9082031,-0.008056641,-0.7514648,21.20611,73.43511,-52.12977,127.88,-80.96,-12.88
-0.9978027,0.08642578,-0.7873535,10.74046,51.38931,-34.52672,127.88,-80.96,-12.88
-0.9736328,0.07275391,-0.8635254,11.0,45.0229,-9.21374,126.96,-87.4,-23.92
-0.9951172,0.05541992,-0.8686523,11.48855,47.70992,-13.87786,126.96,-87.4,-23.92
-1.016602,0.1242676,-0.8288574,-5.671756,39.08397,-15.54962,126.96,-87.4,-23.92
-0.9836426,0.1811523,-0.753418,-42.32824,17.54198,25.73282,124.2,-90.16,-29.44
-0.9199219,0.1765137,-0.7268066,-34.16031,12.67176,26.25191,121.44,-94.76,-29.44
-0.9187012,0.1398926,-0.7058105,-34.71756,5.351145,29.07634,121.44,-94.76,-29.44
-0.8759766,0.1315918,-0.6625977,-36.34351,-4.961832,39.19847,118.68,-98.44,-25.76
-0.8442383,0.1137695,-0.6799316,-35.35115,-9.641221,38.0,118.68,-98.44,-25.76
-0.8613281,0.1325684,-0.6916504,-39.87786,-5.335878,44.8168,118.68,-98.44,-25.76
-0.7980957,0.1005859,-0.6447754,-35.01527,9.465649,59.32061,115.92,-101.2,-20.24
-0.7397461,0.09960938,-0.5942383,-36.44275,1.503817,52.44275,115.92,-101.2,-20.24
-0.7182617,0.0769043,-0.5698242,-29.9084,7.10687,49.48092,115.92,-101.2,-20.24
-0.7209473,0.06103516,-0.5773926,-28.51908,0.8167939,44.72519,112.24,-104.88,-12.88
-0.7468262,0.1062012,-0.5480957,-29.35114,-9.19084,49.55725,112.24,-104.88,-12.88
-0.7299805,0.1083984,-0.517334,-31.37405,-28.00763,58.22901,110.4,-105.8,-6.44
-0.6774902,0.09399414,-0.5629883,-33.0687,-29.77099,52.73283,110.4,-105.8,-6.44
-0.6740723,0.06787109,-0.579834,-18.73282,-7.961832,49.61832,110.4,-105.8,-6.44
-0.6796875,0.07836914,-0.5527344,1.503817,-0.648855,44.40458,106.72,-106.72,1.84
-0.6623535,0.1169434,-0.5634766,15.38931,-3.587786,39.91603,106.72,-106.72,1.84
-0.6281738,0.126709,-0.5532227,14.58779,-11.62595,38.22137,106.72,-106.72,1.84
-0.5583496,0.1176758,-0.6142578,22.33588,-17.77863,35.48855,104.88,-106.72,6.44
-0.4865723,0.111084,-0.6940918,39.32824,-3.007634,29.26718,104.88,-106.72,6.44
-0.4658203,0.107666,-0.7016602,45.35878,7.030534,19.72519,105.8,-103.04,11.04
-0.3977051,0.05419922,-0.7114258,48.69466,15.26718,11.71756,105.8,-103.04,11.04
-0.3708496,0.02929688,-0.7456055,50.91603,27.10687,1.534351,105.8,-103.04,11.04
-0.395752,0.07763672,-0.6967773,41.25191,27.36641,-8.854961,105.8,-104.88,11.04
-0.4494629,0.1162109,-0.6569824,47.21374,25.77099,-11.9084,105.8,-104.88,11.04
-0.4829102,0.1052246,-0.7087402,58.43512,33.58779,-11.96183,105.8,-104.88,11.04
-0.4572754,0.1049805,-0.7399902,64.0229,49.70992,-14.56489,103.04,-108.56,9.2
-0.4396973,0.07910156,-0.7436523,65.72519,51.05344,-27.43511,103.04,-108.56,9.2
-0.5341797,0.03442383,-0.7844238,67.86259,38.9771,-37.49618,102.12,-114.08,1.84
-0.6391602,0.1208496,-0.857666,64.33588,30.03053,-42.64122,102.12,-114.08,1.84
-0.6923828,0.1467285,-0.7839355,45.85496,23.8855,-29.48855,102.12,-114.08,1.84
-0.6975098,0.1032715,-0.8203125,42.09924,17.41985,-24.77099,103.96,-115.0,-4.6
-0.7268066,0.07299805,-0.8684082,46.45802,25.14504,-21.0687,103.96,-115.0,-4.6
-0.7324219,0.08911133,-0.8718262,40.46565,32.1832,-13.09924,103.96,-115.0,-4.6
-0.7177734,0.05834961,-0.8745117,46.76336,27.8855,-9.633588,103.04,-116.84,-10.12
-0.7338867,0.07226563,-0.859375,43.67176,1.549618,-8.022901,103.04,-116.84,-10.12
-0.734375,0.09545898,-0.8764648,37.41221,-1.0,1.129771,104.88,-116.84,-12.88
-0.7006836,0.1203613,-0.8806152,25.55725,-3.381679,2.89313,104.88,-116.84,-12.88
-0.7050781,0.1396484,-0.8986816,18.69466,-14.0916,10.70229,104.88,-116.84,-12.88
-0.7299805,0.1445313,-0.9226074,11.03817,-25.75573,21.94657,105.8,-115.0,-11.96
-0.7324219,0.1369629,-0.9245605,5.099236,-23.54962,33.45802,105.8,-115.0,-11.96
-0.6865234,0.1455078,-0.875,-3.29771,-22.51145,37.07634,105.8,-115.0,-11.96
-0.6459961,0.1369629,-0.8591309,-4.068702,-30.78626,38.45038,104.88,-114.08,-4.6
-0.6635742,0.1442871,-0.8815918,1.396947,-36.85496,41.63359,104.88,-114.08,-4.6
-0.6867676,0.1699219,-0.8562012,-6.030534,-36.93893,46.0687,103.04,-113.16,3.68
-0.6870117,0.1506348,-0.8208008,-19.0687,-40.76336,57.26717,103.04,-113.16,3.68
-0.6479492,0.1245117,-0.840332,-19.9771,-45.62595,57.43512,103.04,-113.16,3.68
-0.6418457,0.1328125,-0.8251953,-11.73282,-35.50382,52.65649,101.2,-110.4,16.56
-0.614502,0.1555176,-0.8085938,-10.25191,-32.71756,40.58779,101.2,-110.4,16.56
-0.6333008,0.2224121,-0.8383789,-16.05343,-31.16031,36.50382,101.2,-110.4,16.56
-0.6489258,0.2346191,-0.8251953,-18.9084,-28.80916,43.41221,100.28,-105.8,26.68
-0.6396484,0.2456055,-0.802002,-25.39695,-25.46565,43.25191,100.28,-105.8,26.68
-0.6352539,0.279541,-0.7919922,-31.36641,-33.59542,34.82443,97.52,-101.2,35.88
-0.6367188,0.293457,-0.779541,-45.54198,-23.38931,28.62595,94.76,-97.52,43.24
-0.6418457,0.3212891,-0.7475586,-53.8168,-30.22901,25.72519,94.76,-97.52,43.24
-0.6181641,0.2883301,-0.7233887,-49.56488,-28.17557,24.21374,94.76,-97.52,43.24
-0.6108398,0.255127,-0.7023926,-36.60305,-15.62595,12.73282,92.92,-90.16,49.68
-0.6025391,0.2194824,-0.6833496,-33.61832,-10.19084,6.145038,92.92,-90.16,49.68
-0.5864258,0.2426758,-0.6369629,-36.60305,-11.67176,0.05343511,92.92,-90.16,49.68
-0.6618652,0.248291,-0.5686035,-29.64886,-15.77099,-42.67176,96.6,-83.72,48.76
-0.6176758,0.2009277,-0.5671387,-37.67176,-13.01527,-28.16794,96.6,-83.72,48.76
-0.5598145,0.2126465,-0.5771484,-41.9771,-7.725191,-27.00763,96.6,-83.72,48.76
-0.5981445,0.1711426,-0.5358887,-33.19084,2.351145,-56.39695,101.2,-78.2,45.08
-0.5620117,0.1965332,-0.484375,-26.24427,12.81679,-42.52672,101.2,-78.2,45.08
-0.6291504,0.109375,-0.4562988,-15.84733,7.572519,-61.99237,106.72,-76.36,37.72
-0.5932617,0.1430664,-0.4633789,-17.89313,4.259542,-57.83206,106.72,-76.36,37.72
-0.5898438,0.09301758,-0.4775391,-9.641221,6.564886,-73.74809,106.72,-76.36,37.72
-0.6420898,0.04492188,-0.4987793,-5.900764,15.16031,-74.00764,114.08,-73.6,30.36
-0.6933594,0.04345703,-0.4821777,-8.473283,9.854961,-66.19084,114.08,-73.6,30.36
-0.7333984,0.02075195,-0.5019531,-7.870229,8.496183,-62.03053,114.08,-73.6,30.36
-0.7001953,-0.02661133,-0.5214844,10.80916,35.31298,-64.77863,119.6,-73.6,21.16
-0.7375488,-0.02734375,-0.5224609,21.58015,44.57252,-75.12214,119.6,-73.6,21.16
-0.7727051,0.02172852,-0.5200195,17.0458,16.96947,-76.25191,123.28,-75.44,11.04
-0.7792969,-0.03198242,-0.5351563,29.41221,40.57252,-59.86259,123.28,-75.44,11.04
-0.8569336,0.02856445,-0.560791,39.1145,31.89313,-58.39695,123.28,-75.44,11.04
-0.8896484,-0.02319336,-0.6391602,36.16031,18.0687,-41.93893,127.88,-77.28,-1.84
-0.7741699,-0.1015625,-0.6760254,33.56488,51.86259,-57.07634,127.88,-77.28,-1.84
-0.8215332,-0.1408691,-0.6853027,31.84733,73.91603,-76.40458,127.88,-77.28,-1.84
-0.9147949,-0.02612305,-0.6916504,17.32825,54.16031,-68.64886,128.8,-80.96,-14.72
-0.9023438,0.02099609,-0.7526855,24.96183,51.64122,-26.45802,128.8,-80.96,-14.72
-0.9179688,-0.01904297,-0.7543945,24.0,36.05344,-23.49618,127.88,-84.64,-24.84
-0.8415527,-0.06396484,-0.751709,20.61832,33.73283,-28.09924,127.88,-84.64,-24.84
-0.871582,-0.04150391,-0.7929688,16.44275,40.1832,-39.60305,127.88,-84.64,-24.84
-0.9682617,0.04321289,-0.7685547,-6.801527,26.91603,-30.90076,126.96,-86.48,-33.12
-0.9553223,0.05175781,-0.7233887,-23.36641,13.54198,-4.045802,126.96,-86.48,-33.12
-0.8793945,0.008056641,-0.7819824,-23.35114,27.72519,-1.496183,126.96,-86.48,-33.12
-0.9008789,-0.006835938,-0.7822266,-22.51908,42.19084,-7.580153,125.12,-89.24,-35.88
-0.8876953,0.06738281,-0.7885742,-26.54198,44.35878,7.931298,125.12,-89.24,-35.88
-0.8234863,0.06225586,-0.8068848,-32.48855,52.74046,30.19847,119.6,-96.6,-37.72
-0.8095703,0.01464844,-0.8034668,-27.8855,55.46565,21.25954,119.6,-96.6,-37.72
-0.7585449,0.001953125,-0.7780762,-33.37405,48.23664,23.54198,119.6,-96.6,-37.72
-0.7163086,-0.007080078,-0.7539063,-36.21374,32.84733,33.27481,115.0,-103.04,-34.04
-0.7143555,0.02661133,-0.7583008,-26.31298,37.29008,33.78626,115.0,-103.04,-34.04
-0.7185059,0.03637695,-0.7158203,-23.65649,35.19084,33.12977,115.0,-103.04,-34.04
-0.65625,0.05078125,-0.6801758,-16.35878,27.96947,34.01527,111.32,-107.64,-30.36
-0.6481934,0.03393555,-0.7404785,-13.94656,25.89313,39.1145,111.32,-107.64,-30.36
-0.7006836,0.06933594,-0.7587891,-27.16794,21.79389,58.12214,107.64,-111.32,-23.92
-0.611084,-0.01586914,-0.7023926,-34.27481,10.14504,46.45038,107.64,-111.32,-23.92
-0.5339355,0.01391602,-0.7207031,-25.76336,10.45802,51.31298,107.64,-111.32,-23.92
-0.6308594,0.01757813,-0.6762695,-21.51145,7.19084,21.58015,103.04,-115.0,-14.72
-0.4865723,0.06396484,-0.6323242,-18.14504,-2.526718,31.07634,103.04,-115.0,-14.72
-0.4887695,0.01342773,-0.6342773,-3.267176,-4.0,34.70229,103.04,-115.0,-14.72
-0.484375,0.01391602,-0.6948242,0.1908397,1.946565,34.48092,99.36,-116.84,-8.28
-0.4035645,0.003662109,-0.6960449,24.05343,20.1145,18.0,96.6,-117.76,-4.6
-0.4384766,0.02636719,-0.6936035,29.26718,9.61832,5.770992,96.6,-117.76,-4.6
-0.4626465,0.09423828,-0.704834,33.1145,9.236641,1.083969,96.6,-117.76,-4.6
-0.3972168,0.04882813,-0.717041,42.38168,18.99237,-7.068702,96.6,-118.68,-3.68
-0.3974609,0.02954102,-0.7607422,45.32824,14.80153,-3.458015,96.6,-118.68,-3.68
-0.4462891,0.01074219,-0.8078613,34.65649,-2.534351,-5.625954,97.52,-117.76,-4.6
-0.4631348,-0.01171875,-0.814209,33.0458,-3.519084,-14.57252,97.52,-117.76,-4.6
-0.4467773,0.007080078,-0.793457,45.29771,6.900764,-25.68702,97.52,-117.76,-4.6
-0.4052734,-0.04443359,-0.8112793,45.74809,12.33588,-30.17557,100.28,-115.92,-7.36
-0.4597168,-0.03222656,-0.786377,40.76336,11.59542,-29.74809,100.28,-115.92,-7.36
-0.4997559,-0.08276367,-0.8168945,34.23664,7.183206,-26.38168,100.28,-115.92,-7.36
-0.5151367,-0.1523438,-0.8408203,36.24427,7.183206,-31.54198,103.96,-114.08,-11.96
-0.4892578,-0.1088867,-0.8540039,40.67939,7.419847,-37.07634,103.96,-114.08,-11.96
-0.5656738,-0.1208496,-0.8596191,35.9084,-0.2748091,-44.8855,107.64,-112.24,-18.4
-0.6052246,-0.1520996,-0.8493652,35.35115,-9.305344,-42.27481,107.64,-112.24,-18.4
-0.6242676,-0.1210938,-0.8398438,36.16794,-5.290076,-42.72519,107.64,-112.24,-18.4
-0.6652832,-0.1174316,-0.8381348,33.03817,-12.45802,-34.0916,113.16,-108.56,-24.84
-0.720459,-0.09277344,-0.9016113,30.81679,-16.62595,-22.13741,113.16,-108.56,-24.84
-0.7092285,-0.109375,-0.8867188,29.83206,-2.694656,-14.89313,113.16,-108.56,-24.84
-0.7072754,-0.1162109,-0.8583984,31.65649,6.793893,-9.244275,115.92,-103.04,-29.44
-0.737793,-0.07128906,-0.8808594,24.90076,4.91603,2.312977,115.92,-103.04,-29.44
-0.7607422,-0.03833008,-0.8786621,14.80916,-3.862595,17.16794,115.92,-103.04,-31.28
-0.7668457,-0.02758789,-0.8818359,12.08397,-9.633588,36.80916,115.92,-103.04,-31.28
-0.7607422,-0.05932617,-0.8898926,4.152672,-15.96183,51.22901,115.92,-103.04,-31.28
-0.6865234,-0.03564453,-0.895752,-7.312977,-19.73282,55.80916,115.0,-104.88,-24.84
-0.6694336,-0.04614258,-0.8725586,-2.717557,-18.92366,63.27481,115.0,-104.88,-24.84
-0.6418457,-0.07421875,-0.8745117,-2.473282,-30.38931,59.90076,115.0,-104.88,-24.84
-0.7434082,0.002929688,-0.9121094,-3.29771,-34.76336,62.98473,112.24,-107.64,-14.72
-0.6789551,-0.001220703,-0.8962402,-9.0,-31.15267,62.31298,112.24,-107.64,-14.72
-0.6398926,0.01757813,-0.8891602,-4.908397,-24.74809,56.47328,111.32,-106.72,-1.84
-0.6867676,0.05444336,-0.8911133,-14.73282,-38.09924,51.23664,111.32,-106.72,-1.84
-0.7094727,0.09472656,-0.8847656,-26.0458,-40.0229,54.53435,111.32,-106.72,-1.84
-0.6330566,0.08666992,-0.8535156,-21.53435,-29.51145,55.67176,107.64,-103.96,11.04
-0.536377,0.09570313,-0.802002,-16.32825,-22.65649,48.53435,107.64,-103.96,11.04
-0.4958496,0.07617188,-0.8146973,-20.70229,-25.99237,45.45802,107.64,-103.96,11.04
-0.5947266,0.09643555,-0.8303223,-31.22901,-28.42748,39.50382,105.8,-100.28,20.24
-0.5869141,0.1193848,-0.8100586,-32.41221,-28.9084,36.91603,105.8,-100.28,20.24
-0.5495605,0.08398438,-0.7751465,-31.56489,-31.15267,22.47328,103.04,-95.68,28.52
-0.5441895,0.1018066,-0.8068848,-28.31298,-20.93893,21.77863,103.04,-95.68,28.52
-0.5686035,0.1357422,-0.7497559,-35.87786,-23.33588,11.52672,103.04,-95.68,28.52
-0.5354004,0.1413574,-0.685791,-35.1145,-24.93893,5.068702,103.96,-89.24,33.12
-0.4750977,0.138916,-0.6591797,-31.38168,-18.24427,-1.648855,103.96,-89.24,33.12
-0.4870605,0.1491699,-0.6381836,-34.67939,-8.984733,-5.274809,103.96,-89.24,33.12
-0.4956055,0.125,-0.6162109,-31.56489,-5.564886,-14.52672,106.72,-81.88,33.12
-0.4987793,0.08935547,-0.5996094,-25.0687,-14.87786,-25.81679,106.72,-81.88,33.12
-0.5109863,0.04907227,-0.6445313,-21.29008,-8.969465,-32.78626,110.4,-77.28,28.52
-0.5495605,0.02905273,-0.6203613,-19.27481,0.3587786,-44.66412,110.4,-77.28,28.52
-0.5776367,0.02734375,-0.5830078,-17.59542,7.045802,-47.03053,110.4,-77.28,28.52
-0.3181152,-0.0949707,-0.5244141,-17.0229,6.175572,-51.80153,115.0,-76.36,21.16
-0.5974121,-0.01708984,-0.5219727,-10.77099,2.656489,-51.41985,115.0,-76.36,21.16
-0.6779785,-0.126709,-0.6865234,21.49618,44.24427,-84.41985,119.6,-77.28,11.96
-0.6164551,-0.09472656,-0.638916,42.74046,88.19847,-105.916,119.6,-77.28,11.96
-0.6086426,-0.1130371,-0.59375,52.73283,112.9313,-100.687,124.2,-80.04,0.0
-0.6936035,-0.1018066,-0.5598145,51.67939,88.21374,-82.32825,124.2,-80.04,0.0
-0.6723633,-0.112793,-0.6586914,40.32824,61.71756,-67.25191,124.2,-80.04,0.0
-0.6914063,-0.1169434,-0.7116699,43.12214,63.38931,-61.47328,125.12,-86.48,-17.48
-0.6774902,-0.1401367,-0.7558594,42.46565,69.06107,-55.54962,125.12,-86.48,-17.48
-0.6101074,-0.1750488,-0.777832,35.48092,64.25954,-45.38931,125.12,-89.24,-32.2
-0.670166,-0.1633301,-0.8400879,21.70229,33.32824,-31.0229,125.12,-89.24,-32.2
-0.6660156,-0.1955566,-0.8911133,4.038168,15.69466,-25.29771,125.12,-89.24,-32.2
-0.6711426,-0.2209473,-0.932373,4.122138,26.08397,-23.72519,124.2,-92.0,-41.4
-0.7602539,-0.159668,-0.9414063,3.839695,23.90076,-31.85496,124.2,-92.0,-41.4
-0.7739258,-0.1120605,-0.9677734,-7.824428,17.0687,-20.83206,124.2,-92.0,-41.4
-0.8234863,-0.1000977,-0.980957,-24.13741,21.22901,-11.0687,121.44,-93.84,-50.6
-0.8146973,-0.08081055,-0.9641113,-32.05344,19.03053,-4.633588,121.44,-93.84,-50.6
-0.7807617,-0.08398438,-0.9433594,-26.90076,20.31298,0.389313,119.6,-95.68,-55.2
-0.7880859,-0.09057617,-0.949707,-22.26718,21.38931,-1.557252,119.6,-95.68,-55.2
-0.8093262,-0.08984375,-0.9321289,-30.71756,23.9542,-0.7099237,119.6,-95.68,-55.2
-0.8300781,-0.06616211,-0.9145508,-38.70992,23.51145,4.351145,116.84,-99.36,-57.04
-0.8430176,-0.0612793,-0.8464355,-47.59542,20.54962,15.1145,116.84,-99.36,-57.04
-0.7802734,-0.08569336,-0.7941895,-47.67939,19.61832,18.24427,116.84,-99.36,-57.04
-0.7629395,-0.09155273,-0.7583008,-54.64885,14.33588,12.66412,113.16,-103.96,-54.28
-0.7211914,-0.08227539,-0.7268066,-47.24427,0.1832061,25.96183,113.16,-103.96,-54.28
-0.7021484,-0.0847168,-0.6501465,-51.9542,-29.12214,35.85496,111.32,-106.72,-46.0
-0.6665039,-0.1018066,-0.6271973,-58.03817,-55.47328,42.54198,111.32,-106.72,-46.0
-0.6118164,-0.1306152,-0.6010742,-51.80153,-72.69466,49.53435,111.32,-106.72,-46.0
-0.7321777,-0.09423828,-0.6328125,-43.25191,-86.67175,60.94656,112.24,-106.72,-33.12
-0.6657715,-0.1137695,-0.652832,-47.91603,-92.06107,55.19084,112.24,-106.72,-33.12
-0.6196289,-0.109375,-0.6201172,-28.64122,-77.29771,48.38168,112.24,-106.72,-33.12
-0.6262207,-0.09936523,-0.6010742,-8.274809,-61.24427,46.78626,114.08,-101.2,-16.56
-0.637207,-0.06396484,-0.5803223,1.954198,-51.53435,51.79389,114.08,-101.2,-16.56
-0.6665039,-0.04125977,-0.5463867,-0.8778625,-58.92366,53.09924,114.08,-95.68,-4.6
-0.6279297,-0.05493164,-0.5534668,8.251908,-69.36641,43.83969,114.08,-95.68,-4.6
-0.6176758,-0.03393555,-0.5769043,29.14504,-54.09924,41.80153,114.08,-95.68,-4.6
-0.6164551,-0.04077148,-0.5900879,37.09924,-32.45802,39.0229,115.92,-88.32,5.52
-0.564209,-0.06982422,-0.625,45.37405,-18.49618,26.48092,115.92,-88.32,5.52
-0.505127,-0.06176758,-0.6870117,51.66412,-14.79389,21.73282,115.92,-88.32,5.52
-0.4538574,-0.1064453,-0.7277832,59.58015,3.320611,14.07634,115.0,-82.8,12.88
-0.3591309,-0.1237793,-0.7307129,60.50382,36.15267,0.3358779,115.0,-82.8,12.88
-0.2490234,-0.09375,-0.7583008,63.77863,45.27481,-19.70992,113.16,-83.72,16.56
-0.4287109,-0.005371094,-0.7805176,62.1832,31.43511,-23.61069,113.16,-83.72,16.56
-0.5266113,0.06030273,-0.7949219,51.79389,32.54962,-16.35114,113.16,-83.72,16.56
-0.5214844,0.01831055,-0.7900391,51.72519,42.0229,-9.160305,114.08,-88.32,14.72
-0.4836426,0.08251953,-0.8596191,52.10687,54.49618,-21.47328,114.08,-88.32,14.72
-0.5310059,0.1254883,-0.8811035,41.20611,57.74046,-28.41221,114.08,-88.32,14.72
-0.5671387,0.08959961,-0.8876953,40.49618,59.22901,-24.99237,113.16,-94.76,8.28
-0.5656738,0.06494141,-0.8876953,39.12977,60.63359,-29.25954,113.16,-94.76,8.28
-0.5561523,0.08007813,-0.9104004,30.31298,69.45038,-29.25954,113.16,-101.2,-0.92
-0.5319824,0.02514648,-0.8747559,24.72519,73.0687,-23.42748,113.16,-101.2,-0.92
-0.5722656,-0.0300293,-0.859375,24.21374,57.45038,-30.53435,113.16,-101.2,-0.92
-0.5893555,-0.04931641,-0.8864746,26.82443,36.56488,-48.46565,110.4,-108.56,-10.12
-0.6623535,-0.1665039,-0.8833008,17.50382,18.23664,-61.80916,113.16,-108.56,-23.92
-0.7116699,-0.1958008,-0.9018555,5.732824,1.267176,-58.26717,113.16,-108.56,-23.92
-0.737793,-0.2226563,-0.8837891,1.938931,1.984733,-58.87786,113.16,-108.56,-23.92
-0.7680664,-0.208252,-0.814209,4.251908,7.519084,-55.99237,115.0,-105.8,-34.96
-0.7893066,-0.1970215,-0.7441406,8.496183,7.412214,-47.61832,115.0,-105.8,-34.96
-0.7768555,-0.2036133,-0.7214355,14.59542,12.46565,-36.51145,115.92,-103.96,-43.24
-0.7509766,-0.2045898,-0.7163086,25.38931,18.12214,-25.29008,115.92,-103.96,-43.24
-0.7438965,-0.1923828,-0.7124023,30.72519,24.07634,-9.183207,115.92,-103.96,-43.24
-0.7143555,-0.1989746,-0.7216797,35.57252,13.99237,2.984733,116.84,-102.12,-46.92
-0.7138672,-0.1794434,-0.7614746,24.70992,-4.282443,18.51908,116.84,-102.12,-46.92
-0.6896973,-0.2004395,-0.7910156,20.86259,-8.297709,32.22137,116.84,-102.12,-46.92
-0.6911621,-0.2084961,-0.8012695,28.34351,-5.053435,41.8168,116.84,-102.12,-43.24
-0.6655273,-0.1889648,-0.8400879,32.85496,-0.1984733,48.1832,116.84,-102.12,-43.24
-0.6645508,-0.1911621,-0.8684082,25.61069,-4.725191,56.77099,116.84,-102.12,-43.24
-0.6679688,-0.154541,-0.9228516,14.79389,-17.71756,68.91603,116.84,-103.04,-36.8
-0.6533203,-0.1086426,-0.9311523,4.129771,-37.99237,82.40458,116.84,-103.04,-36.8
-0.6374512,-0.1213379,-0.9616699,-8.282443,-60.92366,91.57252,116.84,-103.96,-23.0
-0.6362305,-0.1098633,-1.038574,-29.22137,-69.00764,97.38168,116.84,-103.96,-23.0
-0.6191406,-0.1054688,-1.015137,-49.76336,-78.771,103.626,116.84,-103.96,-23.0
-0.6286621,-0.0637207,-1.019775,-64.91603,-78.70229,106.771,114.08,-102.12,-0.92
-0.6472168,-0.01025391,-1.016602,-77.38168,-52.29771,97.74809,114.08,-102.12,-0.92
-0.6286621,0.01879883,-0.9543457,-75.229,-33.98473,78.61832,114.08,-99.36,19.32
-0.6022949,0.05639648,-0.9289551,-71.9771,-16.71756,58.01527,108.56,-99.36,19.32
-0.5742188,0.1171875,-0.8686523,-73.85497,-13.15267,45.0,108.56,-99.36,19.32
-0.5480957,0.1298828,-0.8349609,-73.74046,-19.76336,35.0687,103.96,-96.6,27.6
-0.5429688,0.1308594,-0.8066406,-66.52672,-21.26718,26.09924,103.96,-96.6,27.6
-0.5285645,0.1235352,-0.7844238,-64.51145,-21.12977,15.70229,103.96,-96.6,27.6
-0.5249023,0.1164551,-0.7492676,-66.71756,-15.38931,8.068703,103.96,-90.16,33.12
-0.5322266,0.08935547,-0.6828613,-66.10687,-6.564886,-2.664122,103.96,-90.16,33.12
-0.5395508,0.09179688,-0.6206055,-53.94656,4.145038,-18.07634,103.96,-90.16,33.12
-0.5422363,0.0793457,-0.5905762,-40.1145,5.137404,-31.41221,105.8,-86.48,30.36
-0.5561523,0.08886719,-0.6062012,-36.71756,13.03053,-37.49618,105.8,-86.48,30.36
-0.543457,0.07055664,-0.5761719,-38.54962,28.13741,-38.33588,109.48,-86.48,22.08
-0.5400391,0.03393555,-0.4997559,-26.9542,37.59542,-48.85496,109.48,-86.48,22.08
-0.5583496,0.03173828,-0.4450684,-15.91603,36.25954,-56.58015,109.48,-86.48,22.08
-0.5876465,0.01464844,-0.4519043,-6.229008,29.05343,-50.86259,113.16,-89.24,11.96
-0.6376953,-0.05273438,-0.4936523,-10.44275,4.458015,-48.89313,113.16,-89.24,11.96
-0.6628418,-0.05883789,-0.5332031,-16.54198,1.89313,-53.42748,113.16,-89.24,11.96
-0.6347656,-0.04418945,-0.5021973,-13.8855,25.01527,-57.77863,116.84,-90.16,3.68
-0.6171875,-0.06567383,-0.4250488,1.832061,36.19084,-61.39695,116.84,-90.16,3.68
-0.654541,-0.06298828,-0.4372559,16.03053,28.80916,-61.0458,118.68,-92.0,-5.52
-0.699707,-0.04638672,-0.5305176,24.13741,20.51908,-65.03053,118.68,-92.0,-5.52
-0.6994629,-0.07226563,-0.5734863,29.82443,26.22137,-63.87786,118.68,-92.0,-5.52
-0.7036133,-0.1191406,-0.5876465,35.32824,36.91603,-61.52672,121.44,-92.0,-17.48
-0.8083496,-0.1435547,-0.6416016,40.1832,36.73283,-60.58015,121.44,-92.0,-17.48
-0.8601074,-0.1274414,-0.7231445,37.80153,43.61069,-57.1145,121.44,-92.0,-17.48
-0.8662109,-0.1499023,-0.7116699,42.80916,64.87023,-55.69466,122.36,-92.0,-27.6
-0.8632813,-0.1401367,-0.7443848,40.61832,69.64122,-46.98473,122.36,-92.0,-27.6
-0.8842773,-0.1799316,-0.755127,37.33588,63.87023,-36.37405,121.44,-95.68,-37.72
-0.9291992,-0.1491699,-0.7614746,24.62595,53.89313,-30.30534,121.44,-95.68,-37.72
-0.9199219,-0.07910156,-0.7199707,55.06107,59.94656,-11.87786,118.68,-98.44,-44.16
-0.8581543,-0.015625,-0.7185059,52.73283,46.25954,6.305344,118.68,-98.44,-44.16
-0.8442383,-0.01318359,-0.7705078,43.74809,26.59542,19.23664,118.68,-98.44,-46.92
-0.8435059,-0.04980469,-0.8537598,25.25191,13.1145,43.43512,118.68,-98.44,-46.92
-0.7932129,-0.1152344,-0.8833008,13.9542,14.40458,56.40458,118.68,-98.44,-46.92
-0.71875,-0.1184082,-0.8771973,7.145038,20.9771,49.72519,117.76,-100.28,-43.24
-0.6933594,-0.0847168,-0.8952637,-2.259542,17.45038,56.91603,117.76,-100.28,-43.24
-0.7175293,-0.0847168,-0.8920898,-8.015267,7.870229,64.51908,114.08,-105.8,-35.88
-0.6853027,-0.0612793,-0.8693848,-3.19084,0.2137404,62.17557,114.08,-105.8,-35.88
-0.637207,-0.0534668,-0.8786621,5.259542,-2.671756,67.03053,114.08,-105.8,-35.88
-0.6347656,-0.07470703,-0.8613281,5.290076,-4.89313,70.63359,112.24,-108.56,-25.76
-0.6374512,-0.01171875,-0.8688965,-15.49618,-13.66412,82.85497,112.24,-108.56,-25.76
-0.5466309,-0.08740234,-0.8769531,-14.85496,-11.91603,85.78626,112.24,-108.56,-25.76
-0.5314941,-0.08007813,-0.8503418,-8.732824,-12.1374,77.43511,108.56,-111.32,-13.8
-0.510498,-0.04956055,-0.8554688,-7.832061,-9.335877,72.03053,108.56,-111.32,-13.8
-0.5168457,-0.02929688,-0.8461914,-18.75573,-10.0458,70.96947,108.56,-111.32,-13.8
-0.534668,-0.01123047,-0.7861328,-29.19084,-26.89313,66.26717,104.88,-113.16,-2.76
-0.5620117,0.01928711,-0.7248535,-35.00763,-48.98473,65.57252,104.88,-113.16,-2.76
-0.5700684,0.02294922,-0.697998,-28.0458,-54.40458,64.34351,103.04,-109.48,11.04
-0.5515137,0.01831055,-0.6723633,-15.35114,-46.14504,58.38168,103.04,-109.48,11.04
-0.5366211,0.01855469,-0.671875,-3.022901,-27.75573,48.12977,103.04,-109.48,11.04
-0.5222168,0.00390625,-0.6298828,4.480916,-22.81679,32.19847,99.36,-105.8,23.92
-0.5068359,0.02880859,-0.6264648,11.10687,-27.25191,17.19084,99.36,-105.8,23.92
-0.4729004,0.03198242,-0.6481934,23.25954,-16.90076,7.885496,99.36,-105.8,23.92
-0.4321289,0.02099609,-0.6398926,32.70992,-0.4427481,-11.70992,99.36,-102.12,28.52
-0.4133301,0.01196289,-0.6750488,29.09924,-5.129771,-20.9542,99.36,-102.12,28.52
-0.4536133,0.02587891,-0.6862793,29.13741,-15.0229,-33.48855,102.12,-101.2,25.76
-0.5490723,0.07226563,-0.7714844,33.33588,-28.9313,-49.9084,102.12,-101.2,25.76
-0.5495605,0.04589844,-0.8012695,30.65649,-11.42748,-47.58015,102.12,-101.2,25.76
-0.5588379,0.003662109,-0.7573242,19.1145,9.0,-53.46565,106.72,-99.36,21.16
-0.6020508,0.02514648,-0.7512207,24.68702,21.51908,-58.33588,106.72,-99.36,21.16
-0.5812988,0.001464844,-0.7646484,27.08397,40.56488,-55.57252,110.4,-100.28,11.96
-0.5905762,-0.1247559,-0.6330566,27.60305,47.74046,-56.33588,110.4,-100.28,11.96
-0.6188965,-0.03149414,-0.7368164,24.25191,45.63359,-59.67176,110.4,-100.28,11.96
-0.7480469,0.02050781,-0.7849121,15.21374,43.25954,-54.71756,112.24,-103.96,0.0
-0.7058105,0.03930664,-0.8833008,17.70992,23.64886,-21.0458,112.24,-103.96,0.0
-0.6960449,-0.04785156,-0.932373,24.27481,29.51908,-27.72519,112.24,-103.96,0.0
-0.7128906,-0.0546875,-0.9265137,22.13741,47.66412,-24.9771,113.16,-104.88,-8.28
-0.751709,0.01782227,-0.9660645,10.23664,33.06107,-32.38931,113.16,-104.88,-8.28
-0.7976074,0.06054688,-0.9577637,0.4351145,30.69466,-24.45038,115.0,-104.88,-16.56
-0.8977051,0.1147461,-0.8508301,-9.770992,14.83206,1.412214,115.0,-104.88,-16.56
-0.8352051,0.1081543,-0.9042969,-22.41221,-0.7022901,6.91603,115.0,-104.88,-16.56
-0.8161621,0.08862305,-0.9418945,-27.9542,-0.4122138,3.877863,113.16,-106.72,-16.56
-0.7956543,0.1008301,-0.921875,-31.30534,6.671756,6.496183,113.16,-106.72,-16.56
-0.7529297,0.07128906,-0.8901367,-33.65649,0.129771,15.69466,113.16,-106.72,-16.56
-0.7070313,0.04321289,-0.8498535,-40.0458,-7.129771,18.61069,113.16,-106.72,-14.72
-0.6621094,-0.009277344,-0.8305664,-43.36641,-10.65649,20.89313,113.16,-106.72,-14.72
-0.6503906,-0.05786133,-0.845459,-50.40458,-20.29771,16.86259,113.16,-104.88,-9.2
-0.6520996,-0.04370117,-0.8430176,-63.89313,-35.71756,19.46565,113.16,-104.88,-9.2
-0.6584473,-0.04711914,-0.8041992,-66.35114,-40.19084,21.77099,113.16,-104.88,-9.2
-0.5610352,-0.1040039,-0.6984863,-52.84733,-11.20611,-7.938931,113.16,-102.12,-0.92
-0.5505371,-0.1062012,-0.6384277,-47.1832,-12.27481,-17.45038,114.08,-98.44,0.92
-0.5405273,-0.1203613,-0.6237793,-39.08397,-15.71756,-21.74046,114.08,-98.44,0.92
-0.552002,-0.08374023,-0.6281738,-43.22137,-8.625955,-20.74046,114.08,-98.44,0.92
-0.5500488,-0.1015625,-0.5703125,-40.06107,-3.664122,-22.50382,115.92,-95.68,-0.92
-0.4050293,-0.07543945,-0.5854492,-31.94657,2.083969,-25.54198,115.92,-95.68,-0.92
-0.5202637,-0.1398926,-0.5412598,-23.31298,-5.038168,-39.25191,115.92,-95.68,-0.92
-0.546875,-0.1523438,-0.5263672,-13.05344,-5.633588,-52.94656,117.76,-93.84,-5.52
-0.6608887,-0.1132813,-0.512207,-16.45802,3.519084,-56.08397,117.76,-93.84,-5.52
-0.661377,-0.1044922,-0.4702148,-3.694656,9.870229,-56.74809,120.52,-92.0,-13.8
-0.5993652,-0.1166992,-0.4799805,11.10687,20.0229,-58.54962,120.52,-92.0,-13.8
-0.5776367,-0.1542969,-0.5014648,25.68702,25.03053,-69.19847,120.52,-92.0,-13.8
-0.612793,-0.170166,-0.5422363,42.82443,21.38931,-81.32061,122.36,-91.08,-23.92
-0.6083984,-0.1623535,-0.5615234,49.0,45.38931,-83.54198,122.36,-91.08,-23.92
-0.654541,-0.1728516,-0.5285645,51.25191,55.19847,-75.24428,122.36,-91.08,-23.92
-0.7397461,-0.2043457,-0.5734863,51.59542,36.25191,-64.32825,124.2,-90.16,-39.56
-0.8339844,-0.1879883,-0.6809082,69.41222,51.21374,-63.0229,124.2,-90.16,-39.56
-0.8837891,-0.1459961,-0.7019043,89.91603,71.07633,-54.76336,123.28,-89.24,-54.28
-0.9694824,-0.09790039,-0.6992188,61.86259,53.48092,-27.69466,123.28,-89.24,-54.28
-0.9216309,-0.1489258,-0.7321777,44.03817,23.20611,-6.045802,123.28,-89.24,-54.28
-0.9335938,-0.1801758,-0.7993164,31.34351,7.10687,13.54962,123.28,-87.4,-62.56
-0.9431152,-0.1445313,-0.9240723,24.61832,8.526717,34.77099,123.28,-87.4,-62.56
-0.8557129,-0.1604004,-0.8364258,12.93893,8.206107,35.66412,123.28,-87.4,-62.56
-0.8354492,-0.1623535,-0.8535156,25.8855,-0.9694656,38.70229,122.36,-91.08,-57.96
-0.8076172,-0.1523438,-0.8515625,34.16794,-6.022901,53.79389,122.36,-91.08,-57.96
-0.7319336,-0.1662598,-0.8349609,31.75573,-19.37405,55.42748,124.2,-91.08,-47.84
-0.737793,-0.1608887,-0.8422852,22.74809,-36.89313,66.83969,124.2,-91.08,-47.84
-0.7802734,-0.1413574,-0.8227539,5.40458,-48.65649,90.90839,124.2,-91.08,-47.84
-0.7419434,-0.1765137,-0.7978516,-4.763359,-52.61832,111.6412,126.96,-88.32,-33.12
-0.7133789,-0.1691895,-0.7880859,-10.59542,-60.90076,108.916,126.96,-88.32,-33.12
-0.7316895,-0.1569824,-0.7817383,-16.13741,-51.12977,101.0687,126.96,-88.32,-33.12
-0.7583008,-0.1606445,-0.7026367,-15.84733,-37.92366,87.38168,125.12,-88.32,-10.12
-0.7800293,-0.09228516,-0.7333984,-3.053435,-14.38931,90.9771,125.12,-88.32,-10.12
-0.78125,-0.09301758,-0.7277832,-1.778626,-2.244275,91.24428,125.12,-88.32,5.52
-0.6833496,-0.1010742,-0.7167969,10.40458,8.931297,91.84733,119.6,-90.16,5.52
-0.6738281,-0.09838867,-0.7280273,14.55725,26.67175,80.22137,119.6,-90.16,5.52
-0.6237793,-0.1030273,-0.7185059,17.35114,42.76336,74.0687,113.16,-92.92,18.4
-0.5893555,-0.104248,-0.6674805,18.74809,43.78626,66.35878,113.16,-92.92,18.4
-0.5458984,-0.06689453,-0.6540527,12.98473,33.0916,53.82443,113.16,-92.92,18.4
-0.5231934,-0.04492188,-0.654541,11.55725,34.40458,43.16031,104.88,-97.52,24.84
-0.5192871,-0.0546875,-0.6286621,7.580153,26.74046,25.39695,104.88,-97.52,24.84
-0.5351563,-0.03979492,-0.6555176,0.7557252,16.09924,24.85496,98.44,-103.04,27.6
-0.5036621,-0.03125,-0.6157227,7.778626,4.900764,23.92366,98.44,-103.04,27.6
-0.4150391,-0.04638672,-0.6242676,29.34351,10.85496,17.0,98.44,-103.04,27.6
-0.3786621,-0.06396484,-0.6533203,47.98473,18.18321,-10.61832,94.76,-105.8,29.44
-0.4643555,-0.04272461,-0.6865234,49.47328,14.72519,-35.49618,94.76,-105.8,29.44
-0.5683594,0.004394531,-0.685791,50.50382,8.862596,-39.19084,94.76,-105.8,29.44
-0.4985352,0.03955078,-0.7133789,62.9313,23.90076,-31.78626,98.44,-107.64,23.0
-0.4440918,-0.03564453,-0.8061523,69.55725,45.9084,-38.77099,98.44,-107.64,23.0
-0.4460449,-0.05493164,-0.8408203,59.22137,39.39695,-56.79389,98.44,-107.64,23.0
-0.5288086,-0.001220703,-0.8811035,54.08397,45.58015,-63.56488,100.28,-111.32,12.88
-0.6342773,0.02856445,-0.8964844,53.74046,36.77863,-51.65649,103.04,-113.16,-1.84
-0.6989746,0.007080078,-1.013916,35.61832,17.0687,-40.16794,103.04,-113.16,-1.84
-0.628418,-0.01953125,-1.105469,24.17557,23.32825,-20.29771,105.8,-113.16,-11.96
-0.6259766,-0.1047363,-1.035156,13.24428,36.38931,-28.06107,105.8,-113.16,-11.96
-0.6413574,-0.04833984,-0.9763184,0.351145,30.96183,-33.75573,105.8,-113.16,-11.96
-0.6706543,-0.01098633,-0.9716797,-5.076336,20.47328,-19.18321,106.72,-114.08,-19.32
-0.697998,-0.06103516,-1.012939,-21.61069,7.305344,-14.94656,106.72,-114.08,-19.32
-0.699707,-0.08081055,-1.023926,-41.0458,-3.519084,-8.251908,106.72,-114.08,-19.32
-0.6853027,-0.1000977,-0.953125,-59.31298,-16.39695,0.1526718,107.64,-113.16,-21.16
-0.6535645,-0.1184082,-0.927002,-69.51145,-26.77863,7.396946,107.64,-113.16,-21.16
-0.6328125,-0.1425781,-0.9550781,-78.29008,-38.26717,13.22901,108.56,-112.24,-16.56
-0.6447754,-0.1328125,-0.9453125,-82.12977,-37.91603,13.77863,108.56,-112.24,-16.56
-0.6279297,-0.1416016,-0.8911133,-97.06107,-39.9771,17.83969,108.56,-112.24,-16.56
-0.5996094,-0.1494141,-0.8127441,-102.1374,-35.63359,9.076336,109.48,-109.48,-8.28
-0.5805664,-0.1359863,-0.7631836,-90.1145,-25.32825,-0.961832,109.48,-109.48,-8.28
-0.5771484,-0.1611328,-0.7353516,-77.80916,-14.51145,-11.74046,109.48,-109.48,-8.28
-0.581543,-0.1650391,-0.699707,-83.52672,-24.67175,-15.0916,110.4,-106.72,-4.6
-0.5705566,-0.1696777,-0.6333008,-75.83969,-30.14504,-19.51908,110.4,-106.72,-4.6
-0.5646973,-0.1386719,-0.5654297,-50.57252,-29.86259,-24.87786,112.24,-103.96,-4.6
-0.5270996,-0.1721191,-0.5969238,-38.48092,-17.9084,-33.92366,112.24,-103.96,-4.6
-0.5456543,-0.1455078,-0.5717773,-35.98473,-10.1145,-39.83969,112.24,-103.96,-4.6
-0.5688477,-0.126709,-0.529541,-23.31298,-7.244275,-41.94656,114.08,-100.28,-8.28
-0.6032715,-0.114502,-0.4865723,-14.58015,-6.80916,-46.21374,114.08,-100.28,-8.28
-0.6308594,-0.104248,-0.4987793,-13.18321,-2.343511,-44.9313,114.08,-100.28,-8.28
-0.6437988,-0.09301758,-0.4943848,-8.106871,5.900764,-44.87786,116.84,-98.44,-11.96
-0.6547852,-0.09350586,-0.4980469,16.59542,10.12977,-43.1832,116.84,-98.44,-11.96
-0.6838379,-0.05664063,-0.5124512,35.0916,2.519084,-41.48855,118.68,-97.52,-20.24
-0.7275391,-0.03637695,-0.6157227,24.32825,-4.755725,-42.32824,118.68,-97.52,-20.24
-0.7634277,-0.04638672,-0.6567383,16.52672,-1.801527,-42.03817,118.68,-97.52,-20.24
-0.7353516,-0.06811523,-0.6635742,23.9542,-3.580153,-39.72519,121.44,-94.76,-27.6
-0.7485352,-0.05932617,-0.6760254,28.22901,-4.80916,-39.80153,121.44,-94.76,-27.6
-0.8093262,-0.02026367,-0.6970215,24.96183,0.4045802,-37.48092,121.44,-94.76,-27.6
-0.8654785,0.005859375,-0.7294922,27.85496,6.732824,-30.92366,123.28,-92.0,-33.12
-0.8745117,0.01098633,-0.6943359,32.22137,6.694656,-21.76336,123.28,-92.0,-33.12
-0.8781738,-0.01025391,-0.6884766,28.22137,-3.442748,-11.84733,125.12,-89.24,-36.8
-0.9418945,-0.001953125,-0.7109375,23.08397,-11.19084,-3.732824,125.12,-89.24,-36.8
-0.958252,0.03076172,-0.7458496,20.51145,-12.61832,6.931298,125.12,-89.24,-36.8
-0.9616699,0.02050781,-0.713623,13.64122,-9.709924,18.14504,126.04,-87.4,-34.96
-0.9211426,-0.007568359,-0.7424316,7.244275,-9.847328,36.45802,126.04,-87.4,-34.96
-0.8798828,-0.05834961,-0.762207,8.916031,-11.29008,41.40458,126.04,-87.4,-34.96
-0.8369141,-0.08178711,-0.7683105,15.0687,-7.885496,43.38168,125.12,-89.24,-30.36
-0.8029785,-0.09130859,-0.755127,7.625954,-1.793893,47.9084,125.12,-89.24,-30.36
-0.779541,-0.08374023,-0.7258301,-1.931298,-2.19084,56.89313,125.12,-89.24,-30.36
-0.7709961,-0.08569336,-0.6916504,4.419847,-5.70229,66.61832,125.12,-90.16,-22.08
-0.7888184,-0.05859375,-0.6425781,8.511451,-11.10687,67.92367,125.12,-90.16,-22.08
-0.8085938,-0.1210938,-0.6259766,7.0,-13.08397,78.16031,123.28,-89.24,-8.28
-0.7365723,-0.08349609,-0.6340332,3.206107,-13.03053,81.8855,123.28,-89.24,-8.28
-0.6801758,-0.08959961,-0.6320801,13.67176,-8.198473,80.56489,123.28,-89.24,-8.28
-0.6965332,-0.07202148,-0.6403809,17.71756,-2.29771,75.80153,120.52,-89.24,2.76
-0.5976563,-0.0637207,-0.6530762,32.45038,44.57252,47.61832,115.0,-91.08,12.88
-0.5927734,-0.04711914,-0.6262207,30.28244,43.51908,42.92366,115.0,-91.08,12.88
-0.5856934,-0.03173828,-0.6062012,21.52672,35.80916,40.9313,115.0,-91.08,12.88
-0.5515137,-0.01269531,-0.6181641,20.69466,34.17557,37.58779,109.48,-97.52,16.56
-0.5390625,-0.02124023,-0.6467285,23.24427,38.58015,37.38931,109.48,-97.52,16.56
-0.5385742,-0.02587891,-0.6555176,19.56489,40.96183,33.25954,103.04,-103.96,18.4
-0.5058594,-0.02490234,-0.685791,28.34351,40.48855,20.96183,103.04,-103.96,18.4
-0.4716797,-0.03466797,-0.7111816,46.72519,46.76336,7.320611,103.04,-103.96,18.4
-0.4934082,0.01000977,-0.7609863,53.15267,57.92366,-4.08397,98.44,-110.4,17.48
-0.489502,0.03344727,-0.7561035,47.28244,57.83206,-0.2366412,98.44,-110.4,17.48
-0.4204102,0.02026367,-0.7463379,53.07634,46.33588,1.748092,98.44,-110.4,17.48
-0.4521484,-0.004638672,-0.7854004,44.26717,20.75573,-13.76336,94.76,-116.84,12.88
-0.5310059,0.02832031,-0.8581543,25.61069,-2.908397,-27.19084,94.76,-116.84,12.88
-0.5339355,0.03637695,-0.8730469,35.94656,-6.267176,-37.05344,94.76,-118.68,7.36
-0.4790039,0.02148438,-0.8786621,55.62595,12.0458,-45.13741,94.76,-118.68,7.36
-0.5080566,0.01391602,-0.8808594,44.67176,7.526718,-55.44275,94.76,-118.68,7.36
-0.5964355,0.01171875,-0.9379883,29.35878,-13.87786,-59.39695,99.36,-117.76,-1.84
-0.6306152,0.02197266,-0.9475098,13.74809,-19.89313,-49.30534,99.36,-117.76,-1.84
-0.6491699,0.01538086,-0.9370117,8.267176,-19.06107,-46.16794,99.36,-117.76,-1.84
-0.6425781,0.008300781,-0.9389648,6.763359,-15.55725,-48.75573,104.88,-114.08,-10.12
-0.6252441,-0.02026367,-0.9350586,-1.038168,-13.35878,-50.68702,104.88,-114.08,-10.12
-0.6474609,-0.03466797,-0.9499512,-7.984733,-8.839695,-44.72519,110.4,-109.48,-15.64
-0.6057129,-0.06079102,-0.9213867,-4.08397,0.6564885,-42.54962,110.4,-109.48,-15.64
-0.6035156,-0.06518555,-0.8845215,-4.70229,2.29771,-45.87786,110.4,-109.48,-15.64
-0.6889648,-0.0246582,-0.894043,-14.32824,-0.4732824,-39.37405,114.08,-105.8,-21.16
-0.6816406,-0.03808594,-0.8874512,-23.76336,-0.5038168,-26.74046,114.08,-105.8,-21.16
-0.6687012,-0.06469727,-0.8830566,-27.60305,0.8015267,-22.12214,114.08,-105.8,-21.16
-0.7211914,-0.05761719,-0.9016113,-33.99237,-0.8854962,-15.10687,115.92,-104.88,-24.84
-0.7023926,-0.07250977,-0.8825684,-40.49618,2.396947,-0.9847328,115.92,-104.88,-24.84
-0.673584,-0.1228027,-0.9008789,-45.9771,2.290076,2.229008,115.92,-104.88,-24.84
-0.6628418,-0.1650391,-0.8806152,-45.70992,1.076336,-1.038168,115.92,-104.88,-24.84
-0.6430664,-0.1682129,-0.8293457,-42.30534,-2.083969,-10.64886,115.92,-104.88,-24.84
-0.6220703,-0.1450195,-0.7924805,-45.54962,0.007633588,-11.8626,115.92,-103.96,-25.76
-0.6113281,-0.1652832,-0.7473145,-50.32061,-12.24428,-7.427481,115.92,-103.96,-25.76
-0.6086426,-0.1879883,-0.7260742,-48.00763,-21.16031,-12.8855,115.92,-103.96,-25.76
-0.5710449,-0.1948242,-0.6567383,-39.85496,-24.9542,-23.54962,116.84,-102.12,-24.84
-0.5566406,-0.1748047,-0.6274414,-34.96183,-20.00763,-33.40458,116.84,-102.12,-24.84
-0.5712891,-0.1950684,-0.619873,-38.51145,-19.83206,-30.36641,118.68,-99.36,-27.6
-0.5939941,-0.2104492,-0.5993652,-43.60305,-23.0458,-22.87786,118.68,-99.36,-27.6
-0.5649414,-0.2053223,-0.5219727,-32.37405,-26.78626,-20.0229,118.68,-99.36,-27.6
-0.5544434,-0.2285156,-0.541748,-23.12977,-19.21374,-27.07634,120.52,-95.68,-29.44
-0.583252,-0.2216797,-0.5622559,-19.84733,-9.954199,-29.05343,120.52,-95.68,-29.44
-0.5986328,-0.2138672,-0.5178223,-16.79389,-6.259542,-29.93893,120.52,-95.68,-29.44
-0.6218262,-0.2260742,-0.5222168,-9.335877,-7.045802,-31.53435,121.44,-93.84,-33.12
-0.6313477,-0.2043457,-0.5351563,4.21374,-2.122137,-37.80153,121.44,-93.84,-33.12
-0.666748,-0.1704102,-0.5476074,10.50382,-1.763359,-38.51145,123.28,-92.92,-38.64
-0.7211914,-0.1716309,-0.5891113,27.16031,-11.64886,-41.41985,123.28,-92.92,-38.64
-0.7861328,-0.1281738,-0.5974121,22.09924,-12.34351,-45.39695,123.28,-92.92,-38.64
-0.840332,-0.1166992,-0.6716309,19.60305,-5.366412,-42.15267,124.2,-89.24,-45.08
-0.8959961,-0.09057617,-0.6647949,19.67175,-4.70229,-28.47328,124.2,-89.24,-45.08
-0.869873,-0.08154297,-0.7055664,31.9542,-9.419847,-13.21374,125.12,-86.48,-48.76
-0.927002,-0.07568359,-0.7595215,24.50382,-15.50382,-6.816794,125.12,-86.48,-48.76
-0.9570313,-0.03588867,-0.7592773,21.03817,-11.45802,9.061069,126.96,-83.72,-48.76
-0.9477539,-0.0534668,-0.7631836,19.0458,-10.9313,28.08397,126.96,-83.72,-48.76
-0.9384766,-0.0637207,-0.7683105,8.969465,-6.450382,41.77099,126.96,-83.72,-48.76
-0.9145508,-0.1010742,-0.7680664,5.145038,-0.4885496,50.15267,127.88,-82.8,-44.16
-0.9060059,-0.09619141,-0.7434082,1.687023,-1.435114,51.8168,127.88,-82.8,-44.16
-0.9067383,-0.1035156,-0.7392578,5.900764,-1.717557,61.51908,126.96,-85.56001,-34.96
-0.8647461,-0.1091309,-0.7131348,9.19084,-0.6030535,62.93893,126.96,-85.56001,-34.96
-0.8022461,-0.09350586,-0.6501465,-2.78626,-16.63359,70.72519,126.96,-85.56001,-34.96
-0.7529297,-0.1022949,-0.6176758,-13.35114,-27.75573,82.9313,126.04,-85.56001,-20.24
-0.7197266,-0.1125488,-0.6069336,-12.8626,-33.47328,90.54962,126.04,-85.56001,-20.24
-0.6931152,-0.1352539,-0.6066895,-6.221374,-40.54198,87.78626,126.04,-85.56001,-20.24
-0.6696777,-0.1240234,-0.6230469,-6.847328,-29.87023,83.8168,123.28,-84.64,-1.84
-0.6660156,-0.1311035,-0.6240234,0.0,-9.312977,77.24428,123.28,-84.64,-1.84
-0.6745605,-0.1152344,-0.6247559,12.9084,15.83206,66.61832,119.6,-82.8,11.96
-0.625,-0.09423828,-0.5905762,21.53435,40.54962,62.21374,119.6,-82.8,11.96
-0.5869141,-0.08007813,-0.5839844,28.35878,49.22137,52.73283,119.6,-82.8,11.96
-0.5957031,-0.0402832,-0.5913086,25.56489,43.72519,51.22137,113.16,-89.24,18.4
-0.5898438,-0.01269531,-0.6008301,19.48092,39.48855,57.32061,113.16,-89.24,18.4
-0.5324707,-0.01293945,-0.578125,36.07634,40.54962,50.78626,113.16,-89.24,18.4
-0.5119629,0.01049805,-0.5856934,41.25191,43.35878,41.41985,105.8,-95.68,22.08
-0.4929199,-0.01391602,-0.6032715,38.84733,31.51908,30.71756,105.8,-95.68,22.08
-0.4604492,0.005615234,-0.6276855,37.24427,23.0458,16.81679,100.28,-101.2,24.84
-0.4633789,0.04492188,-0.671875,39.90076,20.9084,3.740458,100.28,-101.2,24.84
-0.5158691,0.04980469,-0.7246094,44.29771,15.73282,-5.282443,100.28,-101.2,24.84
-0.5585938,0.05493164,-0.7766113,49.57252,11.30534,-15.68702,98.44,-106.72,23.0
-0.5395508,0.04638672,-0.8222656,55.05344,14.35114,-35.79389,98.44,-106.72,23.0
-0.5168457,0.0703125,-0.8745117,54.94656,31.38168,-47.35115,98.44,-106.72,23.0
-0.5087891,0.05078125,-0.9008789,61.65649,48.22137,-54.32061,101.2,-108.56,15.64
-0.5739746,0.1164551,-0.8815918,50.79389,41.9313,-59.9313,101.2,-108.56,15.64
-0.6105957,0.1635742,-0.9089355,39.77863,25.54198,-49.40458,103.96,-112.24,2.76
-0.6247559,0.1364746,-0.9799805,37.70229,25.01527,-48.1145,103.96,-112.24,2.76
-0.6542969,0.1108398,-1.038818,31.03817,23.78626,-51.79389,103.96,-112.24,2.76
-0.6682129,0.05932617,-1.067871,16.16031,19.91603,-44.32824,106.72,-112.24,-8.28
-0.6516113,0.006103516,-1.050537,3.648855,27.62595,-38.63359,106.72,-112.24,-8.28
-0.6538086,0.005859375,-0.996582,-11.94656,24.44275,-38.80153,106.72,-112.24,-8.28
-0.6367188,0.009033203,-0.9465332,-14.77863,22.65649,-37.39695,107.64,-112.24,-15.64
-0.6083984,-0.06323242,-0.9375,-11.64886,17.70229,-33.75573,107.64,-112.24,-15.64
-0.6223145,-0.07250977,-0.9450684,-22.0229,15.0458,-33.82443,108.56,-111.32,-22.08
-0.6247559,-0.09667969,-0.9025879,-32.8168,10.28244,-31.0687,108.56,-111.32,-22.08
-0.6137695,-0.1271973,-0.8815918,-35.61069,3.969466,-28.79389,108.56,-111.32,-22.08
-0.6484375,-0.1330566,-0.8913574,-42.72519,-6.770992,-23.07634,110.4,-110.4,-24.84
-0.6494141,-0.1748047,-0.920166,-54.00763,-14.96183,-17.56489,110.4,-110.4,-24.84
-0.6552734,-0.1860352,-0.8635254,-60.42748,-12.70992,-13.73282,110.4,-110.4,-24.84
-0.6352539,-0.1716309,-0.8310547,-64.82442,-19.19084,-11.64122,112.24,-108.56,-24.84
-0.6162109,-0.1809082,-0.8015137,-68.09924,-24.36641,-10.73282,112.24,-108.56,-24.84
-0.5673828,-0.1987305,-0.7285156,-69.1145,-33.50382,-18.42748,113.16,-106.72,-23.0
-0.5712891,-0.1965332,-0.6850586,-69.0229,-41.9313,-30.83969,113.16,-106.72,-23.0
-0.5566406,-0.1569824,-0.6623535,-68.69466,-40.0916,-26.71756,113.16,-106.72,-23.0
-0.4807129,-0.1762695,-0.5837402,-41.35878,-33.24427,-38.38931,116.84,-101.2,-22.08
-0.5039063,-0.1674805,-0.5788574,-31.16031,-26.37405,-47.1145,119.6,-95.68,-23.92
-0.5551758,-0.1489258,-0.5727539,-32.22901,-10.9084,-44.66412,119.6,-95.68,-23.92
-0.6083984,-0.1801758,-0.5671387,-31.67939,-2.022901,-43.31298,119.6,-95.68,-23.92
-0.6569824,-0.1921387,-0.5400391,-20.48092,3.480916,-49.69466,120.52,-93.84,-28.52
-0.729248,-0.1403809,-0.552002,3.229008,16.33588,-53.52672,120.52,-93.84,-28.52
-0.7731934,-0.09912109,-0.581543,17.9771,16.59542,-44.9084,120.52,-93.84,-28.52
-0.7575684,-0.09521484,-0.6281738,20.23664,-1.755725,-26.64886,121.44,-93.84,-35.88
-0.7355957,-0.1367188,-0.6542969,22.43511,-5.251908,-28.86259,121.44,-93.84,-35.88
-0.729248,-0.1088867,-0.6208496,15.67176,9.839695,-30.28244,124.2,-89.24,-43.24
-0.7531738,-0.07568359,-0.6391602,0.9083969,16.99237,-27.93893,124.2,-89.24,-43.24
-0.8344727,-0.07714844,-0.626709,-13.35114,11.35114,-18.40458,124.2,-89.24,-43.24
-0.7966309,-0.006835938,-0.6809082,10.09924,12.22137,-9.106871,121.44,-92.92,-48.76
-0.8356934,0.001953125,-0.6711426,26.79389,5.900764,-9.702291,121.44,-92.92,-48.76
-0.8759766,0.002441406,-0.717041,35.29008,-12.35114,-10.41221,121.44,-92.92,-48.76
-0.8996582,0.04150391,-0.7312012,33.77099,-24.00763,-7.732824,121.44,-92.92,-50.6
-0.911377,0.06323242,-0.7141113,23.12214,-29.96183,10.53435,121.44,-92.92,-50.6
-0.9379883,0.03466797,-0.7612305,14.91603,-34.73283,27.03817,125.12,-87.4,-47.84
-0.9819336,0.04516602,-0.7717285,4.076336,-39.07634,43.56488,125.12,-87.4,-47.84
-1.009277,0.03320313,-0.8010254,-3.366412,-37.32061,60.0687,125.12,-87.4,-47.84
-0.9741211,-0.0168457,-0.7998047,-7.236641,-35.37405,61.03053,124.2,-89.24,-41.4
-0.9499512,-0.01074219,-0.7995605,-9.793893,-31.22901,61.1832,124.2,-89.24,-41.4
-0.9538574,-0.01611328,-0.7768555,-16.66412,-32.96947,60.44275,124.2,-89.24,-41.4
-0.9553223,0.008789063,-0.7680664,-22.70992,-37.98473,65.9771,124.2,-88.32,-29.44
-0.8840332,0.04736328,-0.6999512,-12.9771,-25.48855,73.74046,124.2,-88.32,-29.44
-0.8125,-0.005615234,-0.6689453,2.374046,-8.480916,84.8168,124.2,-85.56001,-14.72
-0.7382813,-0.01831055,-0.6318359,10.27481,-0.8549618,89.69466,124.2,-85.56001,-14.72
-0.701416,-0.01000977,-0.5834961,6.450382,-3.030534,91.74809,124.2,-85.56001,-14.72
-0.6694336,-0.002685547,-0.5356445,6.335878,-5.633588,88.30534,120.52,-83.72,0.92
-0.6254883,-0.01342773,-0.4951172,8.167939,-7.167939,83.63359,120.52,-83.72,0.92
-0.5942383,-0.02246094,-0.4787598,6.992366,-16.43511,86.47328,120.52,-83.72,0.92
-0.5439453,-0.01367188,-0.4902344,11.69466,-24.12214,82.61069,115.0,-82.8,11.96
-0.5144043,-0.01538086,-0.5,20.32061,-19.29771,71.43511,115.0,-82.8,11.96
-0.4743652,0.01831055,-0.5056152,27.90076,-2.038168,59.13741,110.4,-80.96,22.08
-0.473877,0.02172852,-0.5056152,35.32061,15.74809,39.80153,110.4,-80.96,22.08
-0.4689941,0.0480957,-0.4973145,42.29008,19.60305,16.25191,110.4,-80.96,22.08
-0.4829102,0.08789063,-0.5236816,41.54198,15.85496,9.847328,107.64,-82.8,24.84
-0.4909668,0.06762695,-0.5961914,49.25191,13.38931,6.10687,107.64,-82.8,24.84
-0.4975586,0.01660156,-0.6274414,56.0687,17.51145,-6.984733,107.64,-82.8,24.84
-0.5378418,0.03222656,-0.666748,52.09924,19.39695,-28.62595,105.8,-85.56001,26.68
-0.5817871,0.1010742,-0.675293,44.57252,30.58779,-33.71756,105.8,-85.56001,26.68
-0.6088867,0.1123047,-0.6789551,57.9313,27.55725,-29.21374,104.88,-91.08,24.84
-0.5930176,0.0793457,-0.7365723,58.55725,24.03817,-32.21374,104.88,-91.08,24.84
-0.5788574,0.05004883,-0.8061523,57.69466,41.67176,-44.12214,104.88,-91.08,24.84
-0.5883789,0.04541016,-0.8105469,65.0229,67.84733,-51.52672,105.8,-97.52,19.32
-0.6394043,0.07983398,-0.817627,57.27481,57.77099,-52.61832,105.8,-97.52,19.32
-0.6660156,0.09350586,-0.8623047,49.36641,40.9771,-54.68702,105.8,-97.52,19.32
-0.6191406,0.06665039,-0.9460449,50.58779,61.98473,-48.54962,107.64,-104.88,6.44
-0.625,0.03076172,-0.9387207,42.08397,71.16794,-45.45038,107.64,-104.88,6.44
-0.5742188,-0.01904297,-1.008301,45.70229,66.96947,-54.65649,106.72,-111.32,-8.28
-0.6315918,-0.0246582,-1.006592,38.39695,65.48855,-55.51145,106.72,-111.32,-8.28
-0.7192383,0.02880859,-0.9711914,-16.20611,11.53435,-26.21374,106.72,-113.16,-20.24
-0.6779785,0.03686523,-0.9848633,-40.79389,3.679389,-28.77099,106.72,-113.16,-20.24
-0.5874023,-0.009521484,-0.9560547,-34.67176,10.49618,-29.29771,108.56,-113.16,-23.92
-0.5834961,-0.02075195,-0.9001465,-29.06107,2.679389,-40.44275,108.56,-113.16,-23.92
-0.6022949,-0.03344727,-0.8867188,-31.64886,-14.62595,-45.12214,108.56,-113.16,-23.92
-0.5947266,-0.03857422,-0.9104004,-38.83206,-18.01527,-44.56488,109.48,-112.24,-29.44
-0.5788574,-0.06176758,-0.8759766,-37.1145,-16.23664,-42.64122,109.48,-112.24,-29.44
-0.6123047,-0.07592773,-0.8522949,-35.22901,-20.38168,-39.07634,113.16,-108.56,-34.04
-0.652832,-0.08398438,-0.8637695,-37.51908,-19.43511,-30.82443,113.16,-108.56,-34.04
-0.6625977,-0.0559082,-0.8078613,-38.36641,-17.83969,-5.251908,113.16,-108.56,-34.04
-0.7011719,0.01660156,-0.7058105,-50.20611,-13.18321,-6.465649,114.08,-106.72,-35.88
-0.5930176,-0.1657715,-0.7380371,-30.81679,15.45038,49.56488,114.08,-106.72,-35.88
-0.6362305,-0.1274414,-0.6623535,-28.00763,-36.84733,-33.96183,114.08,-106.72,-35.88
-1.824951,-1.152344,-0.5703125,-24.22137,-21.16794,-114.6565,113.16,-107.64,-36.8
-0.1479492,0.05297852,-0.7026367,-33.54198,51.79389,133.0992,113.16,-107.64,-36.8
-0.4082031,-0.08764648,-0.7041016,-3.21374,-20.54198,-33.61069,109.48,-109.48,-42.32
-0.5703125,-0.1745605,-0.6420898,-10.48092,-22.42748,-2.770992,109.48,-109.48,-42.32
-0.6416016,-0.1884766,-0.6643066,-11.96183,-15.16031,-9.274809,109.48,-109.48,-42.32
-0.6176758,-0.1643066,-0.6425781,36.9084,6.603054,-34.22137,112.24,-105.8,-47.84
-0.6081543,-0.1308594,-0.5563965,46.75573,-3.167939,-43.44275,112.24,-105.8,-47.84
-0.6413574,-0.1362305,-0.6647949,37.29008,-30.70992,-48.32824,112.24,-105.8,-47.84
-0.6479492,-0.09057617,-0.6508789,47.45038,-34.15267,5.175572,114.08,-103.04,-52.44
-0.3962402,0.1762695,-0.4931641,-55.68702,-38.60305,-104.9466,114.08,-103.04,-52.44
-0.6437988,-0.4912109,-0.482666,-130.9237,56.63359,226.6947,112.24,-105.8,-56.12
-0.4003906,0.1994629,-0.6669922,79.63359,-57.12977,-71.25954,112.24,-105.8,-56.12
-0.5727539,-0.1599121,-0.9516602,27.58779,3.709924,-16.0687,112.24,-105.8,-56.12
-0.7758789,-0.1293945,-0.7658691,-4.465649,12.18321,-6.198473,114.08,-105.8,-36.8
-0.6879883,0.06420898,-0.6879883,-4.732824,7.839694,-36.22137,114.08,-105.8,-36.8
-0.6518555,-0.046875,-0.723877,-39.51908,17.41985,-23.80916,114.08,-105.8,-36.8
-0.7053223,-0.007080078,-0.7875977,-35.52672,22.19084,-58.9084,113.16,-106.72,-31.28
-0.7197266,-0.008544922,-0.7902832,-24.86259,22.76336,-56.12214,113.16,-106.72,-31.28
-0.6669922,-0.0300293,-0.7744141,-11.93893,-6.328244,-33.37405,113.16,-106.72,-31.28
-0.6276855,-0.04980469,-0.7883301,-8.61832,-26.13741,-37.22901,115.92,-103.04,-36.8
-0.5673828,-0.08227539,-0.8276367,-4.259542,-37.96183,-5.587786,115.92,-103.04,-36.8
-0.6696777,-0.04980469,-0.8554688,-17.0687,-55.19084,1.374046,123.28,-92.92,-34.04
-0.7392578,-0.04296875,-0.8410645,-20.03053,-58.38931,-6.778626,123.28,-92.92,-34.04
-0.7375488,0.01318359,-0.8217773,-31.33588,-47.67939,8.076336,123.28,-92.92,-34.04
-0.8325195,0.03125,-0.8129883,-39.85496,-48.65649,8.259542,126.96,-85.56001,-28.52
-0.8664551,0.1096191,-0.7746582,-57.0916,-48.47328,19.55725,126.96,-85.56001,-28.52
-0.8308105,0.0847168,-0.7841797,-66.62595,-39.38931,42.96183,127.88,-82.8,-23.92
-0.814209,0.05224609,-0.7355957,-56.55725,-26.03053,19.86259,127.88,-82.8,-23.92
-0.8366699,0.02880859,-0.6733398,-69.74046,-11.58779,13.36641,127.88,-82.8,-23.92
-0.9360352,0.111084,-0.501709,-63.77099,-15.87023,17.84733,126.96,-82.8,-18.4
-0.9729004,0.1777344,-0.4516602,-53.03053,-21.64886,47.86259,126.96,-82.8,-18.4
-0.9367676,0.1049805,-0.4606934,-49.94656,-24.74046,66.03053,126.96,-82.8,-18.4
-0.8845215,0.1123047,-0.4360352,-45.54198,-31.0687,75.80153,124.2,-83.72,-11.04
-0.9470215,0.06591797,-0.4880371,-49.75573,-41.03817,67.45038,124.2,-83.72,-11.04
-0.8979492,0.09838867,-0.4882813,-64.29771,-47.21374,68.91603,123.28,-80.96,-0.92
-0.9199219,0.1098633,-0.4277344,-68.49619,-59.48092,59.03053,123.28,-80.96,-0.92
-0.8574219,0.2055664,-0.3266602,-26.69466,-49.19084,67.86259,120.52,-77.28,11.04
-0.8144531,0.2116699,-0.2753906,-19.12214,-37.70992,75.09161,120.52,-77.28,11.04
-0.7368164,0.2404785,-0.2956543,-7.21374,-27.67939,77.24428,117.76,-74.52,21.16
-0.748291,0.2636719,-0.3564453,2.648855,-36.62595,69.07633,117.76,-74.52,21.16
-0.7624512,0.3193359,-0.3186035,10.28244,-45.93893,66.03817,117.76,-74.52,21.16
-0.7473145,0.310791,-0.3286133,9.0,-43.20611,71.89313,113.16,-70.84,33.12
-0.677002,0.3083496,-0.2944336,5.755725,-30.42748,68.30534,113.16,-70.84,33.12
-0.6359863,0.3220215,-0.2993164,30.18321,-21.34351,49.76336,113.16,-70.84,33.12
-0.6240234,0.3652344,-0.3417969,30.54962,-16.49618,42.79389,107.64,-67.16,44.16
-0.5461426,0.4123535,-0.3378906,19.24427,-12.77099,42.63359,107.64,-67.16,44.16
-0.5385742,0.3811035,-0.3730469,37.30534,-14.83969,30.19847,101.2,-67.16,50.6
-0.5280762,0.3994141,-0.4213867,48.41985,0.07633588,8.557252,101.2,-67.16,50.6
-0.5297852,0.4125977,-0.4155273,46.84733,10.99237,3.534351,101.2,-67.16,50.6
-0.541748,0.4172363,-0.4108887,43.0687,19.20611,-4.206107,95.68,-69.0,55.2
-0.5869141,0.4575195,-0.4504395,53.68702,20.03053,-9.709924,95.68,-69.0,55.2
-0.5490723,0.4658203,-0.5480957,85.58778,36.9771,-12.32061,95.68,-69.0,55.2
-0.6289063,0.5766602,-0.4421387,70.70992,47.85496,-17.86259,91.08,-73.6,57.96
-0.5227051,0.5280762,-0.5429688,49.01527,57.80153,-7.312977,91.08,-73.6,57.96
-0.5070801,0.4887695,-0.6279297,53.78626,60.91603,-10.66412,91.08,-73.6,57.96
-0.5253906,0.5092773,-0.6960449,67.75572,64.41222,-21.1145,86.48,-83.72,58.88
-0.5549316,0.5415039,-0.7246094,65.82442,79.48092,-24.55725,86.48,-83.72,58.88
-0.6384277,0.5708008,-0.7062988,64.03817,62.46565,-26.69466,83.72,-94.76,55.2
-0.7050781,0.6115723,-0.7631836,49.48092,42.14504,-24.9771,83.72,-94.76,55.2
-0.7248535,0.621582,-0.8151855,29.44275,51.69466,-13.89313,83.72,-94.76,55.2
-0.7121582,0.6240234,-0.8308105,25.58779,55.62595,-13.50382,82.8,-103.04,50.6
-0.692627,0.65625,-0.8151855,32.38931,59.33588,-4.633588,82.8,-103.04,50.6
-0.6784668,0.5512695,-0.8632813,30.77099,64.13741,-9.221375,82.8,-103.04,50.6
-0.6645508,0.5593262,-0.8178711,14.54962,57.19084,-7.175572,80.96,-109.48,46.92
-0.6779785,0.560791,-0.7783203,-6.977099,36.07634,-8.687023,80.96,-109.48,46.92
-0.7165527,0.5305176,-0.8320313,-26.29771,29.0916,-7.725191,80.04,-113.16,42.32
-0.6953125,0.4833984,-0.8295898,-31.49618,35.50382,-9.038168,80.04,-113.16,42.32
-0.6188965,0.4699707,-0.7646484,-24.17557,39.41985,-15.74809,80.04,-113.16,42.32
-0.6689453,0.4284668,-0.7709961,-29.73282,23.38931,-20.49618,81.88,-113.16,38.64
-0.7207031,0.4001465,-0.8398438,-48.25191,8.572519,-19.12214,81.88,-113.16,38.64
-0.6455078,0.373291,-0.817627,-50.17557,5.91603,-14.22901,81.88,-113.16,38.64
-0.6135254,0.2946777,-0.7470703,-61.79389,9.610687,-24.54198,85.56001,-112.24,34.96
-0.59375,0.2556152,-0.7138672,-71.49619,6.244275,-30.74046,85.56001,-112.24,34.96
-0.6350098,0.2790527,-0.6835938,-78.91603,-3.885496,-31.22901,89.24,-109.48,32.2
-0.6101074,0.2451172,-0.6247559,-72.20611,-8.038168,-29.41221,89.24,-109.48,32.2
-0.5456543,0.2121582,-0.5854492,-53.67176,-0.03053435,-34.67939,89.24,-109.48,32.2
-0.5283203,0.1791992,-0.5515137,-40.69466,14.71756,-43.41985,92.92,-108.56,29.44
-0.5546875,0.2165527,-0.5109863,-34.80916,18.08397,-47.45802,92.92,-108.56,29.44
-0.5708008,0.173584,-0.4763184,-22.29771,21.32061,-49.98473,92.92,-108.56,29.44
-0.5224609,0.1625977,-0.4572754,-7.007634,36.1145,-58.49618,94.76,-109.48,23.92
-0.5041504,0.1271973,-0.4675293,9.244275,43.53435,-76.29771,94.76,-109.48,23.92
-0.581543,0.008789063,-0.3212891,25.9313,42.56488,-73.91603,98.44,-110.4,13.8
-0.4196777,0.08447266,-0.8503418,112.1603,62.83206,-67.79389,98.44,-110.4,13.8
-0.6813965,0.2197266,-0.4533691,74.96947,45.68702,-94.06107,98.44,-110.4,13.8
-0.7590332,0.2001953,-0.5571289,63.69466,47.93893,-95.06107,103.04,-108.56,6.44
-0.8623047,0.2463379,-0.5793457,44.93893,38.78626,-93.25191,103.04,-108.56,6.44
-0.9287109,0.2563477,-0.6652832,27.94657,-9.916031,-63.9771,103.04,-108.56,6.44
-1.017578,0.2387695,-0.7661133,47.98473,-40.94656,-42.1145,107.64,-108.56,-5.52
-1.10376,0.3098145,-0.7617188,30.58779,-41.60305,-26.76336,114.08,-100.28,-8.28
-1.087891,0.2946777,-0.7580566,15.56489,-49.29771,-3.091603,114.08,-100.28,-8.28
-1.05542,0.2663574,-0.7539063,18.84733,-47.66412,11.77099,114.08,-100.28,-8.28
-1.041992,0.2609863,-0.7260742,7.061069,-51.96183,20.41985,118.68,-93.84,-5.52
-1.115723,0.2978516,-0.7470703,-21.03053,-67.65649,39.42748,118.68,-93.84,-5.52
-1.16333,0.1118164,-0.6352539,-33.9313,-87.74809,53.96947,121.44,-88.32,-3.68
-1.065674,0.2490234,-0.5939941,-38.37405,-110.9389,69.96183,121.44,-88.32,-3.68
-1.044189,0.2355957,-0.5993652,-20.77099,-105.2824,77.32061,121.44,-88.32,-3.68
-0.972168,0.2053223,-0.5905762,-7.954198,-88.09161,81.32061,122.36,-75.44,12.88
-0.9318848,0.1540527,-0.5837402,-15.59542,-82.29771,84.94656,122.36,-75.44,12.88
-0.8217773,0.1132813,-0.5263672,-10.75572,-72.15267,90.46565,122.36,-75.44,12.88
-0.8845215,0.1445313,-0.5090332,-11.8626,-72.76336,98.9313,126.04,-60.72,17.48
-0.7907715,0.1740723,-0.4680176,-9.992367,-41.00763,103.7863,126.04,-60.72,17.48
-0.763916,0.1506348,-0.472168,-8.473283,-10.96183,91.50381,120.52,-55.2,27.6
-0.7255859,0.1953125,-0.4445801,7.48855,2.931298,92.51908,120.52,-55.2,27.6
-0.7026367,0.251709,-0.4226074,24.34351,6.007634,87.12214,120.52,-55.2,27.6
-0.7148438,0.2939453,-0.4763184,37.83969,5.61832,77.8168,112.24,-58.88,36.8
-0.6245117,0.3308105,-0.376709,15.80153,14.98473,90.54962,112.24,-58.88,36.8
-0.564209,0.293457,-0.3928223,20.70229,28.19084,93.70229,112.24,-58.88,36.8
-0.5314941,0.3225098,-0.3876953,22.12214,33.41985,91.25954,100.28,-65.32,52.44
-0.3818359,0.3049316,-0.3439941,33.74809,37.32824,90.39695,100.28,-65.32,52.44
-0.2993164,0.298584,-0.3605957,54.80916,64.8168,66.87023,89.24,-71.76,62.56
-0.2617188,0.3352051,-0.3291016,64.51908,92.63359,30.29008,89.24,-71.76,62.56
-0.2597656,0.3381348,-0.3620605,76.47328,108.2595,7.19084,89.24,-71.76,62.56
-0.2563477,0.3601074,-0.4306641,124.8855,98.9771,-12.65649,78.2,-85.56001,66.24
-0.3959961,0.451416,-0.6083984,156.7099,93.59542,-23.56489,78.2,-85.56001,66.24
-0.371582,0.4016113,-0.6547852,137.2519,110.458,-28.61832,78.2,-85.56001,66.24
-0.3205566,0.4289551,-0.6242676,116.8626,102.3282,-17.64122,73.6,-99.36,61.64
-0.2819824,0.4492188,-0.6340332,110.3359,62.21374,-20.8855,73.6,-99.36,61.64
-0.2756348,0.3999023,-0.7871094,120.5954,54.01527,-26.60305,68.08,-113.16,53.36
-0.2897949,0.2983398,-0.9580078,141.1069,78.29008,-43.92366,68.08,-113.16,53.36
-0.3659668,0.3037109,-1.086914,132.5954,67.12977,-65.10687,68.08,-113.16,53.36
-0.404541,0.3208008,-1.08374,93.9313,49.64885,-72.1145,69.92,-124.2,37.72
-0.4033203,0.3447266,-1.062744,82.33588,47.25954,-68.58015,69.92,-124.2,37.72
-0.3984375,0.2609863,-1.114746,77.16031,39.0687,-68.53435,69.92,-124.2,37.72
-0.4086914,0.206543,-1.121826,80.74809,38.46565,-71.58778,75.44,-130.64,16.56
-0.4978027,0.2426758,-1.134033,60.01527,18.51908,-73.64122,75.44,-130.64,16.56
-0.572998,0.119873,-1.084229,41.05344,-22.20611,-64.45038,83.72,-129.72,1.84
-0.4611816,0.138916,-1.128662,44.21374,-25.21374,-48.19847,83.72,-129.72,1.84
-0.4692383,0.07055664,-1.205566,40.0,-13.03817,-55.0458,83.72,-129.72,1.84
-0.5874023,0.08081055,-1.198486,-12.74809,-31.44275,-44.64885,98.44,-120.52,-4.6
-0.5820313,0.06616211,-1.176025,-53.19847,-34.25191,-28.52672,98.44,-120.52,-4.6
-0.5739746,0.03857422,-1.160645,-59.52672,-34.96183,-23.25954,98.44,-120.52,-4.6
-0.5795898,0.03271484,-1.142822,-77.12977,-36.30534,-21.73282,101.2,-117.76,-3.68
-0.6125488,0.02978516,-1.090576,-90.16031,-46.10687,-17.47328,101.2,-117.76,-3.68
-0.6188965,0.04370117,-1.03418,-101.5649,-48.25191,-10.12214,102.12,-115.92,0.92
-0.6142578,0.07104492,-1.002441,-112.4351,-47.29771,-3.709924,102.12,-115.92,0.92
-0.5913086,0.02661133,-0.9294434,-117.3588,-50.74809,-3.21374,102.12,-115.92,0.92
-0.5991211,-0.008056641,-0.8735352,-120.6794,-59.77099,1.564886,101.2,-112.24,9.2
-0.5827637,0.01513672,-0.7956543,-129.4733,-56.25954,-3.946565,101.2,-112.24,9.2
-0.5588379,0.01806641,-0.6547852,-135.0076,-49.01527,-12.0229,101.2,-112.24,9.2
-0.5222168,0.01733398,-0.4328613,-81.98473,-23.92366,-35.40458,99.36,-108.56,17.48
-0.4902344,0.03149414,-0.3474121,-72.49619,-21.07634,-49.01527,101.2,-105.8,20.24
-0.4929199,0.03222656,-0.3110352,-49.61069,-17.28244,-56.16794,101.2,-105.8,20.24
-0.5488281,0.002685547,-0.3208008,-20.51145,-13.47328,-69.66412,101.2,-105.8,20.24
-0.6040039,0.01757813,-0.3066406,9.755725,5.091603,-87.74046,103.04,-103.04,17.48
-0.6818848,0.05395508,-0.2993164,25.33588,6.442748,-93.83969,103.04,-103.04,17.48
-0.7316895,0.0847168,-0.2971191,42.99237,2.480916,-88.16794,111.32,-97.52,10.12
-0.8266602,0.1289063,-0.3518066,60.57252,-5.496183,-78.35114,111.32,-97.52,10.12
-0.9086914,0.157959,-0.4858398,76.69466,-17.28244,-74.82442,111.32,-97.52,10.12
-0.8862305,0.1108398,-0.5563965,54.52672,-7.099236,-59.8168,120.52,-88.32,-0.92
-0.9619141,0.04418945,-0.6418457,38.58779,-5.801527,-60.27481,120.52,-88.32,-0.92
-1.115967,0.1347656,-0.6782227,18.03053,-21.36641,-37.32824,125.12,-84.64,-11.96
-1.167969,0.1333008,-0.6589355,10.80153,-31.69466,-25.0458,125.12,-84.64,-11.96
-1.149902,0.1420898,-0.6911621,39.64885,-24.94657,-25.89313,125.12,-84.64,-11.96
-1.199707,0.151123,-0.7341309,55.50382,-19.08397,-18.05343,127.88,-79.12,-11.96
-1.161377,0.1513672,-0.6965332,34.05344,-25.9084,0.8473283,127.88,-79.12,-11.96
-1.107422,0.09179688,-0.6464844,12.59542,-26.08397,21.94657,127.88,-79.12,-11.96
-1.114014,0.0847168,-0.6540527,12.17557,-23.67939,42.45802,131.56,-71.76,-11.04
-1.087402,0.0769043,-0.6220703,4.70229,-24.48855,59.65649,131.56,-71.76,-11.04
-1.027832,0.05541992,-0.6418457,-10.94656,-34.60305,87.67939,131.56,-71.76,-11.04
-0.9155273,0.2019043,-0.4523926,-14.77863,-31.66412,122.5038,130.64,-69.0,-3.68
-0.9816895,0.02294922,-0.6118164,-1.755725,-30.41985,101.8015,130.64,-69.0,-3.68
-0.8974609,0.009765625,-0.59375,-2.145038,-17.86259,99.62595,128.8,-68.08,2.76
-0.8439941,0.06494141,-0.5737305,-7.763359,-5.580153,103.771,128.8,-68.08,2.76
-0.7717285,0.05078125,-0.550293,-6.274809,3.969466,114.3969,128.8,-68.08,2.76
-0.7180176,0.07592773,-0.5214844,6.732824,14.28244,115.8397,122.36,-69.0,16.56
-0.6801758,0.09716797,-0.5112305,14.0916,24.51908,110.6489,122.36,-69.0,16.56
-0.6308594,0.1135254,-0.4714355,14.9771,34.53435,103.2061,122.36,-69.0,16.56
-0.5793457,0.1242676,-0.4411621,11.84733,35.20611,98.31298,112.24,-76.36,31.28
-0.5319824,0.1472168,-0.4245605,11.83969,32.93893,98.44275,112.24,-76.36,31.28
-0.4855957,0.1943359,-0.4030762,17.18321,28.38168,97.98473,101.2,-84.64,40.48
-0.4091797,0.1982422,-0.4104004,30.91603,30.14504,90.40458,101.2,-84.64,40.48
-0.3271484,0.213623,-0.4863281,59.71756,39.9084,71.24428,101.2,-84.64,40.48
-0.270752,0.28125,-0.5695801,67.12214,63.38168,38.32061,91.08,-90.16,49.68
-0.2497559,0.2592773,-0.5463867,65.86259,56.78626,57.10687,91.08,-90.16,49.68
-0.2475586,0.2653809,-0.5192871,69.64122,50.83969,57.35878,91.08,-90.16,49.68
-0.2751465,0.3496094,-0.6298828,60.77863,44.98473,44.05344,72.68,-97.52,62.56
-0.2028809,0.3317871,-0.6972656,65.19084,68.58778,34.9084,72.68,-97.52,62.56
-0.1708984,0.3195801,-0.7116699,84.85497,81.90839,21.0458,58.88,-108.56,65.32
-0.3154297,0.4233398,-0.7792969,73.05344,80.23664,12.9313,58.88,-108.56,65.32
-0.3151855,0.4584961,-0.7675781,71.09161,77.63359,18.56489,58.88,-108.56,65.32
-0.06665039,0.3024902,-0.8557129,157.2214,97.64886,-1.198473,47.84,-120.52,59.8
-0.1535645,0.310791,-1.127686,156.7863,110.1298,-40.65649,47.84,-120.52,59.8
-0.3879395,0.4111328,-1.146484,90.76336,88.63359,-50.24427,47.84,-120.52,59.8
-0.390625,0.4072266,-1.062012,56.23664,55.90076,-36.51145,47.84,-134.32,40.48
-0.199707,0.3156738,-1.04126,82.57252,59.19847,-46.87786,47.84,-134.32,40.48
-0.2971191,0.2895508,-1.186768,102.4962,60.43512,-90.55725,47.84,-141.68,24.84
-0.527832,0.3752441,-1.237061,59.9771,24.48855,-88.80916,47.84,-141.68,24.84
-0.4846191,0.3413086,-1.212402,29.26718,-5.977099,-72.92367,47.84,-141.68,24.84
-0.3840332,0.3056641,-1.161865,31.72519,-17.34351,-71.76336,57.96,-141.68,10.12
-0.4968262,0.309082,-1.273438,23.19847,-16.96947,-73.72519,57.96,-141.68,10.12
-0.505127,0.2851563,-1.234131,-5.885496,-15.9084,-54.36641,57.96,-141.68,10.12
-0.4545898,0.1259766,-1.322266,-48.56488,-33.86259,-38.50382,69.92,-138.0,3.68
-0.4672852,0.109375,-1.232178,-75.71756,-31.87023,-32.92366,77.28,-133.4,5.52
-0.4624023,0.1213379,-1.133057,-90.82442,-47.49618,-26.78626,77.28,-133.4,5.52
-0.3991699,0.03588867,-1.051514,-85.73283,-50.80153,-23.48092,77.28,-133.4,5.52
-0.4765625,0.05029297,-1.026367,-95.19084,-37.75573,-24.00763,80.96,-128.8,11.04
-0.4453125,0.02636719,-0.9055176,-100.8855,-41.14504,-21.87023,80.96,-128.8,11.04
-0.4162598,-0.01269531,-0.7871094,-91.83969,-52.87023,-28.33588,84.64,-123.28,18.4
-0.3647461,-0.04101563,-0.6694336,-84.8855,-57.8168,-44.09924,84.64,-123.28,18.4
-0.3208008,-0.07128906,-0.5952148,-69.98473,-52.38931,-59.69466,84.64,-123.28,18.4
-0.3432617,-0.08276367,-0.5214844,-57.37405,-47.16031,-72.54962,89.24,-117.76,20.24
-0.3540039,-0.06396484,-0.4997559,-34.80153,-28.70229,-73.771,89.24,-117.76,20.24
-0.394043,-0.05737305,-0.4165039,-23.0229,-18.66412,-75.80916,89.24,-117.76,20.24
-0.4282227,-0.05639648,-0.4016113,-14.99237,-12.98473,-71.90839,95.68,-113.16,16.56
-0.456543,-0.07006836,-0.4243164,3.641221,2.351145,-71.28244,95.68,-113.16,16.56
-0.4702148,-0.1166992,-0.4523926,32.30534,17.70229,-79.32061,101.2,-110.4,7.36
-0.5852051,-0.07885742,-0.5285645,48.49618,26.8855,-86.0,101.2,-110.4,7.36
-0.6972656,-0.01733398,-0.5402832,58.87023,25.70992,-76.82442,101.2,-110.4,7.36
-0.7412109,-0.0168457,-0.5666504,88.0229,18.36641,-63.33588,109.48,-106.72,-6.44
-0.6940918,0.03515625,-0.6765137,77.09161,12.9084,-45.03053,109.48,-106.72,-6.44
-0.9851074,0.02197266,-0.7463379,33.65649,-9.801527,-76.39695,109.48,-106.72,-6.44
-1.053711,0.03979492,-0.7949219,15.67939,-18.80916,-57.89313,116.84,-99.36,-15.64
-1.029785,0.01611328,-0.8549805,16.20611,-18.26718,-45.0,116.84,-99.36,-15.64
-1.187256,0.03320313,-0.8930664,25.27481,-28.03053,-37.60305,118.68,-97.52,-22.08
-1.16333,-0.04614258,-0.9057617,38.61832,-51.29008,-21.15267,118.68,-97.52,-22.08
-1.047607,0.003417969,-0.8266602,33.9542,-68.91603,-4.320611,118.68,-97.52,-22.08
-1.029297,-0.03198242,-0.8798828,31.90076,-78.83206,2.824427,124.2,-88.32,-19.32
-1.10791,-0.01000977,-0.8579102,10.9313,-81.55725,38.19847,124.2,-88.32,-19.32
-1.064941,-0.06103516,-0.7932129,10.51145,-94.80153,61.78626,124.2,-88.32,-19.32
-0.9663086,-0.1308594,-0.7363281,4.045802,-110.2443,78.09924,127.88,-78.2,-7.36
-0.9638672,-0.1240234,-0.7685547,-14.84733,-113.7328,81.07633,127.88,-78.2,-7.36
-1.062256,-0.1123047,-0.6550293,-29.43511,-99.1145,98.32825,126.04,-69.92,11.96
-1.003418,-0.0847168,-0.6013184,-19.8855,-81.25191,121.0992,126.04,-69.92,11.96
-0.9226074,-0.130127,-0.5688477,-12.81679,-57.61069,136.6336,126.04,-69.92,11.96
-0.7687988,-0.1279297,-0.5466309,4.274809,-23.8855,149.4504,115.92,-68.08,33.12
-0.689209,-0.06640625,-0.482666,16.77863,10.28244,139.0229,115.92,-68.08,33.12
-0.6374512,0.1159668,-0.420166,24.17557,36.99237,129.9542,115.92,-68.08,33.12
-0.5498047,-0.01513672,-0.3859863,27.35114,48.08397,148.3435,103.96,-71.76,47.84
-0.5576172,0.06567383,-0.4243164,22.10687,56.9313,133.3206,103.96,-71.76,47.84
-0.4799805,0.1237793,-0.4169922,12.18321,69.25191,133.4351,95.68,-79.12,52.44
-0.3049316,0.1428223,-0.3354492,25.0229,80.96183,112.9008,95.68,-79.12,52.44
-0.277832,0.1713867,-0.4384766,37.32824,82.70229,99.44275,95.68,-79.12,52.44
-0.2348633,0.1706543,-0.4736328,37.58779,82.47328,95.39695,79.12,-92.92,60.72
-0.1972656,0.2165527,-0.4736328,44.78626,83.75572,70.50381,79.12,-92.92,60.72
-0.1506348,0.3310547,-0.4995117,41.77099,80.42748,62.8168,79.12,-92.92,60.72
-0.2539063,0.3574219,-0.5847168,44.23664,83.37405,63.82443,61.64,-103.96,65.32
-0.2702637,0.340332,-0.6113281,67.29008,87.15267,55.70992,61.64,-103.96,65.32
-0.1706543,0.3178711,-0.6655273,117.2824,87.78626,26.41985,46.92,-115.92,63.48
-0.2004395,0.3242188,-0.8012695,128.8931,82.45802,-7.70229,46.92,-115.92,63.48
-0.2392578,0.3544922,-0.934082,109.7863,75.9542,-15.20611,46.92,-115.92,63.48
-0.3166504,0.404541,-1.035889,91.05344,49.09924,-22.20611,42.32,-127.88,52.44
-0.2631836,0.3659668,-0.9902344,106.1374,51.26717,-39.74809,42.32,-127.88,52.44
-0.4562988,0.3339844,-1.233154,99.9313,55.54962,-92.32061,46.0,-137.08,35.88
-0.4416504,0.3029785,-1.181396,75.76336,23.69466,-80.54198,46.0,-137.08,35.88
-0.4121094,0.2294922,-1.179443,61.13741,-0.02290076,-88.61832,57.04,-141.68,14.72
-0.4777832,0.1281738,-1.303711,48.0458,7.21374,-105.3588,57.04,-141.68,14.72
-0.5495605,0.1723633,-1.284668,18.67939,0.832061,-85.87786,57.04,-141.68,14.72
-0.4714355,0.1391602,-1.159668,-2.847328,-36.89313,-71.16794,68.08,-139.84,0.92
-0.4331055,0.07348633,-1.162842,-5.251908,-43.98473,-75.33588,68.08,-139.84,0.92
-0.5319824,0.1049805,-1.186279,-26.66412,-37.06107,-59.0687,78.2,-135.24,-3.68
-0.5473633,0.09204102,-1.112061,-35.58779,-59.25191,-38.9771,78.2,-135.24,-3.68
-0.480957,0.05322266,-1.06958,-46.79389,-83.36641,-32.8168,78.2,-135.24,-3.68
-0.4790039,0.01806641,-1.063232,-41.31298,-82.82442,-40.21374,89.24,-126.96,0.92
-0.5991211,0.03173828,-1.10376,-41.10687,-69.25954,-44.9771,89.24,-126.96,0.92
-0.6469727,0.03881836,-0.9831543,-68.45802,-77.15267,-27.53435,89.24,-126.96,0.92
-0.6201172,0.007324219,-0.9440918,-90.16031,-93.38168,-21.1145,100.28,-115.92,6.44
-0.5812988,-0.04174805,-0.9082031,-103.9084,-99.28244,-28.16794,100.28,-115.92,6.44
-0.5668945,-0.05712891,-0.8422852,-116.1145,-89.77863,-33.50382,105.8,-105.8,13.8
-0.6286621,-0.05297852,-0.7905273,-122.5496,-78.27481,-23.83206,105.8,-105.8,13.8
-0.6210938,0.06347656,-0.6274414,-135.6412,-100.0229,0.2366412,105.8,-105.8,13.8
-0.723877,-0.3330078,-0.5021973,-158.7634,-149.7557,-39.08397,107.64,-98.44,19.32
-0.4438477,-0.123291,-0.5197754,-119.9313,-107.687,-22.9313,107.64,-98.44,19.32
-0.4489746,-0.1516113,-0.369873,-50.43512,-48.77863,-61.70992,107.64,-98.44,19.32
-0.4643555,-0.08959961,-0.2924805,-20.22137,-22.06107,-64.32825,117.76,-80.96,17.48
-0.5556641,-0.08544922,-0.2353516,-8.458015,-13.82443,-78.63359,117.76,-80.96,17.48
-0.6408691,-0.09082031,-0.2619629,8.312977,-1.022901,-80.87786,123.28,-75.44,8.28
-0.7780762,-0.04077148,-0.2932129,13.63359,18.60305,-58.51145,123.28,-75.44,8.28
-0.7573242,0.01147461,-0.2668457,40.13741,33.16794,-41.49618,123.28,-75.44,8.28
-0.7641602,0.01611328,-0.2990723,61.17557,24.41985,-29.40458,126.96,-73.6,-2.76
-0.8422852,0.06079102,-0.3056641,72.48855,32.03817,-24.31298,126.96,-73.6,-2.76
-0.9331055,0.04858398,-0.3654785,41.54962,24.29771,-31.45038,126.96,-73.6,-2.76
-1.022217,0.02856445,-0.4902344,27.71756,2.152672,-28.58015,128.8,-73.6,-7.36
-1.111572,0.03930664,-0.5161133,-2.038168,-5.091603,-32.39695,128.8,-73.6,-7.36
-1.175293,0.04125977,-0.5976563,-12.14504,1.557252,-34.33588,129.72,-75.44,-14.72
-1.177002,0.04394531,-0.6113281,1.015267,-10.82443,-18.07634,129.72,-75.44,-14.72
-1.093994,0.01928711,-0.5725098,32.09924,-15.73282,-10.79389,129.72,-75.44,-14.72
-1.088379,0.01049805,-0.5375977,42.35115,-25.0229,-6.198473,133.4,-69.0,-24.84
-1.116211,0.07128906,-0.5910645,23.46565,-37.86259,-9.770992,133.4,-69.0,-24.84
-1.091309,0.0480957,-0.5593262,5.587786,-37.59542,10.03817,133.4,-69.0,-24.84
-1.012695,-0.03564453,-0.5625,4.251908,-42.35115,18.36641,136.16,-60.72,-27.6
-1.047363,0.009033203,-0.4833984,21.10687,-43.67176,2.564885,136.16,-60.72,-27.6
-0.9912109,0.02734375,-0.5397949,5.984733,-60.43512,47.48855,136.16,-60.72,-24.84
-0.9580078,0.0009765625,-0.5793457,6.671756,-42.1145,59.23664,136.16,-60.72,-24.84
-0.9626465,-0.01708984,-0.5419922,7.442748,-6.015267,70.41985,136.16,-60.72,-24.84
-0.9746094,0.08544922,-0.5090332,7.160306,12.72519,93.34351,133.4,-63.48,-11.04
-0.9604492,0.06958008,-0.4411621,14.0687,4.610687,102.6107,133.4,-63.48,-11.04
-0.895752,0.09814453,-0.4301758,14.85496,-26.9542,120.542,133.4,-63.48,-11.04
-0.8044434,0.05126953,-0.4953613,8.847328,-24.29771,124.084,126.96,-66.24,9.2
-0.7502441,0.06542969,-0.4731445,15.44275,9.847328,119.6565,126.96,-66.24,9.2
-0.6882324,0.1257324,-0.3879395,33.9313,38.61069,114.9542,116.84,-71.76,26.68
-0.6486816,0.2717285,-0.3791504,25.75573,47.1832,126.8855,116.84,-71.76,26.68
-0.6953125,0.277832,-0.4985352,8.732824,49.8855,148.0153,116.84,-71.76,26.68
-0.7087402,0.2116699,-0.5229492,23.41221,77.58778,139.0,103.04,-80.96,42.32
-0.4799805,0.371582,-0.5024414,27.74809,114.8473,107.4504,87.4,-92.0,52.44
-0.3691406,0.3049316,-0.4812012,51.30534,130.8244,86.1832,87.4,-92.0,52.44
-0.2802734,0.2990723,-0.5327148,76.12214,108.9847,54.64885,87.4,-92.0,52.44
-0.3818359,0.3344727,-0.7253418,70.70229,101.2824,44.35878,74.52,-106.72,51.52
-0.3444824,0.3271484,-0.6577148,55.20611,98.84733,47.64122,74.52,-106.72,51.52
-0.2404785,0.206543,-0.6699219,75.19084,58.45038,33.83969,74.52,-106.72,51.52
-0.2126465,0.2160645,-0.8015137,74.12214,49.13741,14.53435,59.8,-120.52,48.76
-0.2001953,0.1970215,-0.8608398,81.0229,66.58778,4.030534,59.8,-120.52,48.76
-0.2021484,0.2355957,-0.8933105,74.06107,80.771,-8.587787,52.44,-129.72,41.4
-0.2145996,0.2775879,-0.8903809,44.37405,66.45802,-29.33588,52.44,-129.72,41.4
-0.2766113,0.375,-0.8972168,49.07634,59.25191,-34.56488,52.44,-129.72,41.4
-0.3212891,0.4707031,-1.134766,114.1679,60.75573,-32.91603,45.08,-138.92,30.36
-0.3979492,0.5332031,-1.078125,106.1145,67.89313,-22.12977,45.08,-138.92,30.36
-0.4013672,0.5583496,-1.079834,54.0,28.82443,-38.12214,45.08,-138.92,30.36
-0.4299316,0.5510254,-1.184082,29.42748,8.854961,-33.13741,50.6,-142.6,15.64
-0.3977051,0.5141602,-1.175781,7.740458,0.7633588,-23.52672,50.6,-142.6,15.64
-0.2854004,0.4089355,-1.133789,12.70229,4.480916,-23.31298,53.36,-143.52,8.28
-0.277832,0.3464355,-1.122803,1.0,-3.908397,-30.30534,53.36,-143.52,8.28
-0.331543,0.3266602,-1.124512,-13.81679,-18.64886,-34.37405,53.36,-143.52,8.28
-0.3076172,0.2929688,-1.097656,-21.0458,-13.35114,-31.0687,57.96,-143.52,3.68
-0.2456055,0.2250977,-1.055176,-20.40458,-10.03053,-36.75573,57.96,-143.52,3.68
-0.2756348,0.1567383,-1.021729,-24.82443,-17.17557,-55.58779,57.96,-143.52,3.68
-0.3649902,0.1623535,-1.050537,-31.57252,-18.82443,-64.69466,64.4,-140.76,1.84
-0.411377,0.1520996,-0.9726563,-43.06107,-22.0916,-56.20611,64.4,-140.76,1.84
-0.3981934,0.09863281,-0.8862305,-33.03053,-36.80153,-60.94656,71.76,-138.0,-1.84
-0.4020996,0.04516602,-0.8979492,-18.55725,-43.9542,-71.79389,71.76,-138.0,-1.84
-0.4382324,0.07666016,-0.9091797,-24.80916,-43.94656,-68.37405,71.76,-138.0,-1.84
-0.4516602,0.04882813,-0.8164063,-18.35114,-64.96183,-63.16031,83.72,-129.72,-6.44
-0.5578613,0.07055664,-0.6604004,2.496183,-98.0458,-88.48855,83.72,-129.72,-6.44
-0.2958984,-0.1308594,-0.5805664,1.19084,-93.83969,-85.0687,83.72,-129.72,-6.44
-0.4453125,-0.08935547,-0.6486816,-3.076336,-74.41222,-100.5725,101.2,-116.84,-10.12
-0.5124512,-0.08642578,-0.690918,-29.8855,-31.73282,-71.78626,101.2,-116.84,-10.12
-0.5539551,-0.03613281,-0.5292969,-42.12977,-35.29008,-51.61069,110.4,-106.72,-11.96
-0.529541,-0.08032227,-0.4956055,-44.38168,-48.74046,-49.0687,110.4,-106.72,-11.96
-0.5141602,-0.1230469,-0.479248,-23.66412,-46.15267,-73.35878,110.4,-106.72,-11.96
-0.6162109,-0.1005859,-0.5651855,7.343512,-35.34351,-93.24428,117.76,-95.68,-8.28
-0.7314453,-0.05249023,-0.5544434,7.870229,-31.9313,-85.41222,117.76,-95.68,-8.28
-0.7563477,-0.06445313,-0.5322266,11.57252,-50.41221,-83.58778,117.76,-95.68,-8.28
-0.8474121,-0.06494141,-0.6062012,14.22137,-60.54198,-91.19847,124.2,-88.32,-18.4
-1.001709,0.01049805,-0.6401367,8.893129,-61.27481,-92.1832,124.2,-88.32,-18.4
-1.075684,0.005371094,-0.6408691,-3.656489,-70.82442,-57.63359,128.8,-80.04,-31.28
-1.067627,-0.02416992,-0.6845703,-4.282443,-67.99236,-40.47328,128.8,-80.04,-31.28
-1.091309,-0.02148438,-0.5898438,-4.824428,-48.58015,-30.29771,128.8,-80.04,-31.28
-1.101807,-0.02661133,-0.5366211,-4.80916,-49.59542,-17.40458,132.48,-70.84,-33.12
-1.107666,0.02661133,-0.5256348,-11.99237,-57.64122,-2.259542,132.48,-70.84,-33.12
-1.125244,0.05761719,-0.5534668,-19.06107,-63.41985,18.9542,132.48,-70.84,-33.12
-1.111328,0.02856445,-0.5754395,-25.74046,-56.0,37.99237,135.24,-65.32,-30.36
-1.088135,-0.01049805,-0.5439453,-18.42748,-53.70992,49.94656,135.24,-65.32,-30.36
-1.068604,0.05078125,-0.4912109,2.801527,-36.37405,61.67939,135.24,-62.56,-21.16
-1.016602,0.07080078,-0.4377441,6.961832,-33.05344,74.58015,135.24,-62.56,-21.16
-0.9689941,0.02124023,-0.4189453,10.87023,-34.9313,77.74809,135.24,-62.56,-21.16
-0.8012695,0.03759766,-0.4645996,24.27481,18.41221,96.63359,134.32,-57.96,-8.28
-0.7570801,0.02246094,-0.4135742,26.96183,62.34351,86.9542,129.72,-59.8,8.28
-0.7570801,0.05371094,-0.4309082,28.98473,86.91603,95.1145,129.72,-59.8,8.28
-0.7629395,0.07055664,-0.4477539,41.24427,91.05344,109.0382,129.72,-59.8,8.28
-0.6877441,0.09985352,-0.4816895,54.17557,89.57252,125.5343,120.52,-75.44,17.48
-0.6013184,0.05541992,-0.5227051,51.0,99.15267,125.7099,120.52,-75.44,17.48
-0.5454102,0.1020508,-0.5759277,53.55725,120.9237,122.8473,105.8,-92.92,26.68
-0.5214844,0.1535645,-0.6323242,53.33588,124.2137,112.8931,105.8,-92.92,26.68
-0.5146484,0.1708984,-0.7358398,22.53435,120.9466,112.5725,105.8,-92.92,26.68
-0.3625488,0.1608887,-0.706543,-11.0229,124.1298,92.79389,88.32,-109.48,34.04
-0.3015137,0.09301758,-0.723877,21.22901,135.6641,55.9084,88.32,-109.48,34.04
-0.4182129,0.2595215,-0.7294922,36.16794,120.8473,47.9542,88.32,-109.48,34.04
-0.3415527,0.2553711,-0.7487793,40.57252,83.15267,59.86259,68.08,-123.28,34.96
-0.1838379,0.262207,-0.7028809,45.12977,57.35115,45.73283,68.08,-123.28,34.96
-0.1520996,0.2038574,-0.7907715,42.76336,70.58015,45.61832,68.08,-123.28,34.96
-0.2126465,0.2116699,-0.9001465,41.71756,69.74046,57.53435,57.96,-129.72,36.8
-0.1635742,0.2502441,-0.8503418,29.51145,41.83969,48.58015,57.96,-129.72,36.8
-0.04394531,0.1220703,-0.8811035,39.42748,21.66412,-2.328244,46.92,-135.24,35.88
-0.08764648,0.2497559,-0.9108887,55.05344,24.03817,-7.763359,46.92,-135.24,35.88
-0.182373,0.3293457,-0.9702148,51.9313,15.62595,-24.0458,46.92,-135.24,35.88
-0.4729004,0.456543,-0.6975098,36.01527,-12.44275,-49.0,46.0,-138.92,28.52
-0.2700195,0.3493652,-1.002686,83.21374,3.824427,-49.70229,46.0,-138.92,28.52
-0.2558594,0.362793,-1.04126,105.5954,13.82443,-57.22901,46.0,-138.92,28.52
-0.2236328,0.3459473,-1.100098,84.07633,6.687023,-62.1145,53.36,-140.76,17.48
-0.2841797,0.2629395,-1.153076,77.36641,5.625954,-63.08397,53.36,-140.76,17.48
-0.2739258,0.286377,-1.106201,48.73283,4.099236,-52.27481,65.32,-139.84,3.68
-0.314209,0.3425293,-1.190674,24.12214,-19.9084,-49.05344,65.32,-139.84,3.68
-0.3378906,0.2678223,-1.139648,16.38931,-45.47328,-54.22901,65.32,-139.84,3.68
-0.4099121,0.223877,-1.108643,-2.80916,-70.77863,-56.49618,75.44,-135.24,-2.76
-0.4719238,0.2185059,-1.105713,-4.946565,-85.9313,-55.0,75.44,-135.24,-2.76
-0.4758301,0.189209,-1.090576,-34.87786,-84.63359,-42.20611,75.44,-135.24,-2.76
-0.467041,0.1403809,-1.020508,-40.8855,-92.35114,-63.44275,91.08,-125.12,-3.68
-0.4353027,0.1442871,-0.9526367,-34.49618,-105.8626,-81.66412,91.08,-125.12,-3.68
-0.5085449,0.06958008,-1.026123,-41.33588,-114.0305,-82.57252,105.8,-112.24,-3.68
-0.7143555,0.08178711,-1.178223,-79.96183,-109.0534,-56.47328,105.8,-112.24,-3.68
-0.5400391,0.01464844,-1.072754,-121.145,-104.0687,-38.86259,105.8,-112.24,-3.68
-0.5683594,0.03076172,-0.8134766,-106.9084,-120.7939,-45.70229,113.16,-103.04,-5.52
-0.5305176,-0.04077148,-0.7470703,-88.72519,-123.2137,-64.07633,113.16,-103.04,-5.52
-0.7128906,-0.06079102,-0.8635254,-94.75572,-109.7023,-63.34351,113.16,-103.04,-5.52
-0.784668,-0.01831055,-0.7246094,-105.0763,-87.0458,-27.71756,121.44,-89.24,-6.44
-0.713623,-0.01342773,-0.5393066,-82.53435,-62.67176,-8.259542,121.44,-89.24,-6.44
-0.621582,-0.04711914,-0.5024414,-64.64122,-34.29771,-7.603054,126.96,-75.44,-3.68
-0.5561523,-0.1418457,-0.4050293,-46.17557,-6.305344,-22.35878,126.96,-75.44,-3.68
-0.5153809,-0.109375,-0.3432617,-28.83206,14.47328,-52.01527,126.96,-75.44,-3.68
-0.5839844,-0.06054688,-0.2915039,-25.89313,19.8855,-54.00763,128.8,-70.84,-6.44
-0.6635742,-0.02807617,-0.2148438,-25.60305,17.35878,-36.50382,128.8,-70.84,-6.44
-0.651123,-0.1274414,-0.2077637,-11.03053,20.85496,-46.17557,128.8,-70.84,-6.44
-0.6047363,-0.1162109,-0.2155762,10.9771,33.03817,-63.49618,129.72,-69.92,-6.44
-0.7084961,-0.1662598,-0.2839355,22.64886,27.51908,-66.79389,129.72,-69.92,-6.44
-0.7910156,-0.1010742,-0.3205566,27.52672,23.49618,-65.96947,130.64,-69.92,-14.72
-0.8198242,-0.1530762,-0.3522949,33.72519,20.84733,-67.27481,130.64,-69.92,-14.72
-1.13208,-0.137207,-0.6159668,-31.14504,-16.96183,-64.93893,132.48,-69.0,-25.76
-1.272461,-0.09179688,-0.5661621,-22.79389,-62.07634,-49.9313,132.48,-69.0,-25.76
-1.372314,0.04174805,-0.5876465,-10.68702,-62.51908,-23.70992,134.32,-65.32,-31.28
-1.24585,0.02563477,-0.5397949,8.511451,-48.28244,4.465649,134.32,-65.32,-31.28
-1.121338,-0.02124023,-0.5476074,26.32061,-30.68702,17.70229,134.32,-65.32,-31.28
-1.073242,-0.06860352,-0.520752,30.41985,-29.17557,10.82443,137.08,-57.04,-34.96
-1.090576,0.01171875,-0.480957,39.73283,-31.70992,28.30534,137.08,-57.04,-34.96
-1.078613,0.05761719,-0.4855957,30.58015,-26.40458,59.45802,137.08,-57.04,-34.96
-1.010742,0.01342773,-0.5056152,29.38931,-14.64886,68.09924,138.0,-49.68,-31.28
-0.9714355,-0.02270508,-0.5,20.47328,-0.1603053,80.79389,138.0,-49.68,-31.28
-1.011719,0.06274414,-0.440918,4.374046,5.045802,90.0229,137.08,-51.52,-19.32
-1.109619,0.1003418,-0.394043,-1.80916,-43.61069,120.1679,137.08,-51.52,-19.32
-1.132324,0.1203613,-0.4541016,-4.412214,-63.48855,137.7252,137.08,-51.52,-19.32
-1.046143,0.06787109,-0.4523926,14.93893,-25.12977,134.3893,132.48,-54.28,0.92
-0.9023438,0.05249023,-0.4602051,27.72519,5.320611,127.9389,132.48,-54.28,0.92
-0.8413086,0.08618164,-0.4694824,24.49618,25.51145,128.6488,132.48,-54.28,0.92
-0.8518066,0.1245117,-0.4892578,25.28244,44.23664,154.8244,125.12,-57.96,18.4
-0.7416992,0.09765625,-0.401123,29.22137,50.74046,154.1908,125.12,-57.96,18.4
-0.552002,0.06542969,-0.404541,42.44275,55.1832,130.4886,112.24,-67.16,36.8
-0.5314941,0.09545898,-0.512207,49.74046,60.80153,111.771,112.24,-67.16,36.8
-0.5285645,0.1774902,-0.473877,46.37405,72.29771,114.0992,112.24,-67.16,36.8
-0.4772949,0.2158203,-0.4262695,58.8168,75.21374,110.0992,99.36,-80.04,45.08
-0.4023438,0.1977539,-0.4394531,60.47328,71.58778,104.3588,99.36,-80.04,45.08
-0.3251953,0.2004395,-0.5058594,65.8855,82.229,93.61069,99.36,-80.04,45.08
-0.2521973,0.1691895,-0.5883789,66.83969,87.12977,61.80153,84.64,-92.92,53.36
-0.2780762,0.2250977,-0.5910645,71.24428,79.79389,69.19847,84.64,-92.92,53.36
-0.2919922,0.2609863,-0.6381836,78.71756,53.66412,63.35878,68.08,-105.8,57.04
-0.2592773,0.3349609,-0.6398926,85.00764,20.77099,-10.22137,68.08,-105.8,57.04
-0.2329102,0.2866211,-0.7910156,63.06107,13.77099,34.68702,68.08,-105.8,57.04
-0.2893066,0.3068848,-0.9248047,64.29771,34.83969,7.70229,59.8,-112.24,57.96
-0.3649902,0.3234863,-0.9128418,63.0,36.70229,-15.22137,59.8,-112.24,57.96
-0.2851563,0.3869629,-0.8591309,62.12977,25.19847,-4.641222,59.8,-112.24,57.96
-0.2150879,0.3554688,-0.9577637,80.70992,34.93893,-26.60305,56.12,-119.6,54.28
-0.3071289,0.4245605,-0.9904785,72.31298,29.58015,-43.70992,56.12,-119.6,54.28
-0.3925781,0.5263672,-0.9682617,54.80153,20.00763,-37.29008,57.04,-126.04,44.16
-0.3620605,0.4943848,-0.9560547,52.93893,14.36641,-36.0,57.04,-126.04,44.16
-0.338623,0.4060059,-1.096436,67.14503,32.19084,-63.62595,57.04,-126.04,44.16
-0.4580078,0.4257813,-1.184326,53.87786,40.41985,-71.8855,60.72,-131.56,32.2
-0.5214844,0.470459,-1.108643,22.18321,13.16794,-59.48092,60.72,-131.56,32.2
-0.4262695,0.3696289,-1.02124,17.18321,1.618321,-58.59542,60.72,-131.56,32.2
-0.4545898,0.310791,-1.058594,22.35878,8.267176,-72.80916,67.16,-132.48,23.0
-0.5505371,0.3222656,-1.11792,1.709924,0.7709923,-74.82442,67.16,-132.48,23.0
-0.4973145,0.25,-1.030762,-20.0687,-10.61069,-70.54962,77.28,-129.72,14.72
-0.4230957,0.151123,-0.9699707,-18.36641,-23.32825,-74.49619,77.28,-129.72,14.72
-0.4770508,0.1066895,-1.031006,-28.89313,-23.86259,-76.03817,77.28,-129.72,14.72
-0.5180664,0.0534668,-1.0271,-22.35878,-11.25954,-71.44275,86.48,-126.04,8.28
-0.4350586,0.03051758,-0.8920898,-31.87023,-5.984733,-65.35114,86.48,-126.04,8.28
-0.3981934,-0.04174805,-0.7890625,-28.35878,-6.10687,-73.09924,86.48,-126.04,8.28
-0.342041,-0.07641602,-0.7160645,-19.89313,-1.290076,-83.54198,95.68,-119.6,2.76
-0.4641113,-0.1054688,-0.8269043,-21.52672,11.15267,-83.76336,95.68,-119.6,2.76
-0.5266113,-0.1086426,-0.7902832,-45.22137,11.41985,-61.69466,102.12,-116.84,-8.28
-0.4956055,-0.1560059,-0.717041,-52.72519,-6.335878,-52.06107,102.12,-116.84,-8.28
-0.5217285,-0.1650391,-0.6813965,-25.92366,-14.64122,-70.25191,106.72,-112.24,-11.96
-0.5666504,-0.1328125,-0.677002,-28.14504,-36.78626,-67.83969,106.72,-112.24,-11.96
-0.5908203,-0.1362305,-0.6230469,-31.55725,-46.0,-61.87786,112.24,-106.72,-17.48
-0.6120605,-0.1491699,-0.5654297,-22.92366,-57.87786,-75.22137,112.24,-106.72,-17.48
-0.6835938,-0.07226563,-0.5839844,-12.83206,-61.1145,-86.32061,112.24,-106.72,-17.48
-0.7319336,-0.06274414,-0.5415039,5.374046,-67.57252,-101.9924,118.68,-96.6,-22.08
-0.7961426,-0.1162109,-0.5620117,23.59542,-68.15267,-133.7023,118.68,-96.6,-22.08
-1.028076,-0.0222168,-0.7712402,9.633588,-66.47328,-118.6565,118.68,-96.6,-22.08
-1.179443,0.07788086,-0.6572266,-11.33588,-84.91603,-71.8168,126.04,-85.56001,-29.44
-1.114014,-0.007568359,-0.6030273,0.7022901,-94.44275,-41.45038,126.04,-85.56001,-29.44
-1.02002,-0.03613281,-0.6066895,2.80916,-104.5802,-28.17557,131.56,-73.6,-30.36
-1.13916,-0.1105957,-0.7214355,-3.114504,-101.9618,-21.06107,131.56,-73.6,-30.36
-1.268799,0.03320313,-0.6704102,-22.54198,-77.29008,20.24427,131.56,-73.6,-30.36
-1.228516,0.02099609,-0.5993652,-8.946565,-55.82443,62.77099,132.48,-69.92,-29.44
-1.115234,-0.02685547,-0.5739746,10.51908,-34.09924,72.96947,132.48,-69.92,-29.44
-1.013916,-0.03466797,-0.5617676,22.65649,-13.9771,76.63359,132.48,-69.92,-29.44
