acc_x,acc_y,acc_z,gyro_x,gyro_y,gyro_z
-5111,13478,930,753,429,-284
-5135,13454,838,659,725,-184
-5379,12906,1434,62,2634,-64
-5371,12806,1862,24,2806,-144
-4575,13462,1410,683,973,-67
-4607,13482,1214,806,1005,75
-4703,13470,1070,878,1059,181
-4751,13362,970,985,1186,265
-6287,11810,746,1692,2737,617
-6719,11570,822,1699,3275,388
-6887,11210,238,1951,5511,-788
-6943,10958,114,1879,6550,-1214
-7139,10878,-158,1865,10387,-2617
-7003,10910,-6,1888,11483,-3057
-5663,11330,1642,1658,12638,-3882
-5367,11130,1938,1589,11825,-3971
-5287,10130,2182,2575,7048,-4515
-5471,9986,1830,2941,5836,-4961
-5299,11282,270,4414,4609,-6470
-4975,12170,110,4849,5123,-6866
-4663,14698,758,5996,7495,-7280
-4883,14942,1034,6326,8025,-7306
-6159,15738,1666,7365,9188,-7556
-6611,16126,2002,7692,9638,-7594
-7611,16554,2650,8201,11310,-7657
-8007,16706,3026,8345,11741,-7540
-8443,16834,4654,8205,12257,-6591
-8503,16514,5226,7812,11873,-6134
-9315,15234,5942,6509,8790,-4761
-9571,14778,5838,6346,7588,-4534
-10335,13362,5390,5866,4912,-4339
-10471,12766,5154,5676,4436,-4374
-11043,11454,4414,5527,3715,-4702
-11295,11106,4186,5613,3642,-4821
-11739,10238,3582,6034,4242,-4977
-11887,9846,3622,5978,4706,-4905
-12783,8602,3758,5287,6499,-4831
-13099,8506,3858,4926,7177,-4899
-13727,9046,4290,3710,9194,-5647
-13883,9402,4486,3472,9696,-6023
-13335,12574,5194,3275,9989,-6767
-13187,13118,5306,3339,9478,-6701
-14595,17074,5598,2655,7044,-7923
-14719,19858,5266,2523,6320,-8766
-15491,26118,4398,2858,5147,-13120
-14967,29482,3962,2940,5425,-15009
-12631,29446,4014,789,5065,-17722
-12599,29522,3022,-807,4949,-17980
-12299,26814,1914,-3334,3265,-16486
-12255,24934,2566,-3583,1947,-15288
-11703,20906,2242,-4886,-2068,-11162
-11843,19722,2074,-5267,-2638,-10161
-11191,15190,1094,-5127,-4501,-7203
-11147,13714,526,-4896,-4955,-6555
-11679,12286,-466,-3906,-4446,-5617
-11735,12270,-702,-3440,-4000,-5435
-11375,12050,-730,-2264,-1524,-4707
-11147,11674,-790,-2033,-656,-4156
-11351,9654,-214,-2065,1953,-1887
-11547,9210,62,-2276,2561,-1183
-11939,8654,1238,-3004,2920,1018
-11979,9066,1726,-3076,2429,1639
-12007,11390,2618,-2547,-504,3337
-12139,12442,3010,-2161,-1852,3762
-12499,13482,3770,-721,-6927,5576
-13355,13382,4078,-732,-8189,5852
-13295,19986,4254,-1113,-12612,5305
-13643,21594,3950,105,-14695,5139
-15883,32674,4138,4616,-19042,976
-15467,33293,3430,6682,-19393,-762
-12339,33293,3690,15373,-20117,-3278
-12083,33293,3902,16197,-19280,-2547
-12219,24858,3838,11515,-13923,4012
-12223,22210,3254,8602,-11435,7042
-15747,20522,654,2914,-3833,14274
-16543,19950,822,2392,-1753,15759
-16443,15610,2394,1450,3119,17886
-16223,13810,2590,1656,3897,17972
-14719,10090,3074,3254,5484,17578
-15199,9582,3658,3657,5611,17562
-16387,7322,5442,5215,4265,15168
-16691,7014,5894,5825,3183,14309
-17043,6766,5770,7600,-816,11585
-17071,6802,5426,8054,-1886,10855
-16831,8650,4210,8716,-2896,8980
-16451,9794,3722,8581,-2645,8859
-17307,15550,3474,6315,-478,8284
-17907,19642,2758,5031,549,7472
-18251,23342,1966,2939,5986,2775
-18127,23694,2466,1694,7867,-39
-17079,29450,2614,-2578,15557,-12984
-15891,26682,4422,-4007,16228,-16106
-12539,19222,2626,-10365,9852,-19111
-12567,18626,1038,-10258,7024,-18796
-13235,19150,-166,-3971,-267,-15994
-13183,18030,702,-2450,-1140,-14939
-13915,13734,1226,-3295,-34,-14170
-13895,12618,1230,-3504,268,-14456
-10983,9694,94,-3975,-157,-14344
-10635,9630,-618,-4106,-24,-14008
-10403,9054,-886,-5171,3865,-13112
-10651,8898,-474,-5385,5003,-12767
-10871,9070,810,-3522,4302,-11110
-11131,9290,1486,-3149,3761,-10785
-10771,11298,2410,-2697,1258,-8662
-10751,11670,2358,-2347,107,-7856
-9611,13230,1834,-1230,-3599,-4742
-10007,13342,1778,-1219,-4189,-3936
-9719,24154,1170,-2113,-3969,-2661
-9627,26954,526,-997,-4113,-1727
-11319,33293,2430,1843,-2677,-2060
-10591,33293,2834,3283,-2668,-1578
-9479,33293,4450,7770,-6352,3047
-10011,33226,4538,6964,-6570,4829
-11655,28386,2870,2908,-5257,11278
-12151,26878,1806,2108,-4351,13572
-13775,21122,750,1210,-352,17528
-13863,19374,1006,1072,1006,18216
-14267,12898,2086,1536,2737,19017
-14535,10994,1974,1913,2724,18882
-15311,7310,2674,3453,2322,17779
-16439,5974,5434,5240,-338,13995
-16447,6026,5622,5359,-782,13771
-16511,5950,5782,5422,-1124,13580
-16607,5830,6030,5636,-2110,13021
-16715,6734,5790,6385,-4302,11423
-16771,8758,4590,7559,-5780,9034
-16611,9826,4146,7513,-5330,8299
-17695,18434,3526,6031,-2475,4805
-17683,21582,3090,5628,-1406,3700
-17919,22218,4138,1959,1089,-87
-18891,25914,3418,113,2284,-2870
-17243,32342,2786,-1883,10134,-12229
-15915,28250,4902,-3933,10769,-13880
-13047,18542,3138,-12322,4364,-15252
-12747,18490,1098,-11938,723,-14998
-13055,20070,-1786,-4495,-5687,-12978
-14283,17862,-1150,-3516,-5514,-12687
-15291,13098,-1174,-4311,-1403,-14105
-14847,12246,-1366,-4436,193,-14600
-12315,10914,-654,-4637,4007,-15237
-11531,11346,-406,-4950,5276,-14906
-10727,11702,-70,-4530,7776,-12644
-11027,11438,630,-3982,7759,-11827
-12295,10254,2914,-3612,6400,-9505
-12491,10238,3414,-3969,5557,-8934
-11723,11270,3250,-4648,2040,-6749
-11183,11630,2530,-4523,828,-5875
-10291,11438,1274,-3702,-1369,-3404
-10027,11974,1122,-3491,-1748,-2591
-10203,18226,1614,-3567,-2771,-1142
-10007,21162,1218,-3046,-3469,-723
-13039,27386,2226,765,-4720,-1780
-12639,33293,2450,648,-4153,-3847
-9787,33293,2054,8808,-4621,-1833
-9843,33293,3394,8830,-4424,-1314
-11163,30378,3398,4765,-2373,2858
-12127,29786,2958,4509,-2288,4448
-12947,25834,2982,3918,-548,8586
-12803,24406,3118,3416,97,9809
-12807,16858,3206,2246,116,13272
-12967,14750,2962,1892,-116,13887
-13503,11266,2510,1679,-443,14763
-13839,10526,2434,2095,-414,14686
-14759,8546,3442,4134,-723,13455
-14815,8102,3818,4887,-1049,12933
-14923,8002,4946,6551,-2456,11673
-15079,8154,4870,7104,-3158,11408
-15479,8790,4438,8106,-3860,10931
-15819,9018,4346,8129,-3566,10780
-16567,10934,4354,7024,-2087,10312
-17007,12550,4466,6221,-1596,9799
-17987,22610,3506,3638,95,6754
-17551,23734,3094,3497,943,5983
-17123,21238,3950,-228,2593,1248
-17623,22682,3150,-2234,3358,-1151
-16899,26394,2498,-5406,7290,-9171
-16003,24718,3674,-6318,7165,-10764
-13603,20130,2670,-8595,1377,-12277
-13715,18774,1798,-7804,-1083,-11892
-15015,15498,230,-5075,-5165,-10906
-15515,14554,398,-5144,-4964,-10928
-15235,13026,430,-6053,-3774,-11385
-14307,12378,-454,-5794,-3911,-11283
-12931,10470,-2210,-4318,-2258,-10667
-12963,10282,-2142,-4537,-671,-10544
-13087,10222,-2034,-5571,5351,-9891
-13163,10238,-1270,-5590,6736,-9505
-12343,9454,1878,-4903,6228,-7725
-12515,9366,2906,-4575,4787,-7171
-12819,10698,4110,-3787,-1288,-5581
-12891,11410,4326,-3463,-3631,-5340
-12943,13714,4282,-2629,-10276,-4788
-12251,16814,3330,-2932,-11589,-4804
-12083,22814,-870,209,-11323,-3587
-13479,25778,-258,863,-9731,-4584
-11459,33293,702,4000,-5105,-6576
-10851,33293,2046,6930,-5607,-5731
-10599,30898,5198,6117,-6020,-2752
-10899,29902,4650,4379,-6157,-1572
-11003,26082,1730,3618,-6698,2572
-10987,23586,1918,3818,-6711,3686
-11047,18106,2866,3574,-7186,5251
-10895,16410,2610,3579,-7768,5591
-10975,12658,1934,4507,-9385,6300
-11143,11910,1862,4870,-9639,6463
-11595,10794,1886,5888,-9636,7071
-11815,10466,1862,6292,-9475,7328
-12179,9498,2178,7456,-8390,8020
-12311,9350,2322,7825,-7979,8318
-12895,8990,2530,8831,-6429,9272
-13151,9038,3034,9033,-5819,9546
-13539,10694,3418,8831,-4315,10485
-13355,11534,3422,8685,-4161,11110
-15167,15582,3778,7083,-2575,11808
-15867,19290,3610,6362,-1685,11329
-16527,23922,3218,6021,372,10653
-16479,23246,3794,5212,2254,9480
-17319,33293,2958,655,7995,2580
-16739,31826,4030,-70,9543,979
-14811,23718,6050,-4649,9604,-1164
-14735,18466,5826,-9900,5017,-1423
-15815,20162,2978,-9335,-6131,92
-15827,20074,2706,-7506,-9207,1076
-17491,16046,3506,-6320,-13313,1282
-17991,12466,1682,-6522,-15633,86
-15783,9978,-2310,-5441,-15256,-1537
-15899,9462,-2970,-5317,-13920,-1888
-15239,8558,-2838,-6821,-9645,-3199
-15699,8378,-2478,-8187,-4887,-5027
-16215,10026,-810,-7600,-99,-8298
-16095,10530,170,-7138,447,-9062
-15335,10602,2802,-6150,-1132,-10330
-15079,10458,2994,-6133,-2210,-10468
-14475,11370,2458,-5831,-6534,-10944
-14275,12330,2062,-5438,-7904,-10919
-13379,14326,1318,-3915,-11242,-9822
-13087,14702,1158,-3675,-12066,-9130
-12755,14562,674,-3398,-14046,-3739
-12691,14198,838,-3540,-13989,-3233
-13567,13102,1162,-4915,-13294,-1346
-12351,24206,2430,-7109,-13320,-1660
-13023,26678,3714,-4975,-15655,-2052
-11579,33293,4934,7021,-29213,-10697
-8471,33293,2922,13487,-32072,-9862
-10035,33293,4254,17270,-28854,-4869
-12903,32134,6954,9650,-20635,-515
-15363,28086,3154,4700,-16701,3674
-14775,26222,2262,5733,-16459,4405
-12803,21586,2950,6536,-13825,5908
-12095,16586,4446,5109,-10860,7148
-12107,12430,4850,4089,-9541,7556
-12187,11646,5142,4256,-9835,7293
-12283,10258,5442,6006,-12712,6292
-12375,10154,5446,6659,-13590,5885
-12743,11502,4950,8697,-15022,4297
-12655,12286,4882,9454,-15210,3895
-12795,14626,4818,11067,-14733,3192
-12863,15838,4546,11028,-13867,3143
-13243,20162,4270,10044,-9236,3818
-13255,21330,4446,9507,-7485,4446
-13555,22754,4678,6676,-1931,7397
-13983,22978,4866,5471,-234,8241
-14171,25450,5398,3030,3044,9654
-15475,25950,7462,1206,4356,10925
-15343,18182,10002,-4881,2093,11057
-14779,15906,9758,-7073,249,11151
-14443,13186,8066,-10129,-4666,11714
-14903,12158,6542,-10663,-9420,12081
-15963,13530,6238,-8573,-15653,11882
-16459,13918,6134,-7835,-17233,11290
-16971,14358,5206,-6568,-19239,9387
-16667,15514,3170,-5251,-19473,6812
-14867,16902,1618,-3253,-15685,3641
-14763,16642,1526,-3406,-13822,2708
-14931,16202,1546,-4727,-8114,439
-15099,15938,1806,-5180,-6607,-16
-15667,15970,3446,-5770,-5787,-425
-16011,15866,3870,-5725,-6603,-336
-17015,15458,4650,-5117,-10930,-600
-17295,15398,4554,-4835,-12570,-933
-17659,15086,3902,-4156,-15944,-1902
-18075,14318,2578,-3590,-17856,-3622
-17651,15342,634,-3030,-17452,-5974
-17503,15566,382,-3081,-16569,-6440
-17667,15538,-290,-3270,-14062,-7208
-17307,15698,-198,-3424,-11371,-7635
-16163,16154,234,-3628,-7915,-7607
-15735,16266,394,-3592,-7041,-7365
-15263,16558,998,-2761,-5309,-6457
-15127,17034,1218,-2439,-5099,-6153
-14479,18506,1874,-1961,-5014,-5037
-14163,18818,2274,-2027,-5260,-4487
-13911,18830,2554,-2461,-6988,-2604
-13935,19658,2322,-2734,-7313,-2224
-13927,26250,1722,-2938,-7025,-1486
-13447,27746,1850,-2368,-7181,-1083
-12583,24418,2302,364,-9164,1455
-12551,21494,2318,737,-9692,2712
-12875,15958,2486,-158,-10076,5667
-13847,13654,1902,-1659,-9030,7787
-15819,15754,3006,-1391,-7241,8630
-16491,16458,4050,-602,-7754,8144
-15991,18906,5242,3258,-11029,5916
-15267,19334,4506,4288,-11279,5518
-14419,18814,2342,6504,-6466,5576
-14523,17910,2890,6382,-4281,5506
-15087,16146,4238,4912,1379,6088
-15247,15606,4322,4340,2702,6379
-15771,14802,5006,3070,5620,7265
-15899,14590,5182,2733,6149,7590
-15835,13734,6310,2201,6246,8241
-15879,13306,6570,2224,5770,8412
-16323,11250,6594,2630,3760,8372
-16323,10578,6354,2690,3232,8173
-16135,8906,5674,2243,2563,7452
-16075,8378,5538,1893,2570,7204
-15991,7622,5134,770,2722,6157
-16079,8026,5062,487,2759,5637
-15651,10082,4786,-252,2451,3377
-15327,10854,4946,-518,2020,2657
-14471,13798,4138,-1462,-1012,1305
-15011,15806,3626,-1229,-1987,265
-16191,19706,3086,1160,-4189,-4352
-16027,20894,2962,1389,-4131,-6421
-15891,27090,1218,412,-1680,-14332
-15671,30262,622,123,150,-17147
-12831,31158,2134,-2248,2489,-21361
-11535,28562,1878,-3408,1535,-20660
-11119,19934,1270,-4861,-4953,-14733
-11175,18966,1018,-4866,-6698,-12489
-12039,15194,1218,-5557,-10102,-7644
-12207,13782,1154,-5623,-10815,-6800
-11679,11942,410,-5115,-12256,-5527
-11191,11270,-338,-4045,-12996,-4721
-10939,10730,-1326,-2727,-11737,-3676
-10671,10494,-1634,-2378,-10946,-3282
-10551,9994,-1706,-1830,-8835,-2307
-10715,10090,-1310,-1603,-6491,-1339
-11243,11662,-62,-1226,-3783,766
-11603,12142,422,-1042,-3300,1460
-12063,13054,1814,-668,-2940,3608
-11987,13278,2202,-574,-3415,4349
-11843,12974,3002,-5,-6244,7290
-12355,13694,3174,-408,-6692,7873
-12187,24178,2330,-580,-7391,9793
-13175,26026,2654,821,-7764,10358
-15455,33293,4246,3766,-7043,5730
-13699,33293,2534,6518,-6679,4899
-11071,32866,5470,10436,-5592,6435
-11571,29554,5566,9125,-4235,7264
-14643,24102,5086,4136,-395,9867
-15199,22958,4266,2777,655,10703
-15847,17862,3830,1108,2763,11887
-15879,15906,4082,942,3078,12046
-15943,7314,4694,944,1337,11782
-15919,7122,4590,890,1226,11667
-16239,6246,4366,995,491,11243
-17443,5374,3966,2396,-132,8824
-17587,5430,4094,2857,-102,7806
-17375,6342,4862,3705,-433,4780
-17207,7126,5038,3865,-655,4002
-16883,11238,4494,3983,-970,2142
-16747,12234,4050,3931,-962,1886
-17503,17806,2978,2267,-118,-478
-17107,20474,2294,1807,206,-1247
-16695,24050,1818,87,2598,-4534
-16367,24090,1562,-1194,3504,-5904
-15547,30366,-1014,-3636,9004,-12401
-14915,30150,-30,-3360,10587,-14120
-12283,23610,2406,-4342,7743,-15634
-12103,21954,1878,-4637,5857,-15029
-13703,17826,1046,-4517,2589,-12617
-13623,16906,1206,-4459,2285,-12080
-13507,14626,2182,-4774,2058,-11483
-12227,13730,2738,-5236,859,-10792
-11571,12634,1158,-4293,-1446,-9155
-11791,12094,778,-4108,-1512,-8841
-11759,11210,666,-4298,-740,-8211
-11455,10682,206,-4700,402,-7361
-11319,10150,802,-4493,1063,-5929
-11279,10086,1126,-4345,760,-5515
-11183,10438,1426,-3823,-479,-4826
-11043,12038,1782,-3084,-2361,-4255
-10263,14806,1046,-856,-5870,-2403
-10039,14938,926,-107,-6783,-1243
-12007,18930,1514,-1468,-5718,618
-11391,21782,1082,-1595,-5317,1308
-10863,25474,602,1631,-5963,5652
-11835,29686,414,1262,-4570,5621
-11843,33293,166,5581,1999,5921
-11327,33293,1418,7283,2556,5967
-11071,28266,4686,7990,3980,7723
-11807,26870,5038,6998,4214,8464
-13543,23750,5270,4824,3580,9786
-13439,22514,5366,4452,3130,10012
-12827,16742,5662,3782,584,10805
-12855,14434,5626,3610,-494,11115
-14067,9378,4318,3598,-2963,11231
-14459,8526,3914,3801,-3103,10987
-15195,7638,3654,4873,-1840,10029
-15211,7654,4066,5097,-1254,9669
-15415,7886,4442,5722,119,8833
-15427,8130,4238,5978,553,8631
-15835,9086,3838,6846,2517,8021
-15903,9726,4042,6927,3356,7800
-16227,11522,4686,6040,6070,7317
-16375,12146,4842,5305,6472,7177
-16771,18170,4010,1986,6195,5162
-16651,20054,3346,1443,6102,4479
-16279,20778,3330,-609,6740,193
-15983,20918,2978,-1330,6895,-1495
-17467,25130,2006,-2282,8300,-8004
-16051,28482,2994,-1284,10303,-15057
-11739,22018,4822,-3362,3750,-18722
-11291,20346,3674,-3833,735,-18210
-12667,17694,1774,-3885,-4249,-16380
-12983,17070,338,-3141,-6021,-14221
-13975,14242,1178,-4529,-4198,-13138
-13367,13954,1506,-5053,-4132,-12833
-11695,13146,-526,-3914,-4342,-11037
-11551,12654,-846,-3656,-3623,-10548
-11687,10738,-1126,-4227,1655,-9743
-11575,10350,-842,-4578,3248,-9468
-10639,9394,814,-4753,4616,-7334
-10411,8806,854,-4555,4164,-6356
-11003,9066,1314,-4191,3076,-4427
-10915,10158,1306,-3995,2615,-3992
-11071,13382,2326,-2273,-314,-1841
-11907,14778,3266,-2448,-1074,-1746
-10759,22270,3054,-2813,-3392,-1692
-10711,25446,2262,449,-6529,-272
-12431,33293,2726,2084,-7126,-2714
-10775,33293,1350,4429,-6886,-2240
-10815,33293,2342,9121,-7138,-628
-11071,29798,3338,8473,-5805,1084
-12427,25654,2342,4288,-2541,5052
-12539,24602,2014,3440,-1434,6615
-12795,21082,1514,2881,837,8959
-12411,17114,2426,2455,2239,10735
-12711,11514,3358,2295,1757,12555
-13019,10310,3446,2255,1319,12812
-13707,8826,3918,2554,29,13080
-14555,8022,3918,3577,-1375,12936
-15195,7526,4050,6053,-3335,12365
-15215,7418,4110,6628,-3688,12177
-15839,8998,3946,7899,-3442,11414
-15971,10122,3658,8175,-3075,11141
-16687,13910,3234,7836,-1632,10496
-17063,17302,3370,6886,-730,9659
-17507,25814,2274,4288,2726,7209
-17075,24586,2754,3436,3825,6433
-17931,25802,1598,-1560,6537,-281
-17583,26750,1230,-2022,7573,-2911
-14811,22030,3974,-5241,5569,-8379
-14523,20718,3498,-6591,3778,-9023
-15023,20682,1510,-6169,-2156,-10034
-14871,20042,1406,-5281,-3623,-9798
-14679,14446,674,-4439,-4495,-9108
-14759,12974,462,-4563,-4073,-9126
-14059,11682,90,-5264,-3426,-9436
-13395,11462,-574,-5580,-2594,-9397
-13195,10506,-290,-5981,-434,-8967
-13099,10142,-78,-6038,125,-8707
-12903,9126,-82,-5913,531,-7679
-13019,7982,-990,-5336,1313,-6601
-13039,8602,-142,-5226,4132,-6033
-12959,9166,490,-5139,4547,-5941
-12367,10742,1286,-4720,4286,-5554
-11443,13318,2302,-3925,2362,-4956
-11607,15690,1746,-3036,-948,-2822
-11767,17706,1526,-3252,-1034,-2734
-11443,22442,1994,-1295,-2005,-1798
-12051,24906,2786,-974,-2297,-2315
-10699,33293,2374,3702,-3329,-5569
-10399,30170,4298,7669,-5583,-3180
-10595,29302,4290,7260,-5480,-2779
-10787,28362,4302,6702,-5389,-2210
-11495,24222,1910,2804,-3774,2173
-10971,23146,1462,2434,-3008,3830
-11095,16054,1118,2947,-489,7555
-11119,13906,1574,2921,-52,8529
-12051,9530,1762,3158,-443,10478
-12375,8890,1742,3420,-729,10801
-13443,7786,2270,4820,-1431,11376
-13575,7566,2534,5405,-1674,11446
-13979,7174,2922,7080,-2260,11448
-14039,7510,2742,7372,-2121,11379
-13971,10778,2806,8066,-2115,11734
-14443,12114,3066,8071,-2341,11800
-16831,21466,3002,7616,-1843,9648
-17411,24202,2726,7890,-968,8350
-16119,25954,3318,6722,4054,4444
-16543,26634,2946,4627,6095,2451
-16479,25434,2794,-1231,14197,-3973
-15959,22986,3786,-3250,15004,-5496
-14119,18434,5150,-8802,10822,-7422
-13863,18130,5294,-8684,7460,-6963
-15127,15058,5370,-5170,-4129,-4132
-15499,13962,5066,-4424,-6666,-3446
