acc_x,acc_y,acc_z,gyro_x,gyro_y,gyro_z
-791,5826,1635,19,-167,76
-807,5902,1519,46,-193,109
-871,6022,1559,35,-288,179
-951,5978,1467,-33,-405,183
-555,5686,2655,217,839,-179
-619,5674,2799,165,644,-138
-711,5566,2643,161,524,-158
-695,5570,2475,163,525,-156
-563,5570,2351,135,453,-205
-495,5606,2479,170,444,-177
-559,5662,2323,119,375,-176
-359,5578,1927,83,-69,14
-423,5602,1507,180,-93,5
-751,5494,1211,522,228,-23
-1187,4634,435,427,833,-390
-643,5902,1471,262,1268,-183
-435,5506,1179,580,1182,-190
-771,6066,1743,161,995,-28
-623,5878,1711,82,1058,-35
-759,5570,2015,-10,938,-99
-607,5610,2187,107,1010,-206
-395,5734,2451,52,947,-243
-387,5722,2583,49,963,-231
-603,5698,2931,88,421,-204
-643,5674,2811,131,193,-127
-627,5790,2563,45,-323,-7
-595,5750,2319,40,-389,7
-639,5774,1975,50,-312,-23
-671,5798,1851,120,-215,-4
-803,5686,1903,247,-34,36
-739,5610,1871,289,30,69
-523,5842,2087,156,102,68
-499,5798,2091,37,65,49
-663,5802,2231,56,47,101
-655,5806,2183,78,25,117
-631,5834,2295,39,125,18
-531,5810,2263,16,60,22
-499,5738,2435,80,-73,24
-623,5650,2411,96,-168,67
-631,5662,2343,61,-309,82
-655,5714,2199,-3,-301,124
-659,5754,2339,-215,-298,111
-531,5662,2107,-240,-354,74
-595,5718,1959,-102,-452,60
-651,5658,1895,-122,-374,59
-731,5850,2067,-169,-307,103
-723,5694,2047,-176,-273,86
-447,5854,1955,3,-331,165
-619,5554,1895,52,-239,93
-691,5722,2035,-32,-270,104
-727,5650,2035,-38,-330,99
-647,5638,1983,-62,-318,83
-655,5634,1967,-2,-358,110
-591,5658,1811,46,-298,151
-547,5630,1755,48,-258,154
-627,5630,1695,93,-144,38
-531,5642,1891,61,-93,88
-587,5670,1879,10,-118,111
-659,5682,2015,-24,-123,147
-595,5714,1919,-3,-179,103
-615,5682,2043,-19,-173,150
-527,5782,1919,-13,-110,86
-591,5802,1803,-35,-143,115
-587,5638,1939,7,-181,185
-663,5678,1983,-41,-218,162
-639,5550,1887,11,-280,186
-607,5494,1879,35,-247,144
-579,5538,1803,18,-158,136
-583,5546,1739,23,-153,128
-595,5554,1623,72,-31,71
-559,5494,1635,42,64,55
-447,5526,1803,54,51,-23
-579,5498,1815,47,136,-19
-603,5482,1827,94,73,-35
-651,5542,1847,100,68,-50
-583,5638,1975,41,85,-66
-563,5570,1955,-16,93,-86
-663,5678,1851,86,-83,1
-615,5734,1915,56,-66,-8
-651,5606,1851,70,-62,14
-583,5622,1939,73,-19,-2
-523,5578,2099,-74,48,-12
-503,5658,1887,-80,14,22
-627,5650,1731,1,34,25
-583,5610,1623,30,59,35
-567,5606,1963,-42,-74,31
-683,5618,1903,-36,-125,92
-499,5418,1891,-69,-168,101
-515,5558,1871,-44,-129,64
-483,5514,1555,4,44,-37
-675,5610,1655,23,76,-46
-663,5614,1775,62,110,-28
-719,5686,1975,10,106,-14
-599,5638,1811,-37,12,32
-599,5566,1911,10,48,42
-499,5546,1723,59,128,-9
-575,5586,1799,80,149,12
-643,5614,1983,-2,76,-8
-651,5674,2115,-66,-25,16
-611,5670,1903,-44,-180,114
-587,5606,2003,-52,-235,64
-635,5538,1835,55,-138,41
-567,5434,1659,150,-98,45
-555,5502,1827,68,94,-16
-583,5554,1815,28,98,-45
-479,5494,1735,-29,-9,-21
-543,5622,1707,-59,-4,-34
-647,5614,1555,29,58,27
-611,5534,1739,53,154,-6
-599,5566,1795,73,188,4
-583,5554,1767,33,181,-2
-559,5474,1935,53,123,-7
-579,5578,1983,34,96,-42
-591,5578,1767,68,86,-42
-703,5586,1735,83,200,-60
-519,5610,1919,95,210,-78
-543,5558,1855,61,243,-50
-567,5622,1963,42,68,-60
-687,5534,2039,34,82,-24
-583,5602,1891,13,189,-51
-487,5578,1891,19,214,-68
-451,5654,1895,29,206,-26
-615,5634,2027,-6,147,19
-643,5718,2039,-6,-58,39
-615,5702,2107,-83,-138,72
-627,5686,1907,-58,-247,129
-507,5578,2103,-37,-251,117
-615,5578,1687,7,-36,78
-659,5554,1715,8,6,63
-647,5634,1851,19,81,-32
-543,5542,1903,-19,80,-12
-571,5558,2003,-53,94,-29
-559,5590,1871,9,-5,-20
-519,5622,1855,143,152,-14
-519,5586,1875,123,170,-63
-683,5590,2051,182,328,-123
-655,5622,2055,104,265,-67
-603,5554,2091,-41,-45,-17
-475,5550,2103,-95,-126,28
-591,5510,1799,-17,-148,-43
-563,5586,1727,-10,-52,-60
-703,5730,1823,9,155,-38
-659,5686,1871,-3,164,-47
-607,5718,2011,-73,24,39
-591,5570,1951,-49,-71,44
-543,5558,2027,-15,-103,112
-519,5450,2095,45,-57,117
-559,5454,1851,84,-51,77
-515,5382,1895,74,-9,33
-467,5462,1875,39,-47,-51
-531,5486,1735,68,-73,-86
-711,5574,1719,85,121,-117
-671,5602,1883,43,121,-128
-631,5626,1947,-9,261,-158
-591,5746,1963,-9,240,-141
-587,5614,2095,53,251,-114
-611,5630,2303,28,243,-126
-583,5670,2139,23,140,-95
-619,5750,2163,-53,-148,26
-587,5674,2151,-24,-204,33
-567,5778,1867,-13,-176,54
-563,5626,1899,7,-17,5
-635,5702,1991,-47,8,20
-675,5690,2103,-98,-48,30
-535,5634,2019,-47,-237,121
-531,5622,2087,-46,-193,125
-615,5590,1719,63,29,124
-595,5606,1819,108,46,88
-575,5570,2099,29,3,35
-535,5646,1959,-35,-79,54
-527,5574,2159,-33,-196,27
-587,5534,1879,0,-197,66
-699,5586,1771,105,62,106
-607,5610,1791,116,162,40
-599,5642,2031,81,107,99
-587,5678,2039,12,70,102
-623,5586,2087,-47,-149,162
-591,5482,1843,-56,-186,165
-611,5546,1747,41,-33,105
-547,5550,1863,48,-34,115
-611,5590,1867,60,53,57
-523,5594,1991,4,94,37
-523,5538,2035,-88,-7,65
-491,5554,1951,-98,-8,60
-543,5578,1867,-24,53,45
-611,5582,1963,11,104,52
-587,5502,1995,42,207,16
-503,5450,2027,84,154,18
-575,5650,2287,3,-15,37
-527,5594,2215,19,-104,46
-607,5534,2127,-32,-201,83
-543,5606,1867,31,-176,51
-571,5498,1827,31,-44,42
-551,5570,1671,20,-9,34
-575,5510,1875,-28,3,34
-579,5570,1843,-23,-36,32
-503,5514,1847,-19,15,52
-571,5506,1891,1,-43,71
-555,5466,1851,8,-25,66
-595,5522,1839,11,-35,79
-535,5442,1863,-19,-12,17
-519,5458,1963,-17,-56,46
-551,5462,1943,2,-9,53
-587,5414,1879,47,0,30
-603,5510,1971,20,101,21
-559,5542,2043,-28,117,-21
-547,5526,1991,10,228,0
-471,5530,1967,-11,182,14
-531,5402,1955,-64,124,-44
-511,5454,2091,-56,80,-74
-575,5454,1851,-24,65,-70
-635,5530,1907,17,28,-52
-635,5630,1939,34,75,-20
-455,5670,1955,18,40,40
-683,5442,1807,76,89,-8
-595,5422,2003,104,107,11
-503,5370,1991,65,180,-15
-491,5430,2019,53,170,13
-531,5538,2091,15,67,-26
-571,5502,2051,-39,19,-4
-615,5582,1995,9,54,-2
-551,5562,2063,56,92,-1
-603,5506,2003,31,127,27
-615,5566,2015,5,147,-13
-571,5530,2027,-5,-75,41
-523,5486,2043,-4,-49,-1
-463,5502,1911,-57,10,-8
-467,5506,1951,-123,48,-130
-459,5606,1995,-94,167,-133
-591,5466,1995,-99,197,-200
-575,5562,1983,-118,117,-170
-635,5614,2127,-185,91,-96
-647,5506,2047,-77,58,23
-611,5602,1919,-72,17,9
-527,5558,2055,14,-118,179
-571,5518,2079,-94,-176,215
-635,5454,1855,-90,-327,238
-543,5426,1871,-86,-287,226
-479,5458,1683,92,36,43
-515,5514,1663,95,199,-21
-487,5458,1903,46,395,-152
-515,5502,2315,-55,343,-205
-615,5578,2375,-117,20,-179
-571,5518,2099,-88,-32,-210
-543,5654,1895,-3,64,-220
-595,5590,1903,26,116,-238
-535,5890,2139,-62,120,-120
-615,5802,2367,-83,17,-54
-671,5726,2231,-92,-235,7
-603,5710,2267,-76,-300,3
-515,5642,2031,-61,-245,22
-519,5614,2095,-98,-238,42
-583,5530,1971,-82,-375,95
-631,5490,1947,-60,-389,82
-623,5442,1743,-4,-265,62
-539,5538,1507,-4,-107,48
-623,5590,1915,-46,104,45
-603,5574,1895,-1,36,35
-559,5538,1831,6,81,0
-539,5478,1831,82,96,9
-527,5546,2115,57,106,-63
-507,5578,2127,-15,-1,-27
-619,5542,2099,55,-164,-32
-659,5450,2039,34,-187,-41
-499,5506,1967,88,-99,-71
-475,5538,1991,63,75,-77
-571,5570,2163,-80,-80,-106
-667,5518,2063,-32,-136,-85
-527,5638,1839,-14,-63,-173
-523,5614,1647,-10,23,-166
-651,5806,1847,-97,337,-194
-611,5754,1967,-141,175,-139
-659,5630,2011,-159,66,-245
-619,5762,1819,-115,91,-243
-451,5762,1967,-176,269,-248
-611,5854,2263,-375,300,-230
-671,5570,2463,-663,-487,-157
-571,5506,2223,-640,-635,-206
-379,5482,1963,-569,-587,-292
-375,5418,1495,-457,-325,-316
-723,5478,1467,-83,240,-490
-791,5558,1667,15,402,-526
-699,6090,1959,4,555,-413
-743,6114,2091,-46,519,-341
-815,6050,2171,-30,150,-36
-715,5982,2139,7,83,-18
-615,5774,2075,23,237,16
-595,5678,2231,31,276,4
-607,5758,2383,-21,29,104
-659,5794,2379,-19,-105,117
-583,5874,1967,-15,-287,146
-531,5866,1967,-58,-182,147
-659,5810,2071,-82,-73,153
-779,5782,2067,-81,-152,166
-715,5742,1967,-16,-235,206
-615,5694,1819,15,-224,141
-619,5742,1979,22,-28,93
-523,5702,1975,18,37,57
-691,5850,2007,-55,-71,98
-695,5706,2123,-41,-63,69
-615,5694,1919,13,86,18
-635,5690,2019,36,114,39
-519,5762,1967,-28,127,-2
-607,5782,2123,-64,101,-49
-619,5870,1971,-61,82,-44
-627,5826,1883,-3,66,-59
-631,5902,2083,-16,188,-10
-719,5854,2155,-47,122,12
-775,5762,2227,37,13,116
-739,5802,2291,67,-34,157
-531,5698,2311,62,-91,173
-443,5706,2207,16,-131,178
-555,5518,2127,37,-384,150
-611,5594,2075,25,-364,151
-683,5582,2071,86,-364,136
-611,5738,1871,120,-54,117
-583,5742,1735,82,68,95
-643,5722,1843,48,-2,148
-667,5754,1903,84,21,122
-659,5666,1795,60,98,133
-671,5718,1891,19,131,63
-619,5714,1987,24,193,21
-695,5754,2283,19,153,47
-599,5690,2219,0,-119,82
-559,5654,2151,-8,-137,60
-595,5634,2055,63,-97,59
-559,5642,1979,-6,11,84
-579,5642,2091,-16,-64,83
-647,5622,2159,-47,-82,70
-539,5550,1943,15,-114,41
-603,5590,2015,-20,-72,24
-655,5702,1775,46,166,-18
-719,5774,1975,45,222,-33
-539,5770,2003,-43,237,-21
-563,5650,2199,-43,154,-20
-519,5686,2043,-14,-55,42
-551,5702,2075,22,-64,60
-663,5638,2035,75,86,75
-659,5718,2107,34,71,24
-587,5734,2359,-18,-96,132
-591,5626,2175,-60,-181,140
-599,5554,2075,-4,-258,148
-463,5450,1787,27,-140,60
-519,5542,1807,70,230,-29
-535,5542,1819,121,224,-45
-723,5782,2207,50,211,-74
-655,5690,2071,8,177,-12
-551,5634,2019,-26,24,-13
-479,5654,2031,38,44,-22
-587,5634,1935,92,126,-21
-591,5614,1987,113,172,-25
-591,5726,2147,52,113,-38
-611,5646,2159,-100,-8,15
-563,5654,2111,-58,-212,20
-587,5602,1927,9,-204,20
-667,5522,1911,58,10,4
-579,5610,2067,21,70,10
-507,5678,2111,-74,-37,3
-547,5630,2131,-113,-120,21
-647,5666,1847,-8,20,-18
-679,5706,1867,77,81,13
-739,5698,1987,24,173,14
-611,5734,2215,15,115,-7
-611,5658,2179,-30,-98,97
-543,5646,2091,-5,-138,29
-595,5518,2003,-11,-43,-5
-543,5586,2103,2,51,-57
-579,5666,2147,-39,13,-67
-623,5710,2207,-28,-32,-11
-675,5738,2115,-5,-49,-5
-591,5654,1983,-45,-74,49
-567,5702,2027,1,-67,56
-599,5622,1963,-17,-58,17
-663,5634,1863,-8,109,-6
-683,5694,2055,71,65,34
-607,5738,2067,-10,-40,13
-523,5714,2115,32,-61,5
-547,5578,2055,-27,-112,-9
-567,5542,2011,-1,-116,12
-595,5606,1935,94,15,-46
-603,5586,1887,77,24,-45
-559,5758,2043,16,20,11
-615,5766,2147,-42,-35,11
-655,5686,1851,12,-91,-18
-707,5622,1767,48,-74,10
-587,5634,1867,81,114,-11
-575,5658,1955,37,121,-11
-611,5682,2203,15,163,-56
-559,5742,2179,-6,58,-32
-631,5618,2035,-10,-87,18
-659,5654,2143,7,-68,1
-627,5690,2059,-1,-34,24
-551,5722,2055,-47,-34,31
-599,5710,1995,-39,-87,82
-523,5602,1963,7,-142,87
-615,5590,1835,57,-41,20
-603,5578,1819,59,-40,-23
-511,5714,1899,-4,145,-28
-535,5746,2115,-70,114,-19
-615,5698,1995,8,-42,-3
-703,5678,2019,39,-7,5
-551,5714,2035,49,87,-1
-599,5738,2111,26,110,-3
-639,5714,2071,-34,-65,79
-663,5666,2075,-48,-84,74
-579,5682,1899,23,-103,55
-547,5722,1943,19,-76,37
-607,5578,1967,-31,-1,66
-627,5598,2019,-28,-72,78
-615,5606,1927,-23,-27,24
-543,5662,1975,-3,-20,-3
-523,5690,1943,-60,155,-11
-607,5702,2151,-50,115,-22
-603,5566,2183,-29,-113,49
-639,5550,2003,-53,-95,22
-539,5582,1911,-11,-39,25
-515,5550,1867,-15,-11,2
-639,5646,2019,1,-37,20
-675,5594,2051,-13,1,36
-571,5658,1831,-21,-4,-3
-599,5706,1863,-15,34,-11
-607,5590,1819,5,61,10
-615,5626,2111,19,71,-5
-575,5554,2095,12,4,-41
-571,5614,1955,26,-43,-10
-563,5738,1947,-19,22,16
-651,5738,2067,-3,36,52
-683,5666,1955,17,1,39
-659,5622,1879,57,17,41
-487,5654,1831,-15,88,13
-503,5530,2179,-62,63,-23
-635,5622,2035,-47,-55,-25
-631,5638,2147,-43,-60,-5
-567,5690,1955,7,-19,-12
-547,5702,1927,15,7,17
-671,5690,1971,-24,59,22
-539,5658,2067,-21,-15,13
-623,5598,1971,-59,-100,74
-495,5590,2035,37,-79,14
-559,5578,2031,28,25,4
-595,5582,1967,23,65,10
-735,5570,2083,29,6,-19
-571,5638,1967,-52,-13,-31
-459,5674,2027,-35,-34,-4
-559,5690,1963,13,-22,-2
-651,5702,1943,65,182,-33
-691,5766,2011,85,171,11
-643,5654,2211,60,153,9
-567,5710,2215,50,9,30
-547,5614,2091,-68,-241,45
-603,5618,2155,-52,-310,73
-539,5614,1951,59,-125,11
-607,5602,1863,19,-106,42
-663,5702,1959,36,105,31
-655,5614,1971,-27,18,53
-523,5554,1927,0,-114,59
-527,5570,2011,-48,-47,48
-539,5634,1915,-28,95,8
-551,5678,1959,35,104,-13
-683,5658,2143,-14,37,30
-615,5574,2127,-48,-103,47
-507,5582,1975,-26,-193,59
-547,5602,1835,0,-140,31
-651,5622,1795,90,-16,54
-643,5634,1891,108,157,19
-547,5650,2047,-78,-2,52
-583,5694,2115,-69,-67,75
-515,5594,1795,1,-62,44
-491,5626,1783,27,-48,5
-611,5638,1883,15,169,-29
-671,5622,1939,5,126,6
-655,5734,2119,-29,-85,21
-567,5722,2191,-47,-130,80
-491,5738,1803,-12,-33,55
-551,5562,1763,-1,-10,79
-611,5622,1819,7,98,-12
-659,5566,2163,3,60,-18
-591,5618,2103,-1,-20,22
-563,5570,2147,-54,-112,56
-555,5506,1963,-3,-70,30
-507,5702,1915,43,72,-39
-587,5678,1931,-24,46,-38
-595,5618,2067,-55,-98,18
-575,5598,1955,-70,-76,13
-599,5542,1803,81,10,40
-507,5538,1935,76,37,-1
-567,5642,2003,5,60,37
-543,5598,2063,-46,-14,28
-583,5698,1943,-66,-98,1
-623,5622,1935,-25,-100,16
-607,5582,1875,71,105,-31
-527,5638,1923,115,161,0
-555,5642,2299,-25,48,4
-567,5590,2247,-46,-53,24
-619,5614,2067,-12,-195,71
-559,5594,1775,30,-159,71
-535,5614,1835,32,188,-27
-555,5614,1991,36,215,-11
-627,5622,2023,-21,45,40
-571,5542,2059,-42,-131,78
