acc_x,acc_y,acc_z,gyro_x,gyro_y,gyro_z
-4673,2771,-2752,-9412,-10448,7495
-4641,2879,-3456,-9195,-10900,7390
-4509,3479,-6408,-9126,-10117,6914
-5729,2243,-5176,-11200,-3016,5010
-5909,2275,-4864,-11311,-2976,4830
-6153,2287,-4408,-11404,-3011,4700
-7541,2295,-2544,-11867,-5077,3350
-7793,2507,-2064,-12015,-6368,2696
-8621,4323,-2028,-13007,-10680,748
-8901,4799,-2316,-13541,-11691,179
-9905,5483,-2604,-14839,-13083,-1062
-10625,5915,-3136,-16049,-13711,-2481
-10893,7139,-4304,-17372,-14218,-4893
-10725,7799,-5028,-17712,-14187,-5584
-10225,8799,-6368,-18548,-12327,-7018
-10617,9439,-6600,-20210,-8898,-8259
-10977,9791,-6108,-22587,-5349,-11238
-10069,10871,-6612,-23005,-4920,-12028
-8201,15523,-8288,-23428,-2951,-12623
-8185,16095,-7880,-23568,-2237,-12523
-9605,16735,-5972,-24204,-2294,-12987
-11053,17523,-3944,-24303,-5278,-14316
-12133,19539,-3100,-23152,-12555,-16968
-12249,19955,-3372,-22867,-14505,-17363
-12709,20635,-4588,-22658,-16700,-17551
-13537,21295,-6000,-22151,-16357,-17335
-14237,21503,-8244,-18886,-11193,-16463
-14293,21343,-8260,-17448,-8409,-15926
-13985,20991,-7776,-12814,1300,-13500
-13985,20695,-7484,-11392,4651,-12387
-14437,20151,-6036,-8490,10383,-9763
-15145,19675,-4736,-5376,13807,-7192
-15873,18271,-2044,-1719,15844,-3993
-15905,17927,-1268,-937,15630,-3327
-15725,17259,-608,392,14408,-2256
-15465,16359,-540,1673,12879,-1591
-14909,15331,-172,2715,11206,-1052
-14877,15055,40,2876,10515,-896
-15225,14135,148,3484,7778,-639
-15301,13791,-116,3705,6943,-628
-15553,13683,-532,3902,5466,-699
-15469,14063,-416,3642,5227,-759
-15537,16739,-256,1898,4503,-1322
-15597,17775,-540,1178,4324,-1539
-15433,19223,-1900,-818,3934,-1757
-15381,18423,-2208,-1183,4145,-1440
-16181,15887,-692,-1865,3715,-226
-16453,15075,-412,-2104,3004,46
-16949,13807,264,-2436,-736,524
-17081,13719,120,-2486,-2141,483
-16553,13939,-1124,-2607,-5395,241
-16465,14195,-1544,-2650,-5852,138
-16389,15443,-2988,-2727,-5760,-162
-16345,15815,-3340,-2869,-5181,-238
-16429,16187,-3588,-2822,-2859,-421
-16517,16187,-3404,-2796,-2220,-440
-16565,16323,-2884,-2621,-1273,-382
-16717,16403,-2360,-2460,-1287,-213
-16785,15803,-2056,-1606,-2485,32
-16749,15683,-2152,-1195,-2941,91
-16545,15379,-2028,-409,-3477,172
-16325,15115,-1828,273,-3632,343
-16121,14675,-1476,854,-3632,392
-15985,14603,-1392,948,-3647,359
-15717,14339,-936,930,-3768,324
-15493,13807,-668,928,-3939,165
-14893,13183,-636,754,-3624,75
-14821,12843,-468,732,-3434,100
-14681,12087,-192,548,-3074,296
-14493,11355,32,620,-2870,591
-14529,10355,944,626,-2846,1250
-14521,10215,1108,601,-3200,1397
-14645,10187,1484,613,-4444,1593
-14381,10715,1216,736,-5524,1761
-14169,12151,1048,957,-6246,2604
-14397,12959,1188,1058,-6413,2921
-14873,16571,1728,1015,-7096,3062
-15481,23967,1872,-8,-9192,1927
-13753,30903,-2440,506,-9603,1943
-13441,29547,-2676,1486,-7748,2837
-15141,32179,1040,3739,-3857,4901
-15617,32563,1592,3756,-3812,5424
-16357,26327,-220,6126,-5002,6107
-15865,25139,-416,7534,-4835,6125
-14269,20419,-168,10026,-1606,6835
-14213,19031,-32,10264,-198,6981
-14621,16131,1196,10446,2608,7043
-14749,15439,1276,10255,3023,6865
-14861,13135,1956,9110,3198,5988
-14817,12375,2244,8506,3022,5614
-14657,11671,2764,7081,1200,3907
-14597,12095,2944,6697,573,3325
-14281,13535,2900,4579,-838,1605
-14377,14519,2776,3817,-1305,1119
-14641,16963,1808,1943,-2654,-117
-14829,16923,1432,1482,-2657,-322
-15045,16583,-188,784,-830,-730
-14953,16603,-288,640,75,-645
-15325,16735,360,-79,2219,-211
-15445,16839,524,-326,2344,-176
-15465,15719,-348,-983,3688,-263
-15421,15935,-316,-1129,4222,-431
-15469,15971,1172,-2606,3369,-1203
-15537,15279,1512,-3486,2058,-1459
-16081,13835,1032,-5875,-3558,-2946
-16017,13747,244,-6256,-5127,-3537
-15585,14503,-2708,-6289,-6576,-4964
-15265,14659,-3560,-6046,-5870,-5116
-14937,14499,-4484,-4564,-888,-4709
-14973,14295,-4120,-3911,1070,-4434
-15501,12803,-2508,-1738,6013,-3819
-15501,12403,-1836,-1272,6893,-3703
-15281,10939,-40,-461,7761,-3442
-15237,10231,264,-310,7488,-3544
-14689,9035,784,-108,6024,-4170
-14433,8979,868,-181,5562,-4424
-13957,9683,1092,-1070,3594,-5077
-15165,12219,1196,-2626,-2856,-5626
-15261,12655,1152,-2766,-3397,-5784
-15425,13115,1016,-2881,-3930,-5908
-14921,21055,-1896,-3580,-8118,-7949
-14005,24119,-3336,-3951,-7924,-8144
-13645,28863,-5960,-5547,-1377,-6257
-14265,28459,-6680,-5569,946,-5250
-15689,27215,-5948,-4886,4888,-2968
-16877,25263,-3928,-4006,5744,-830
-17473,25555,-2380,-2385,2577,1338
-17229,26567,-2408,-2237,1465,2016
-17149,24595,-4184,-1412,-37,3938
-17733,20411,-5468,553,569,5396
-18185,15535,-4964,3350,2702,6257
-18193,14575,-4388,3829,3317,6279
-18173,13071,-3044,4312,3423,6092
-18421,11911,-2652,4852,1982,5383
-17929,11315,-2504,5388,-375,3963
-17709,11079,-2448,5224,-712,3603
-17509,11015,-2580,4856,-1339,2553
-17533,11127,-2528,4879,-1405,2320
-17537,12727,-1700,4621,-1788,1474
-17401,13351,-1548,4403,-2017,1242
-17065,15879,-816,3222,-3206,607
-17065,16827,-776,2718,-3800,557
-17153,17623,-948,2020,-4657,552
-17317,17819,-1040,1295,-5493,607
-17401,17647,-1216,679,-6107,511
-17061,18135,-1616,-152,-6172,197
-16953,18479,-1872,-423,-5962,103
-16481,17691,-2512,-745,-4771,9
-16213,16387,-2472,-734,-2777,197
-16469,15371,-1908,-449,-505,664
-16501,15023,-1616,-295,-13,855
-16445,13759,-676,-68,1238,1360
-16461,13099,-608,-141,1384,1391
-16173,11655,-408,-699,1056,918
-16089,11431,-320,-1013,944,585
-15637,11107,-164,-2750,450,-549
-15577,11163,-168,-3391,163,-943
-15585,11867,-172,-5473,-1442,-2151
-15569,12039,-360,-5980,-1955,-2474
-15369,11219,-1280,-6719,-2531,-2610
-15337,11039,-1220,-6739,-2625,-2418
-15609,12131,-452,-6576,-3856,-1921
-15529,12499,-536,-6385,-4500,-1642
-15437,12075,-1708,-5032,-5369,-287
-15309,11699,-2108,-4340,-5167,191
-15113,11303,-1960,-3211,-3997,1296
-15577,11691,-1512,-2428,-3237,2177
-15641,12755,-1460,-1014,-3202,2883
-15489,14023,-1456,-718,-3088,2951
-15569,18323,-1184,-809,-3059,2582
-15717,24051,-1968,-1151,-3502,1773
-14997,26707,-4108,523,-1667,1658
-14857,25799,-3752,1531,-334,2091
-15425,24987,-1640,3372,2242,3092
-16177,26575,312,4049,2754,3489
-16001,27911,-100,4460,1237,3007
-15325,26539,-1076,4767,1424,2994
-14393,21527,-832,5693,4671,3490
-14397,20199,-352,5706,5543,3767
-15209,15943,1604,5067,6091,4076
-15385,14723,1924,4902,5534,3876
-14925,12187,2520,4152,2932,2854
-14685,11671,2700,3693,2096,2502
-14897,11463,3172,1793,-1546,893
-14849,11727,2768,1339,-2764,163
-14377,13419,712,560,-4703,-1681
-14277,13759,488,354,-4456,-2036
-14561,15055,-236,193,-2577,-2909
-14585,16079,-216,279,-1924,-3138
-14381,19723,-92,-5,438,-3448
-14273,20939,-24,-267,1256,-3443
-13777,19875,760,-1586,3881,-2248
-14089,18751,1880,-2245,4104,-1733
-15957,16231,3444,-4036,-314,-1534
-15925,15595,3256,-4343,-2597,-1630
-15617,13551,1564,-4586,-8016,-1519
-15633,13351,1016,-4306,-9102,-1504
-15737,12627,-2548,-2193,-9337,-901
-15781,12155,-3880,-1072,-7813,-558
-15749,11095,-5576,1476,-2261,329
-15913,10203,-4596,3629,4002,1135
-16501,9819,-1640,5661,9968,1272
-16433,9863,-636,5708,10505,1090
-16309,9447,1112,4280,9421,-65
-16157,9055,1404,3663,8344,-559
-15581,8271,1292,2494,2884,-1843
-15561,8619,1364,2304,982,-2171
-15905,11579,1100,1632,-2879,-2865
-16145,16531,16,561,-6631,-3847
-15621,26399,-3992,-1835,-8024,-4647
-15217,26915,-5572,-2237,-6731,-4176
-15549,23691,-6732,-1908,-1797,-2386
-16853,29787,-3084,-2411,558,-2186
-15977,33258,-4804,-5686,-1053,-2269
-15413,30047,-6852,-5137,-72,-1479
-16341,22187,-6008,-1883,6552,2252
-17389,20075,-5280,-1240,8002,3388
-18621,13635,-3408,874,10173,4698
-18401,12727,-2404,1461,10328,4631
-17717,11143,-440,2187,7748,3661
-17269,10631,-380,2141,6686,3116
-16145,10403,-16,923,3342,1384
-15989,10491,196,193,2186,834
-16773,12999,-268,-3014,-2009,-1378
-16709,13387,-1428,-3515,-3330,-1940
-16405,14103,-2524,-4127,-3866,-2515
-16653,15039,-1932,-4908,-3121,-2451
-17069,15243,-1496,-5276,-2954,-2075
-17373,15507,-1472,-5086,-3106,-2074
-17261,16999,-1880,-4355,-3410,-2125
-16829,18223,-2004,-3810,-3016,-2142
-16049,18579,-1884,-3331,-2070,-1799
-15993,18099,-1664,-3204,-1790,-1576
-16445,15707,-928,-3142,-2128,-836
-16513,14911,-776,-3122,-2493,-698
-16261,12887,-404,-2875,-4146,-297
-15685,11215,-156,-2361,-5987,182
-15609,11027,-208,-2269,-6056,214
-15629,10671,-256,-2191,-6069,235
-15421,9023,-444,-1322,-5589,291
-15421,8699,-128,-1067,-5515,221
-15249,9539,476,-629,-5729,-511
-15069,10427,648,-572,-5896,-831
-14341,11715,16,-419,-5205,-968
-14397,11795,-36,-208,-4736,-711
-15333,16671,1280,493,-4980,-626
-15273,19827,1340,564,-5757,-1049
-13309,29035,-1564,1000,-5644,-1175
-13145,29051,-2584,1966,-4321,-634
-13049,27787,-2272,7458,1805,2679
-13513,26419,-1420,8741,3957,4047
-15205,26667,1740,10165,7336,6557
-15485,27107,2236,10056,6929,6783
-14233,26127,532,9484,4778,6536
-13625,25127,-8,9404,4962,6732
-13233,21447,268,8931,6603,7461
-14209,17571,1744,7746,7250,7893
-15285,13163,2836,5722,4909,7614
-15449,12099,3080,5011,3641,7324
-15513,10423,3156,3672,514,6565
-15401,9463,2704,2588,-2599,5798
-15733,8435,1492,1998,-6273,5022
-15945,8275,1104,2151,-6879,4644
-16013,8939,376,2483,-7525,3502
-15641,11147,-280,2268,-7039,1960
-14305,11979,-1476,1147,-3653,973
-14437,11227,-1400,812,-2042,1141
-16129,10383,712,-200,-234,1214
-16409,10563,1580,-667,-910,1014
-16397,10071,1564,-1656,-5040,-286
-16101,10155,1040,-1578,-6306,-759
-15085,12287,-736,-764,-8790,-2075
-14669,13235,-1468,-768,-8831,-2342
-14477,14027,-3980,-937,-7299,-2166
-14809,14431,-4916,-91,-6834,-2103
-13929,19499,-5708,1656,-3211,-2094
-13677,20243,-5588,1405,-1388,-1710
-14581,21647,-3408,-364,2277,-932
-14825,22967,-2944,-962,1560,-955
-14869,20315,-3960,-2576,-866,-244
-15293,19359,-3708,-2993,-1307,-315
-15329,24927,-2100,-4906,-3484,-1851
-13841,29583,-3604,-7918,-5511,-2875
-14213,23883,-7180,-7939,-3237,-1803
-14661,22275,-7220,-7024,-1696,-1142
-15721,18675,-6676,-4870,1795,389
-16653,15387,-5592,-2788,5055,1643
-16857,12319,-3180,-6,8416,2531
-16753,12003,-2780,464,8677,2641
-16345,11111,-1152,1624,7922,2478
-16189,11095,-744,1814,7326,2314
-15909,11287,384,1160,4470,1414
-15977,11515,712,649,3242,901
-15737,13283,572,-1515,-724,-1151
-15633,14427,460,-2358,-1718,-1727
-15925,19355,-576,-5652,-4507,-3628
-15737,19051,-1816,-6073,-4959,-3725
-16005,17679,-2604,-5648,-2929,-2926
-16417,18095,-2356,-5305,-2313,-2651
-16637,18003,-2548,-4059,-241,-1833
-16657,17707,-2480,-3467,497,-1645
-16189,16271,-1384,-1496,1423,-1232
-16013,15607,-1088,-1071,1370,-1148
-15845,14987,-580,-363,948,-1173
-15753,14895,-108,-110,143,-1510
-15673,15387,96,-660,-1345,-2416
-15573,15695,108,-986,-1821,-2824
-15265,16423,-372,-1620,-2565,-3640
-14909,17063,-1100,-2314,-2513,-4093
-15069,16811,-1836,-2438,-1158,-4079
-15053,16643,-1876,-2159,-571,-3874
-15265,16051,-1412,-1403,399,-3272
-15253,15447,-1000,-338,654,-2565
-15021,15019,-108,1095,665,-1412
-14985,14939,176,1370,576,-1056
-14869,14555,796,1632,-537,-343
-14801,14307,812,1575,-1096,-204
-14809,12143,772,1540,-2847,85
-14761,11239,436,1734,-3194,160
-14645,10011,416,2159,-3167,334
-14617,9963,644,2202,-3155,412
-14873,11543,1076,2072,-4119,695
-15097,12119,928,2079,-4689,883
-15385,12847,-88,2446,-5801,1442
-15529,13187,-384,2553,-5558,1661
-15853,16091,-460,2584,-4804,2223
-16121,17779,-588,2420,-4759,2172
-16637,23967,-604,1067,-5608,1435
-16509,24803,-1016,638,-5937,1158
-16229,24127,-1480,424,-5698,844
-16193,23627,-1140,593,-5666,912
-16813,25475,-12,494,-6549,626
-16613,25991,-400,274,-6857,547
-15769,23183,-2684,540,-5065,1150
-15565,21863,-2852,883,-3540,1545
-15761,17375,-1900,1743,1243,2982
-15853,15907,-1548,1821,2356,3322
-16129,12919,168,1708,3395,3848
-16221,12391,712,1705,2821,3811
-16125,11083,1384,1547,-381,3272
-16153,10555,1328,1627,-1530,3041
-16421,9887,1044,1825,-3606,2346
-16517,10091,8,2244,-5033,1311
-15937,13567,-1236,2353,-4463,-570
-15629,14859,-1828,2153,-3720,-1167
-14637,16459,-2300,1450,-720,-1774
-14705,16803,-936,344,2398,-1435
-16677,15615,600,-1196,1951,-1536
-16669,14883,376,-1404,1136,-1819
-15969,13255,740,-2077,-245,-2020
-15869,12099,868,-2506,-2251,-2129
-15557,12599,-1100,-1318,-5392,-2606
-15317,12759,-1892,-756,-5159,-2475
-15085,13015,-3772,732,-2791,-1834
-15369,12911,-4656,2579,1625,-956
-16033,12927,-3284,4456,8010,344
-17093,16791,-468,3242,7934,170
-17125,16875,-524,3045,7565,55
-17105,17031,-568,2905,7244,-38
-16525,18907,444,-200,3103,-1282
-16557,19339,700,-1373,1050,-1702
-16397,19451,-1288,-4177,-4321,-2367
-16625,19783,-1476,-4831,-5195,-2353
-17325,19919,-2360,-5192,-8089,-2108
-17193,20983,-2480,-5136,-8746,-2158
-15949,23963,-3760,-4622,-9209,-1134
-15809,23927,-4496,-4137,-8394,-388
-15893,22975,-5104,-2402,-5718,1548
-16201,20979,-4660,-585,-2652,3370
-16765,17883,-2188,902,24,5233
-16933,16983,-1404,1191,-81,5548
-16629,15031,-812,1431,-1268,5891
-16481,13095,-232,1586,-3122,5975
-16433,11739,296,1625,-6886,5199
-16421,11639,312,1413,-8007,4804
-16265,11795,-68,815,-9857,3892
-16381,12967,-676,219,-10882,3000
-16573,15279,-1976,-242,-10876,1877
-16433,16155,-2116,-356,-10423,1558
-16273,17931,-2160,-571,-9196,1077
-16089,19443,-2264,-382,-7836,1094
-16181,19267,-1428,954,-6155,2437
-16345,18719,-864,1431,-5910,3000
-16773,17115,200,2478,-5951,4302
-16569,16903,440,2653,-6152,4524
-16153,16427,212,2584,-6849,4578
-15981,16387,-68,2355,-6853,4415
-15541,14847,-340,1317,-6146,3873
-15557,14247,-292,938,-5891,3633
-15805,12887,-432,-26,-5076,2440
-15845,12419,-508,-285,-4788,1955
-15561,11527,-88,-1344,-4134,306
-15369,11263,-180,-1519,-4077,-146
-15345,10523,-256,-1852,-3964,-1065
-15397,10263,-236,-1886,-3924,-1187
-15389,9039,-540,-1604,-3509,-1341
-15381,9155,-528,-1494,-3337,-1284
-15461,10155,-124,-1146,-3458,-1181
-15209,10751,388,-1287,-3891,-855
-15245,10635,-140,-1510,-4912,374
-15413,10623,-312,-1418,-5075,924
-17057,16307,840,-1376,-7218,1439
-17165,20223,536,-1584,-8594,1004
-16465,31923,-2172,-2432,-10718,-377
-15545,33103,-3960,-2137,-9641,-339
-15005,28811,-3776,196,-861,2764
-16021,28235,-2088,829,885,3677
-17809,24151,1840,1177,-817,4871
-17561,23963,2228,1144,-2477,4567
-15685,21795,2000,246,-7179,3918
-15309,20071,1680,-241,-8152,3684
-15105,15663,-24,-968,-9612,2944
-15189,14607,-388,-868,-9541,2743
-15229,12339,-940,133,-7690,2281
-15097,11911,-812,538,-6889,2292
-15165,11019,356,1573,-5086,2642
-15221,10723,540,1934,-4897,2763
-15149,10659,868,3152,-4484,3025
-15065,11387,852,3486,-4376,3057
-14901,12635,1544,3762,-4278,2709
-14905,13007,1416,3672,-4331,2357
-14561,16119,1368,3007,-4632,988
-14477,17115,1040,2858,-5007,515
-14201,18367,808,2100,-5004,-523
-14165,18463,808,1923,-4944,-697
-14553,19303,648,1841,-5053,-1231
-14485,20003,512,1856,-4978,-1378
-14217,22883,600,815,-4361,-1631
-14133,23623,676,250,-4416,-1775
-13893,27603,236,-2481,-4567,-2295
-13629,27235,-640,-3467,-4184,-2116
-14057,22315,-2252,-4835,-1198,-595
-14409,20339,-1936,-4710,-525,106
-15317,13203,-784,-3116,-322,2391
-15513,11183,-184,-2390,-994,3018
-15601,7975,1532,20,-4734,4624
-15705,7887,1964,536,-6276,5095
-16241,10999,2272,1978,-12836,6008
-16509,12759,1976,2432,-15153,6001
-16717,17663,80,3261,-18837,5497
-16069,21935,-3132,3905,-18720,4983
-15213,22983,-4696,4153,-11205,5360
-15401,21639,-4252,4284,-8766,5537
-15585,18855,-2464,4404,-5237,6012
-15849,16383,-48,4264,-4210,6517
-16209,13547,3544,3509,-8192,6809
-16389,13043,4408,3189,-10750,6689
-16629,12907,3860,2262,-19260,5440
-16589,13403,2892,2111,-21317,4808
-15873,15471,-276,1366,-23448,3082
-15681,15879,-1132,1104,-22870,2674
-15233,16515,-2692,641,-17678,1949
-15073,16591,-2804,625,-15760,1937
-14901,16819,-892,640,-11038,2517
-14989,16775,-176,593,-10427,2842
-15325,16327,1168,997,-11339,3816
-15205,16387,1444,1190,-11938,4173
-15245,16955,1556,1447,-13751,5367
-15565,16847,1112,1464,-14263,5718
-15565,16195,-400,1566,-14248,6499
-15709,16019,-908,1580,-13735,6700
-15769,15371,-1784,1564,-11997,7078
-15929,15099,-1916,1542,-9577,7301
-16225,15515,-1508,1232,-6900,7414
-16425,15495,-1416,1105,-6318,7431
-16813,15543,-1928,1104,-5061,7249
-16813,15871,-2120,1248,-3467,7062
-16969,15335,-1136,556,-1433,6993
-17193,15079,-940,231,-1508,6905
-17681,14511,-308,-561,-3230,6144
-17761,14623,-148,-923,-4081,5807
-17865,14663,-1128,-1847,-6618,4284
-17673,14663,-1760,-1983,-6950,3725
-16857,14623,-2388,-2694,-6167,2442
-16941,15443,-2112,-3209,-5646,1962
-16325,16063,-3452,-4097,-4421,397
-16461,18411,-1792,-4939,-1079,-1240
-16401,18251,-1836,-4980,-1143,-1370
-16145,17559,-2060,-4851,-1228,-1642
-14989,16987,-1556,-3391,216,-1986
-14905,17427,-820,-2955,152,-1851
-14297,17715,80,-1930,-547,-667
-14421,17707,228,-1745,-658,-147
-15273,17371,820,-1443,-2371,1325
-15301,17003,892,-1278,-3240,1595
-15237,16619,1508,-882,-6856,1997
-15161,16715,1664,-788,-8322,1946
-15045,16923,1012,-466,-12445,1439
-14817,16931,400,-337,-13034,1269
-14277,17415,-1996,147,-11330,1167
-14137,17415,-2412,323,-9934,1307
-14381,16559,-2732,1365,-4145,2228
-14453,16231,-2284,1647,-2507,2533
-14937,15851,184,2222,30,3363
-15093,15767,652,2358,-111,3443
-14825,15667,1700,2437,-2030,3413
-14809,15651,1924,2396,-2810,3423
-14941,15367,1536,2238,-5294,3157
-15041,15291,1112,2235,-5701,2944
-14773,15363,-816,2256,-4707,2453
