acc_x,acc_y,acc_z,gyro_x,gyro_y,gyro_z
-5617,8111,-6048,-23,7,11
-5577,8107,-6116,7,-48,-6
-5413,8131,-6008,-48,-152,-15
-5405,8147,-5996,-51,-205,-58
-5377,8239,-5876,-41,-129,-31
-5457,8243,-5972,-37,-135,-20
-5457,8235,-6044,-17,-169,-5
-5417,8239,-5964,-43,-196,29
-5445,8271,-5968,-25,-167,-32
-5473,8235,-6044,6,-158,-51
-5517,8243,-6144,12,-95,-48
-5517,8171,-6164,30,10,-74
-5517,8155,-6244,17,58,-76
-5429,8091,-6220,7,77,-118
-5453,8111,-6060,70,22,-135
-5493,8103,-6044,69,49,-9
-5549,8115,-6072,65,71,23
-5573,8111,-5940,63,200,188
-5589,8151,-5952,65,285,173
-5477,8067,-5888,71,536,58
-5329,8063,-6224,151,566,55
-5145,8223,-6164,140,763,49
-5105,8219,-6140,159,853,6
-5017,8175,-5860,76,1041,80
-5213,8071,-5656,23,997,116
-5241,7867,-5780,87,772,246
-5281,7811,-5968,153,717,306
-5305,7755,-6016,385,752,469
-5221,7835,-6072,415,840,429
-5153,7915,-6084,322,1347,350
-5125,8103,-5912,180,1367,282
-4989,8171,-5804,-119,1154,110
-4965,8211,-5748,-194,926,179
-5193,8555,-5368,-363,-128,326
-5209,8551,-5324,-408,-558,361
-5381,8539,-5348,-694,-1149,360
-5545,8459,-5172,-759,-1264,349
-5817,8175,-5400,-710,-1022,136
-5661,8099,-5664,-625,-886,-19
-5093,8239,-6580,-177,-67,-308
-4801,8339,-6540,-29,303,-333
-4317,8355,-6240,0,1552,-343
-4501,8267,-5720,-71,1768,-277
-4677,8127,-4792,-221,1046,-90
-4693,8107,-4680,-266,626,22
-4449,7939,-5364,-434,-303,467
-4541,7867,-5496,-576,-458,667
-4865,7347,-5212,-1128,-652,806
-4973,7387,-5084,-1115,-803,777
-5001,7615,-6076,-960,-1146,545
-4869,7731,-6428,-810,-1093,514
-4897,7963,-6592,-595,-379,363
-5129,7915,-6388,-547,-88,311
-5513,8103,-5520,-411,381,-31
-5605,8159,-5576,-224,290,-144
-5353,8707,-5640,80,482,-403
-5289,8915,-5676,67,746,-455
-5229,9203,-5464,276,1256,-361
-5189,9183,-5304,350,1251,-326
-5229,8703,-5124,563,1017,-241
-5185,8511,-5108,553,953,-245
-5009,8259,-5720,405,788,-296
-4877,8187,-5960,373,703,-284
-4893,7831,-5684,0,792,-280
-5069,7683,-5360,-110,785,-340
-5189,7795,-5204,-93,294,-333
-5061,7795,-5384,-44,49,-299
-4925,8011,-5732,66,-418,-215
-4957,7991,-5792,37,-353,-240
-5165,8303,-5712,197,183,-513
-5157,8423,-5668,260,306,-614
-5037,8807,-5508,405,668,-802
-5017,8899,-5384,434,716,-732
-5197,8967,-4976,313,587,-711
-5269,8975,-4892,290,416,-607
-5185,8871,-5216,284,35,-517
-5181,8751,-5316,305,-96,-488
-5105,8655,-5664,249,-141,-430
-5165,8447,-5696,141,45,-406
-5049,8535,-5624,144,59,-405
-5093,8331,-5300,107,-117,-362
-5157,8283,-5436,82,-261,-352
-5021,8231,-5652,315,-219,-539
-5013,8111,-5628,415,-26,-673
-4841,8167,-5664,780,1026,-1014
-4805,8179,-5524,835,1415,-1113
-4697,8483,-5044,925,2077,-1101
-4617,8467,-4840,932,1906,-1007
-4729,8555,-4796,1035,1004,-645
-4773,8563,-4880,1010,776,-615
-4873,8527,-5432,799,685,-381
-4925,8587,-5452,678,759,-332
-5093,8507,-5376,505,655,-270
-4981,8519,-5484,447,606,-235
-4993,8555,-5244,246,374,-88
-4913,8575,-5148,198,255,7
-4945,8519,-5296,129,25,152
-4949,8467,-5376,163,24,200
-4997,8239,-5296,59,54,192
-5033,8199,-5216,63,107,164
-4965,8135,-5252,47,-32,-47
-4941,8175,-5412,31,-56,-71
-4697,8307,-5548,172,44,-21
-4693,8303,-5460,184,155,-7
-4745,8327,-5132,170,212,75
-4761,8355,-5100,181,122,72
-4873,8399,-5016,210,-233,90
-4813,8475,-4988,184,-366,48
-4745,8407,-5236,68,-404,-51
-4729,8331,-5336,33,-415,-88
-4701,8147,-5336,60,-588,-31
-4749,8107,-5348,8,-652,-42
-4753,8155,-5448,67,-929,-81
-4713,8231,-5368,49,-986,-51
-4897,8507,-5380,71,-1204,-221
-4925,8619,-5392,115,-1276,-250
-5081,8891,-5328,238,-1451,-362
-5057,8863,-5376,269,-1444,-439
-5141,8983,-5236,164,-1627,-440
-5173,8939,-5164,155,-1803,-346
-5501,8723,-5648,435,-1833,51
-5661,8635,-5868,478,-1561,159
-5977,8271,-6244,513,-683,129
-5985,8239,-6284,533,-369,100
-5729,7787,-6132,556,557,-142
-5573,7791,-6140,557,621,-227
-5029,7811,-6480,309,582,-410
-5033,7727,-6544,247,572,-443
-5069,7795,-6260,-20,346,-287
-5133,7787,-6036,-91,177,-230
-5153,7943,-5728,-306,-378,11
-5197,7995,-5660,-378,-633,44
-5229,8103,-5584,-539,-1154,182
-5153,8191,-5744,-566,-1270,222
-5273,8335,-5836,-552,-1224,255
-5321,8367,-5804,-540,-1100,249
-5381,8479,-5876,-521,-678,176
-5481,8547,-5768,-363,-361,120
-5453,8555,-5676,-360,-311,125
-5449,8551,-5868,-300,-280,99
-5561,8675,-5884,-227,-190,71
-5569,8563,-5856,-194,-148,105
-5657,8539,-5900,-128,-89,116
-5641,8583,-5844,-177,-54,95
-5589,8547,-5976,-211,-26,55
-5609,8531,-5932,-237,-66,59
-5633,8395,-5992,-307,-322,145
-5593,8439,-6088,-326,-458,160
-5713,8307,-6048,-85,-473,353
-5861,8223,-6152,-47,-327,360
-5781,8131,-5928,-3,94,349
-5561,8191,-6100,-41,461,296
-5345,8243,-6224,-100,728,104
-5173,8259,-6176,-126,852,75
-5073,8267,-6252,-311,998,113
-5173,8247,-6020,-470,874,148
-5181,8227,-5800,-927,571,215
-5177,8327,-5760,-1087,372,226
-5245,8135,-5856,-1416,-200,281
-5245,8067,-5804,-1476,-1018,369
-5437,8211,-5880,-1368,-1826,396
-5409,8223,-5904,-1330,-1834,344
-5361,8479,-5736,-1248,-1526,279
-5389,8751,-5576,-1037,-1247,223
-5465,9003,-5344,-657,-847,81
-5509,9039,-5332,-532,-786,83
-5545,9123,-5352,-329,-530,34
-5681,9171,-5548,-127,-263,16
-5705,8959,-5512,91,32,15
-5745,8935,-5628,145,60,3
-5845,8815,-6016,315,215,4
-5801,8783,-6092,319,274,13
-5789,8647,-6140,275,397,-34
-5785,8579,-6116,274,478,-36
-5713,8443,-6024,237,408,-100
-5621,8455,-5908,273,322,-72
-5553,8427,-5904,130,133,-66
-5473,8467,-5840,85,85,-41
-5465,8479,-5760,-42,-124,60
-5437,8463,-5788,-49,-267,100
-5325,8471,-5812,-119,-358,160
-5337,8515,-5808,-142,-456,134
-5477,8563,-5980,-201,-218,170
-5445,8599,-5820,-209,-132,189
-5473,8595,-5712,-192,-116,197
-5505,8591,-5676,-145,-185,201
-5401,8627,-5788,-52,-101,193
-5437,8611,-5792,-56,-23,204
-5509,8547,-5800,-40,135,208
-5525,8595,-5720,23,181,149
-5537,8571,-6012,141,206,98
-5521,8607,-5856,139,194,100
-5525,8619,-5944,124,230,58
-5553,8631,-5696,96,180,72
-5589,8651,-5720,97,174,60
-5653,8639,-5844,92,183,45
-5593,8603,-5824,144,214,-31
-5529,8703,-5888,145,150,29
-5589,8511,-5820,138,160,12
-5497,8503,-5724,121,145,-8
-5405,8507,-5820,195,175,-46
-5409,8471,-5800,183,182,-41
-5373,8399,-5856,152,187,-14
-5337,8435,-5868,171,188,-22
-5317,8471,-5836,150,304,30
-5345,8451,-5688,101,280,35
-5397,8467,-5696,83,202,52
-5401,8591,-5752,65,79,118
-5413,8455,-5804,70,108,123
-5481,8403,-5840,39,145,181
-5477,8403,-5744,83,205,127
-5485,8483,-5772,116,233,159
-5377,8427,-5948,88,306,130
-5433,8511,-5668,83,317,142
-5421,8471,-5828,129,258,157
-5401,8427,-5736,144,230,158
-5285,8527,-5772,139,276,150
-5317,8471,-5764,151,231,139
-5285,8435,-5756,182,265,115
-5421,8451,-5856,124,297,149
-5349,8419,-5688,171,297,106
-5289,8351,-5736,172,321,135
-5289,8375,-5688,172,293,125
-5229,8387,-5724,196,257,106
-5241,8271,-5828,221,225,98
-5157,8267,-5744,186,260,77
-5137,8423,-5708,78,32,31
-5137,8507,-5640,86,-91,41
-5221,8455,-5592,-6,-360,43
-5321,8459,-5660,-11,-357,60
-5393,8399,-5852,-2,-377,78
-5469,8415,-5744,12,-310,65
-5473,8443,-5844,64,-195,15
-5469,8431,-5792,77,-139,-12
-5429,8359,-5780,258,84,-62
-5337,8347,-5920,331,204,-23
-5365,8371,-5796,616,406,-13
-5369,8295,-5688,629,519,3
-5245,8327,-5588,784,818,5
-5313,8379,-5632,844,1088,-19
-5149,8259,-5708,946,1249,-22
-5109,8275,-5608,931,1246,-45
-5037,8175,-5748,844,1187,-132
-4921,8083,-5732,767,1121,-128
-5001,8155,-5936,517,962,-46
-5025,8155,-5988,441,865,-2
-5173,8095,-5828,117,314,149
-5213,8007,-5676,92,125,155
-5245,7899,-5900,-82,-267,281
-5241,7811,-5872,-118,-272,287
-5081,7791,-5872,-232,37,228
-4981,7719,-5860,-282,67,242
-4749,7871,-5544,-325,-124,235
-4709,7883,-5508,-335,-243,251
-4613,8159,-5300,-326,-529,320
-4593,8171,-5368,-283,-594,378
-4685,8371,-5192,-199,-524,456
-4753,8291,-5268,-240,-461,497
-4945,8315,-5428,-147,-130,295
-4865,8339,-5488,-62,-95,271
-4969,8171,-5924,145,279,-102
-4949,8135,-5832,211,403,-175
-5085,8063,-5896,311,1105,-244
-5141,8111,-5688,328,1153,-266
-5141,8155,-5588,207,1021,-502
-5169,8215,-5880,174,900,-556
-5117,8111,-5928,-58,303,-576
-5157,8011,-5820,-137,68,-596
-5133,7971,-5852,-351,-314,-664
-5153,7927,-5756,-549,-648,-651
-5061,8027,-5664,-676,-1226,-692
-5005,8083,-5568,-667,-1447,-648
-5025,8339,-5256,-610,-1976,-558
-5185,8559,-5248,-465,-2397,-476
-5329,8851,-5440,88,-2109,-68
-5457,8871,-5304,258,-1743,75
-5613,9031,-5372,859,19,13
-5565,8919,-5392,882,136,49
-5593,8859,-5552,1194,573,-29
-5429,8555,-5976,1583,1640,-319
-5289,8439,-6204,1642,1891,-425
-5085,7763,-6148,1656,2366,-529
-5121,7567,-5992,1667,2212,-528
-4813,6939,-6144,1504,1755,-508
-4813,6775,-6420,1365,1752,-545
-4525,6747,-6676,736,2071,-435
-4469,6707,-6432,511,2011,-382
-4321,6747,-5636,-79,1141,-159
-4417,6863,-5428,-190,546,-61
-4345,7555,-5556,-628,-1062,310
-4325,7747,-5464,-778,-1375,419
-4641,8247,-5248,-1175,-2099,828
-4817,8407,-5240,-1332,-2227,887
-5209,8903,-5152,-1381,-2745,1069
-5289,8971,-5312,-1342,-2853,1086
-5573,9027,-5596,-1162,-2590,1026
-5733,8983,-5652,-1105,-2315,961
-5909,8727,-5964,-742,-1045,707
-5917,8647,-6108,-606,-524,563
-5669,8403,-6044,9,592,298
-5581,8263,-6108,155,852,225
-5337,7947,-6044,632,1559,255
-5293,7839,-5996,708,1712,247
-4997,7683,-5864,907,1779,95
-4981,7627,-5760,882,1747,92
-4601,7515,-5940,851,1584,1
-4601,7435,-5928,822,1517,-20
-4629,7619,-5780,702,1034,-34
-4693,7699,-5864,665,872,-91
-4765,7847,-5636,433,602,-166
-4877,7875,-5704,150,293,-263
-4857,7967,-5804,-165,130,-218
-4893,8075,-5932,-238,54,-159
-5089,8115,-5624,-500,-102,18
-5221,8035,-5364,-661,-424,140
-5189,8167,-5432,-832,-1131,229
-5197,8175,-5696,-822,-1315,261
-5105,8247,-5828,-800,-1491,248
-5037,8315,-6016,-770,-1320,253
-5173,8287,-5760,-654,-783,210
-5185,8267,-5620,-616,-719,214
-5117,8215,-5388,-442,-590,176
-5113,8279,-5432,-339,-529,167
-4973,8299,-5664,-58,-415,75
-5013,8179,-5744,33,-275,33
-5037,8099,-5868,239,49,-57
-4949,8003,-6048,365,464,-204
-4969,7947,-5768,485,938,-333
-5029,7919,-5724,448,932,-328
-4909,7847,-5600,457,670,-285
-4925,7783,-5788,437,583,-267
-4873,7871,-5812,327,250,-149
-4937,7883,-5828,264,167,-61
-4997,7915,-5848,83,-30,45
-5129,7927,-5696,30,-60,85
-5173,7987,-5820,-71,-425,114
-5209,8019,-5876,-131,-481,101
-5113,8003,-5920,-173,-528,147
-5173,7987,-5912,-203,-466,121
-5225,8015,-5860,-154,-292,40
-5205,8027,-5832,-184,-251,36
-5145,7927,-5852,-97,-133,-28
-5141,7887,-5864,-93,-114,-52
-5053,7987,-5872,-9,-64,-12
-5089,7939,-5864,29,46,-51
-5101,7991,-5836,38,74,3
-5017,7963,-5804,23,143,7
-5049,8071,-5824,-7,66,-18
-4985,8011,-5752,-58,3,-16
-5001,8043,-5768,-64,-89,75
-5097,8015,-5716,-68,-100,98
-5117,7947,-5792,-106,-124,126
-5121,7963,-5888,-96,-145,144
-5005,7935,-5928,-28,-126,163
-5057,7959,-5892,2,-40,144
-5009,8055,-5736,130,141,99
-5069,8015,-5724,121,185,89
-4981,7987,-5720,146,80,70
-4989,7979,-5736,138,102,54
-4953,8039,-5812,153,-154,79
-4985,8051,-5800,181,-167,79
-5013,8023,-5812,165,-230,52
-5057,8075,-5988,38,-208,5
-4869,8067,-5868,-100,-556,-217
-4869,8067,-5940,-153,-735,-257
-5165,8019,-5800,-171,-962,-291
-5289,7811,-5764,-207,-1208,-411
-5349,8067,-6044,26,-1254,-415
-5321,8127,-6072,114,-1070,-374
-5477,8283,-5920,255,-438,-334
-5501,8415,-5760,406,46,-339
-5349,8547,-5692,640,413,-260
-5301,8527,-5804,711,493,-205
-5429,8251,-5924,735,770,-104
-5341,8091,-6072,688,1081,-98
-5117,7775,-6328,561,1284,-178
-5105,7551,-6224,538,1215,-238
-4969,7299,-6300,302,872,-252
-4949,7251,-6144,171,649,-208
-4937,7243,-6108,-155,55,-64
-4913,7275,-6148,-256,-137,-5
-4917,7523,-6000,-469,-857,149
-4957,7503,-5904,-529,-979,172
-5169,7859,-5820,-661,-1239,287
-5185,7995,-5840,-664,-1271,364
-5309,8303,-5828,-733,-1218,317
-5337,8371,-5804,-682,-1137,317
-5381,8531,-5876,-573,-971,205
-5449,8519,-5852,-513,-846,226
-5465,8611,-5924,-299,-404,116
-5545,8543,-5936,-226,-296,39
-5533,8347,-5948,51,132,-107
-5573,8291,-6052,59,241,-116
-5485,8155,-6076,275,432,-231
-5501,8107,-6092,333,474,-272
-5353,7943,-6064,454,578,-364
-5341,7895,-6240,502,591,-382
-5293,7819,-6004,445,734,-353
-5277,7855,-6060,442,666,-342
-5161,7915,-5876,316,500,-337
-5097,7943,-5968,239,261,-300
-5017,7927,-5936,53,-95,-135
-5101,7983,-6064,23,-153,-20
-5169,7899,-6032,-66,-265,73
-5253,7875,-5912,-140,-312,188
-5253,7859,-6040,-172,-252,179
-5225,7903,-5948,-152,-209,154
-5245,7951,-6092,-141,-60,101
-5237,8095,-6012,-90,57,149
-5349,8043,-6040,13,228,182
-5297,8043,-5896,6,305,189
-5221,8091,-5940,-42,265,156
-5281,8027,-6196,-1,107,218
-5357,8035,-6132,-73,164,218
-5309,8015,-6176,-76,128,234
-5465,7963,-6048,-60,220,298
-5429,7971,-6224,-73,245,352
-5289,7919,-5928,-47,282,244
-5185,7919,-6168,-103,271,223
-5101,7959,-6088,-95,228,178
-5149,7951,-6012,-109,211,137
-5145,8059,-5980,-148,99,106
-5181,8099,-5948,-140,10,89
-5245,8115,-5704,-151,-115,68
-5225,8123,-5688,-139,-189,104
-5281,8083,-5928,-84,-213,34
-5157,8027,-5924,-19,-194,-2
-5073,8023,-6072,-39,127,-117
-5057,7983,-5984,-46,214,-112
-5045,7971,-5892,10,127,-109
-5049,7931,-5792,-30,-31,-108
-5009,7935,-5808,-97,-182,-130
-4973,8003,-5908,-167,-222,-67
-5029,7971,-5808,-191,-273,-45
-5137,7915,-5920,-188,-360,-9
-5225,7891,-5984,-176,-285,103
-5233,7839,-5920,-164,-258,120
-5305,7895,-6024,-79,-142,167
-5249,7987,-5988,93,-53,151
-5209,8039,-6008,172,305,46
-5137,8127,-5856,228,381,33
-5085,8171,-5824,174,550,-35
-5097,8243,-5828,166,442,-61
-5121,8143,-5860,92,125,-32
-5325,8027,-5852,68,-31,-6
-5397,7935,-6032,-24,-271,26
-5433,7943,-6060,-22,-286,71
-5421,7899,-6192,-50,-236,6
-5365,7923,-6304,-95,-141,-18
-5229,7999,-5952,-65,9,-46
-5149,8003,-5980,-25,33,-73
-5237,8075,-5880,-40,55,-63
-5149,8047,-5628,-33,30,-65
-5017,8035,-5956,-30,-102,-53
-5101,8039,-5820,-16,-94,-64
-5097,7987,-5960,8,-32,-10
-5193,7979,-5948,42,53,41
-5221,7883,-5924,39,111,29
-5121,7887,-5936,22,85,-3
-5105,7943,-5976,66,47,-6
-5129,7935,-5988,66,29,29
-5137,7947,-5916,36,127,74
-5105,7975,-5772,49,95,45
-5141,8075,-5864,34,40,12
-5153,8067,-5768,8,26,50
-5197,7999,-5940,-5,27,35
-5209,7979,-6020,-2,-12,6
-5185,8031,-6052,-33,-57,-27
-5221,8075,-5936,-34,-79,-66
-5245,8067,-5976,-34,-168,-25
-5245,7967,-5988,-47,-171,-11
-5357,7991,-5964,-27,-110,-35
-5273,7931,-5932,2,-65,-72
-5165,7991,-6000,-5,-2,-94
-5105,7939,-6028,-14,2,-142
-5077,8011,-5972,-49,-52,-87
-4989,8031,-5876,-14,-97,-84
-5229,8079,-5792,-29,-252,-25
-5253,8039,-5788,11,-328,-6
-5317,8063,-5932,65,-376,30
-5285,7987,-5960,119,-217,-27
-5269,8079,-5948,136,159,-52
-5265,8059,-6056,155,242,-76
-5221,8059,-6088,218,290,-78
-5257,8055,-6060,182,302,-82
-5169,7895,-6016,96,237,-40
-5161,7843,-5980,55,185,-46
-5157,7855,-5876,26,-108,24
-5169,7855,-6048,44,-138,65
-5225,7827,-6096,-33,-177,68
-5209,7835,-6064,-24,-158,32
-5189,7931,-5940,0,-76,12
-5165,8023,-5900,-64,-27,12
-5213,8027,-5888,-18,16,32
-5253,8043,-5980,4,-14,39
-5293,8019,-5920,-2,-13,-3
-5305,8055,-6024,12,15,9
-5237,8043,-6084,22,66,-13
-5153,8003,-5980,-76,-39,-139
-4849,8139,-6024,-406,-618,-509
