acc_x,acc_y,acc_z,gyro_x,gyro_y,gyro_z
273,750,1751,85,-1480,410
389,690,1403,178,-1471,373
73,370,895,207,-261,-158
81,266,1203,18,462,-377
249,1438,3895,-488,-367,-149
233,1358,3823,-461,-690,-105
205,1314,3855,-424,-841,-39
29,594,2439,75,-1771,-123
-31,434,1939,167,-1698,-333
417,782,1083,327,258,-1211
433,982,1951,-212,1153,-1443
693,1054,3059,-8,1099,-1499
913,1402,3395,74,478,-1392
1077,1558,2191,563,-1064,-844
1033,1694,2123,536,-859,-763
749,1902,2099,-242,614,-534
749,1874,2511,-519,992,-454
153,1454,3619,-840,470,-60
-95,1054,3739,-724,-58,22
61,330,2779,-339,-1106,-514
49,462,2439,-369,-953,-710
421,1678,2319,-981,-106,-691
529,1702,2439,-1175,-55,-560
553,1354,2239,-910,-656,-247
545,1306,2135,-702,-780,-297
649,1642,1807,-374,-321,-565
673,1958,1935,-484,-29,-610
409,1834,2867,-933,246,-409
417,1698,2963,-989,-102,-332
101,862,2435,-844,-739,-422
49,870,2139,-738,-717,-496
273,1166,1911,-822,-427,-649
357,1506,1835,-810,-373,-604
425,1878,2095,-891,-531,-16
257,1694,2115,-775,-542,51
293,1294,2103,-352,-507,-256
333,1386,2143,-174,-525,-438
361,2202,2231,-3,-498,-546
425,2290,2115,-85,-316,-516
373,1822,2079,-302,246,-572
305,1774,2255,-247,205,-628
-163,1746,2647,-84,-497,-468
-91,1662,2459,-87,-739,-369
217,1562,1823,-230,-777,-359
389,1702,1775,-256,-740,-332
581,1966,1847,-300,-791,-319
489,2074,1835,-286,-781,-293
457,2302,1471,-287,-413,-13
529,2310,1615,-355,-281,94
653,1714,1611,-144,-255,-45
645,1698,1607,22,-378,-226
677,2214,1359,317,-298,-286
717,2322,1207,321,-80,-252
501,2066,1843,340,363,23
393,1914,1815,340,320,76
253,1566,1795,509,16,-6
261,1718,1843,586,-58,-93
637,2430,1819,462,-37,13
705,2510,1827,405,7,147
493,2058,1723,376,15,508
349,1858,1775,387,85,497
253,1718,2187,397,120,242
69,1654,2239,321,108,138
309,2058,2047,107,42,315
401,2142,1991,133,-11,323
293,1814,1787,288,39,223
189,1890,1859,267,191,104
209,2134,1855,164,325,11
249,2158,1979,144,358,38
177,1990,1935,222,181,143
129,2002,1983,226,186,163
-63,1642,2015,83,153,34
-207,1742,2047,1,72,24
93,1934,2003,-15,-175,-7
101,1994,2119,26,-222,-26
401,2134,1831,-18,-443,-30
301,2086,1879,42,-502,-16
861,2510,1567,70,-897,424
881,2478,1463,108,-877,525
393,1858,1343,120,-445,825
393,1534,1271,51,-72,733
-55,1350,2195,-167,769,122
57,1734,2559,-204,551,142
-87,1982,2795,48,-714,605
37,1906,2371,1,-815,780
137,1394,1655,-320,-104,792
129,1326,2063,-522,128,701
-67,1334,2531,-822,-53,290
-127,1442,2535,-823,-378,183
349,1654,1919,-828,-659,-158
385,1610,1707,-769,-537,-257
405,1490,1807,-837,200,-683
497,1422,1879,-880,332,-837
585,1930,2143,-948,15,-709
585,1842,2039,-915,-102,-557
317,1926,1943,-847,-132,-280
217,2022,1963,-930,35,-163
325,1778,1999,-1328,351,-42
401,1782,2083,-1355,161,-51
317,1974,2071,-1401,-487,-60
337,1990,1835,-1415,-567,-33
417,1882,1251,-1460,-7,26
317,1690,1351,-1418,207,-61
-47,1182,2023,-1249,293,-409
-119,1146,2127,-1261,214,-548
549,1626,1755,-1192,-170,-862
821,2034,1791,-1049,-429,-832
1013,2710,1231,-660,-473,-445
1053,2810,1023,-753,-94,-254
969,2522,1683,-1215,1058,238
913,2402,1939,-1191,1020,400
445,2098,2203,-664,-97,754
349,2122,2107,-566,-363,876
57,1830,1447,-926,138,933
-55,1646,1475,-1065,423,859
-39,1586,1991,-841,572,464
-23,1854,2031,-594,229,356
109,2222,1791,-289,-550,429
153,2122,1475,-431,-372,494
381,1786,1559,-733,357,468
361,1690,1619,-606,531,391
329,1834,2007,6,168,248
329,1950,1811,37,131,216
301,2270,2099,-217,222,513
309,2170,2155,-443,264,626
193,1542,2131,-398,20,561
229,1466,2015,-258,6,473
-7,1850,1759,-21,161,364
-7,1778,1743,-67,345,384
-7,1290,1847,-518,631,190
-87,1138,2367,-462,373,102
133,1186,1923,-41,-577,-286
273,1422,1599,133,-634,-366
521,2078,1283,139,273,-128
517,2102,1619,64,527,-38
221,1506,2327,23,547,67
-23,1330,2603,142,263,22
145,1494,2379,410,-312,-273
161,1626,2307,456,-403,-326
385,2106,1983,170,-152,-224
489,2026,1823,112,34,-131
465,1418,2175,188,459,-240
537,1310,2463,233,375,-317
297,1650,2771,381,-629,-283
285,1682,2379,395,-874,-175
593,1826,1371,-11,-80,-50
537,1802,1363,-14,271,-81
305,1774,2195,249,418,-205
257,1794,2331,288,160,-181
381,1870,1847,313,-253,-151
341,1894,2467,68,-66,-45
373,1874,2283,8,-99,-16
361,1830,2403,62,-184,-30
381,1650,2215,-26,-542,73
317,1674,2031,6,-595,135
217,1242,1431,212,41,-191
205,1206,1339,420,392,-429
193,1478,2447,673,991,-854
329,1694,2563,626,903,-829
937,2366,2579,438,0,-437
945,2438,2395,457,-210,-373
121,2178,1155,1090,317,-211
-39,1966,1347,1022,863,-161
-359,1726,2311,127,1605,21
-167,1890,2819,-238,1217,194
-407,1626,2635,-58,-2286,680
-279,1438,2019,277,-2883,568
121,1414,-201,901,-1500,-547
289,1466,-37,853,-335,-1053
277,2530,2135,744,1720,-1632
241,2610,2975,880,1387,-1518
473,2186,3095,1097,-1047,-872
585,2086,2659,1023,-1442,-868
729,2506,1643,486,-638,-891
541,2734,1827,284,-152,-696
537,2438,1943,-360,777,-158
325,2162,2259,-282,640,-140
153,1946,2071,493,-762,-259
33,1834,1699,715,-841,-318
49,2258,1279,427,519,-618
233,2502,1355,196,1081,-646
533,2242,2843,22,525,-334
585,2278,3067,151,-92,-251
681,2502,1771,327,-814,-38
665,2538,1395,292,-425,-26
773,2422,1867,-97,733,168
669,2262,2207,-38,757,197
193,1886,2579,279,472,85
-23,1670,2531,292,431,-17
-19,1638,2487,-291,675,-313
21,1898,2591,-472,613,-405
-67,2370,2271,-616,58,-530
-259,2270,1983,-453,-18,-619
433,2338,1435,4,782,-1089
733,2754,1551,-53,1058,-1111
621,3274,2667,-497,793,-346
453,3058,2663,-446,426,29
273,2130,1951,-297,-127,338
169,2034,1967,-409,45,215
273,2262,2651,-737,579,-149
313,2578,2923,-848,432,-148
309,2994,2995,-894,-291,107
417,2642,2367,-772,-697,310
157,2314,1795,-681,-276,176
45,2210,1847,-649,36,81
177,2274,2263,-716,-53,35
189,2446,2259,-780,-245,106
149,2486,1731,-923,-477,541
-35,2422,1651,-765,-324,536
-143,2006,2103,-766,126,201
-75,1962,2119,-839,236,38
-187,2322,2571,-897,253,-242
-175,2742,2607,-977,100,-238
-47,2762,2191,-744,-500,-171
-39,2622,2043,-725,-604,-198
81,2294,1879,-668,-427,-393
45,2346,1843,-676,-200,-486
381,2742,2231,-759,-459,-253
537,2678,2223,-659,-594,-144
797,2158,1527,-100,-1027,-259
869,2226,1331,106,-798,-339
757,2842,1531,209,452,-170
717,2998,1775,2,833,6
649,2598,2959,-481,470,433
537,2522,3023,-376,-70,503
133,2342,2031,44,-922,436
-55,2362,1571,104,-757,343
249,2450,1759,-335,724,264
341,2430,2099,-461,717,291
269,2298,2555,-345,121,250
165,2142,2007,93,-655,262
21,2234,1127,402,276,-73
137,2530,1503,180,785,-148
61,2630,2947,-415,565,-71
-31,2494,2955,-377,-31,25
-199,2238,2423,-68,-631,-50
61,2262,1603,197,-7,-515
73,2422,1767,201,294,-638
93,2722,2267,33,627,-499
89,2642,2239,-64,619,-490
565,2546,2303,106,-240,-511
589,2674,2287,217,-518,-474
465,2842,1819,482,-471,-192
581,3010,1667,292,53,-109
597,2938,2219,-224,763,201
465,2386,2571,-324,663,170
257,2342,2619,56,-359,223
249,2350,2239,156,-469,205
321,2814,1807,48,87,200
441,2946,1999,-410,307,376
181,2374,2167,-245,-201,339
45,2254,2079,-8,-335,246
-39,2342,1587,318,317,-49
177,2486,1739,217,660,-73
93,2870,2831,-168,278,172
65,2762,2867,-204,-152,308
-23,2254,2023,65,-726,158
89,2330,1583,136,-456,79
105,2538,1803,218,294,-100
269,2718,2375,46,500,-135
545,2686,2531,-75,-235,11
565,2606,2283,-74,-389,58
593,2542,1803,259,-327,127
541,2486,1807,332,-109,166
405,2634,2215,159,659,169
389,2670,2371,-32,622,235
173,2266,2655,-45,-248,270
-11,2174,2299,145,-545,230
-83,2182,1783,392,-419,17
53,2334,1603,351,285,-139
213,2826,2415,1,806,69
105,2774,2607,-30,634,162
-3,2206,2367,365,-302,163
-159,2102,2263,462,-369,32
281,2154,2035,222,112,-513
329,2274,2067,192,243,-578
321,2558,2383,241,-102,-405
385,2506,2027,318,-223,-379
437,2234,1783,528,-14,-451
513,2446,1935,389,378,-418
561,2730,2627,99,130,23
445,2846,2455,126,-13,197
409,2526,1975,92,91,312
449,2382,2051,148,228,180
253,2846,2547,105,115,37
181,2870,2751,41,-128,129
73,2622,2235,-63,-118,125
165,2562,2163,-93,11,105
273,2530,2127,-12,313,-99
165,2726,2351,153,168,-88
69,2598,2395,-75,-112,82
129,2494,2155,-156,-94,148
165,2366,2091,-227,124,70
201,2494,2439,-165,93,52
361,2738,2319,108,-409,124
341,2738,2071,135,-435,121
525,2594,1699,-58,183,122
441,2470,1919,-60,413,85
349,2402,2239,92,315,92
309,2434,2171,98,207,93
397,2550,1823,209,19,211
417,2482,1735,192,147,242
317,2210,1923,377,451,207
101,2302,2431,419,208,275
109,2322,2487,431,168,310
57,2274,2443,360,263,294
61,2174,2479,302,293,204
109,2222,2639,256,252,207
37,2374,2743,262,-420,286
-15,2366,2335,273,-500,269
185,2342,2055,108,167,-58
245,2358,2183,92,243,-130
345,2614,2707,134,-8,-173
237,2630,2563,351,-557,57
233,2362,1699,271,125,-38
237,2342,1975,219,428,-145
265,2270,2847,32,111,-300
269,2370,2907,84,-284,-266
505,2494,1707,216,-566,-61
413,2546,1675,226,-326,-72
441,2534,2235,113,419,51
437,2422,2383,61,278,67
325,2258,2591,4,-102,114
241,2190,2419,45,-360,92
113,2446,1947,272,-2,-5
197,2554,1551,353,58,-13
1417,2386,791,435,2081,89
1453,2334,1735,-61,2899,48
-567,2242,5375,-131,-857,488
-811,2214,4815,209,-2485,588
-323,2078,1291,273,-2393,145
-15,2202,363,144,-1152,-108
577,2522,791,-559,1550,-438
341,2682,2671,-617,2118,-536
321,2722,3103,185,-1127,-25
353,2550,2547,237,-1579,135
473,2294,1379,96,-1146,156
253,2142,1283,-206,97,10
345,2126,2199,-13,750,-189
401,2266,2423,13,514,-168
541,2342,2347,203,-374,-22
533,2126,2039,159,-368,6
333,2330,1727,135,59,-24
249,2202,1887,-7,352,-127
-67,2190,2595,72,496,-560
13,2294,2555,159,236,-675
953,3134,2243,166,-300,-172
565,2286,1663,37,464,-361
-127,2190,2523,-83,872,-409
-163,2374,2879,-120,726,-463
493,3118,2699,-29,-373,-135
617,3210,2543,-156,-530,27
445,2562,2071,-269,-701,489
221,2294,2091,-249,-568,394
45,2042,1743,163,287,-151
157,2310,2059,84,521,-244
401,2798,2651,-149,166,27
381,2678,2579,-93,-154,164
113,2322,1799,-7,-258,171
101,2150,1687,-25,159,44
265,2374,2299,-14,676,-154
325,2510,2551,-79,522,-93
21,2438,2339,-55,-94,-47
165,2494,2307,-149,57,-71
569,2558,2391,-175,263,-96
537,2722,2559,-108,-18,-84
221,2622,2115,26,-316,175
257,2530,1879,-41,-3,138
385,2426,2291,-46,390,-6
389,2442,2631,-70,256,0
213,2442,2627,-1,-351,95
229,2482,2211,22,-665,317
297,2138,1959,-91,197,170
301,2178,2051,-41,403,58
185,2474,2739,59,-63,-73
113,2538,2483,46,-341,-36
445,2554,1787,101,-253,103
465,2498,1663,33,34,80
305,2270,2339,25,533,-99
161,2390,2627,81,412,-133
157,2482,2527,259,-64,-132
505,2682,2367,89,-288,55
389,2274,2243,-152,-3,152
229,2138,2243,-192,146,72
89,2270,2515,-74,300,-125
221,2626,2627,-49,283,-77
493,2662,2279,-193,7,185
601,2630,2095,-225,16,192
33,2230,2203,25,-473,201
-51,2206,1855,177,-426,159
105,2102,1875,190,154,10
153,2026,2291,52,491,-164
205,2278,2647,67,2,-388
173,2346,2515,184,-202,-349
341,2506,1895,297,36,-320
537,2710,1943,177,368,-375
573,2822,2999,-306,300,-289
497,2930,2899,-342,30,-164
381,2466,2359,-165,-307,-25
337,2598,2187,-84,-94,-6
325,2550,2307,-255,352,-31
393,2450,2319,-307,407,30
141,2614,2411,-216,4,149
137,2630,2299,-155,-120,233
157,2122,2035,9,138,122
113,2190,2163,-11,256,-24
165,2502,2363,-80,146,-46
81,2358,2395,38,-73,-65
121,2354,2403,242,-203,-92
97,2262,2275,222,-178,-110
193,2218,2335,190,51,-261
41,2554,2319,162,160,-215
401,2702,2155,202,165,17
389,2538,2199,130,246,-43
329,2242,2827,109,7,11
233,2222,2691,92,-121,-93
233,2366,2423,209,-220,-118
189,2446,2343,175,-149,-156
233,2526,2655,280,-87,-184
309,2498,2679,226,-156,-159
361,2470,2483,1,-207,-241
357,2446,2335,53,-210,-262
357,2506,2343,225,-56,-368
225,2290,2211,242,31,-391
237,2438,2439,225,75,-430
437,2686,2359,41,-74,-329
397,2850,2131,-23,-238,26
449,2658,1979,22,-208,61
-3,2458,2223,256,330,-351
109,2690,2547,222,272,-346
469,2898,2727,13,-103,-161
445,2842,2695,45,-341,-34
425,2854,2043,53,94,101
401,2998,2003,-17,358,230
249,2698,2143,-295,963,100
169,2662,3011,-315,525,73
269,2778,2439,41,-738,180
297,2738,2227,9,-747,255
553,2670,1715,84,0,105
529,2690,1983,55,288,69
233,2614,2479,-49,526,173
261,2558,2579,-44,427,204
233,2590,2807,-47,5,234
401,2602,2695,-62,-202,274
365,2570,2559,-47,-592,239
77,2526,2015,-28,-352,187
117,2482,2011,-118,614,-3
289,2590,2267,-54,711,-37
257,2718,2999,-46,-267,128
193,2702,2723,-25,-661,159
141,2454,1659,53,-317,98
269,2438,1611,45,217,-39
273,2730,2731,15,836,-238
321,2798,2919,7,512,-131
177,2566,2927,-74,-288,-28
317,2630,2303,7,-570,46
433,2486,2191,-134,277,-151
445,2498,2379,-117,400,-153
401,2606,2699,-19,78,-72
361,2774,2343,-24,252,251
317,2642,2371,-94,321,279
273,2578,2379,-73,380,270
153,2374,2815,-281,164,129
141,2378,2891,-190,-36,112
33,2526,2595,-7,-451,67
85,2630,1999,68,-303,59
57,2542,2287,-172,427,-10
93,2502,2495,-262,391,-28
281,2474,2663,-191,-431,-124
293,2558,2567,-52,-726,-132
253,2550,1927,184,-406,-57
301,2514,1947,92,21,-66
453,2522,2819,-234,437,-95
457,2582,2983,-284,69,-20
285,2642,2471,74,-988,118
269,2610,2083,125,-990,167
357,2530,1835,1,572,47
393,2434,2059,-189,892,-21
437,2562,2883,-354,561,56
173,2578,2947,-51,-347,138
85,2438,2019,291,-644,176
169,2486,1615,230,-221,119
453,2594,2563,-373,558,9
357,2698,2707,-309,267,105
205,2458,2267,140,-816,276
105,2354,1815,363,-723,176
417,2446,2003,74,600,-12
385,2478,2339,-143,708,13
341,2454,2883,-216,252,98
361,2398,2771,114,-612,235
257,2202,1803,344,-322,201
305,2270,1707,203,127,69
277,2378,2819,-292,620,-110
277,2446,2931,-255,321,-48
269,2570,2507,302,-908,227
309,2574,1955,275,-780,211
313,2294,1643,-57,535,48
325,2238,2027,-120,873,-20
93,2398,2755,-89,646,-10
61,2510,3063,175,-139,67
