acc_x,acc_y,acc_z,gyro_x,gyro_y,gyro_z
-331,2534,3279,-714,360,68
-363,2406,3287,-715,395,22
-467,2102,3723,-891,1012,-650
-603,2278,3927,-820,1004,-967
-431,4210,3311,-110,561,-1714
-439,4262,3331,-193,776,-1736
-427,4290,3351,-239,911,-1758
-543,4634,4231,-846,1846,-1909
-659,4882,4907,-1121,1814,-1996
-1239,5718,5771,-1635,320,-1897
-1339,5850,5587,-1765,-174,-1866
-1815,5934,4531,-2443,96,-2104
-1939,5826,4443,-2798,525,-2365
-2151,5598,5107,-3194,908,-3449
-2259,5450,5251,-3162,691,-3885
-1943,5726,4735,-3137,69,-5335
-1807,5822,4603,-3160,110,-5715
-1491,6042,4531,-3608,452,-6653
-1379,6022,4987,-3726,176,-6845
-1007,5450,5175,-3767,-1005,-7640
-747,5406,5111,-3748,-1446,-7958
81,5966,4703,-3388,-2550,-8270
-19,5942,4731,-3207,-2752,-8221
-23,5674,4579,-2995,-2883,-7639
341,5534,4555,-3062,-2688,-7468
953,5038,5051,-3312,-2277,-6916
925,4998,5263,-3222,-2503,-6617
725,5358,4975,-2925,-3299,-5430
857,5438,4667,-2908,-3204,-4994
1525,5262,4291,-2618,-2227,-3781
1645,5258,4443,-2490,-1932,-3410
1569,5226,4687,-2030,-1813,-2366
1661,5258,4467,-1861,-1713,-2081
1881,5914,4279,-1321,-1195,-1090
1789,5842,4391,-1057,-1091,-767
1301,6110,4251,58,-786,441
1009,6142,4155,268,-498,810
925,5814,4471,847,185,1396
1437,5742,4895,860,28,1079
2673,7250,4683,740,-983,-131
3205,8390,4383,774,-1366,70
2445,10858,2715,732,-1257,2740
1929,10462,2607,398,-137,3723
-367,7230,3275,96,4057,5381
-795,6378,3627,318,4617,5480
-1263,5842,4215,1686,4519,5031
-1375,6182,3875,2189,4181,4852
-1463,6854,3055,2742,4271,3752
-1263,7010,2771,2590,4563,3354
-1199,8022,2799,2019,5011,2469
-1339,8102,3047,1696,4898,2262
-3407,8234,2731,834,3067,1663
-3455,8518,2387,559,2621,1797
-2027,9210,1643,-1215,2952,2348
-2255,9322,1703,-1093,2760,2594
-4463,9306,3159,-1729,1540,3633
-5367,9190,2859,-2132,981,3985
-6031,7674,2307,-3600,849,5091
-6047,7154,2363,-4165,1035,5147
-6811,6210,2883,-3981,561,4696
-7411,6238,3051,-3992,156,4511
-7895,5918,2415,-4311,-49,3915
-7727,5626,2387,-4552,573,3473
-7227,5274,3627,-4976,1648,1977
-7023,5298,4035,-4902,1527,1505
-6143,6090,4623,-4561,346,522
-5607,6370,4771,-4528,-37,521
-4383,6038,4851,-3568,-1149,874
-3875,5846,4755,-2951,-1132,913
-859,6226,5003,-3228,906,-426
313,6238,5267,-3815,1389,-1810
3985,8754,6819,-3468,-2343,-5976
3989,9178,8227,-2700,-3943,-6259
4809,9018,8559,-1714,-7288,-10878
6125,11198,7911,-1670,-8924,-11887
2125,10910,5939,52,-10112,-11871
705,10506,6107,-324,-8997,-11787
1685,10534,6415,-1562,-6657,-11546
2025,10466,6291,-948,-7032,-11397
933,11058,5979,1521,-9212,-9499
-139,10870,5263,1640,-9368,-8745
-2191,8726,3147,468,-5647,-6522
-2627,7482,3139,-252,-3921,-6322
-2923,5186,4823,-230,-1262,-6004
-3479,4730,5327,417,-1488,-5897
-4211,5242,4891,2201,-2243,-5952
-4011,5658,4575,2348,-1922,-5972
-2435,6258,5359,1593,-319,-5748
-2343,6406,5587,1518,-252,-5493
-2607,6858,6007,1754,-1735,-3950
-2491,6894,5767,1759,-1830,-3395
-1375,6834,5291,2205,-1708,-1916
-1103,6882,5267,2401,-1698,-1394
165,8554,3395,3256,-599,869
125,9330,2427,3307,969,1674
813,11046,2511,2138,4959,4661
1177,11286,2759,2164,5222,6022
941,10546,3063,4554,3770,10072
957,10446,2435,5407,3513,10805
1817,7778,1015,6842,5287,9396
2765,7506,1079,6530,6466,8267
4413,7694,1043,4594,8969,5357
6313,9374,1611,2522,10209,2112
8165,15578,2291,1407,7484,1768
7017,16142,2407,1534,5862,2985
1925,12630,2319,-201,3365,6446
817,11154,2015,-640,3277,7247
-3255,6546,2155,-1122,4194,7601
-4175,5726,2563,-1349,4724,7266
-6311,5206,2119,-1381,5707,6186
-6371,5278,2051,-1578,6456,5787
-6543,5058,3239,-2494,7806,3677
-6147,5322,3467,-2400,7246,3108
-5787,6554,3675,-1739,4676,2008
-6271,6886,3491,-1582,3786,1819
-6951,7418,2019,-1844,3859,2160
-6999,6706,1775,-2247,4627,2039
-7331,4938,2451,-1984,6431,751
-6819,5286,3003,-1811,6420,510
-7607,6290,4135,-809,4720,455
-7923,6502,4203,-580,4014,612
-6131,6182,3703,-2277,3800,-58
-4915,6446,3567,-2421,3651,-646
-2495,8282,4935,-1164,1627,-1376
-2047,9162,5015,-833,925,-1164
521,11390,6091,-2341,1039,-1162
1833,11442,6831,-3078,168,-1669
3873,12138,8715,-2390,-7097,-3382
3517,11958,8819,-1536,-9978,-4185
4281,13878,6879,43,-16265,-6671
25,10598,4063,1528,-11767,-5527
-355,10166,4107,1334,-10790,-5673
-803,9686,4087,1062,-9573,-5951
-2355,6602,4623,-277,-1644,-9998
-2779,6554,5699,-592,-365,-11467
-2787,8670,8071,1682,-3495,-13318
-3079,9926,8395,2801,-5158,-13071
-4107,10842,8127,3342,-6868,-11452
-4751,9102,6507,1490,-5542,-9921
-4523,5906,6395,-1394,-1006,-10302
-4347,5730,6875,-1732,-464,-10658
-4599,5554,8123,-1325,-1764,-11176
-4179,7574,7363,317,-3428,-10927
-2771,9766,5403,1427,-3897,-8050
-2675,9562,4839,1462,-3052,-7076
-2775,8286,4263,1171,-334,-5610
-2371,7686,4471,1225,1691,-4397
-2099,8770,4747,3087,2433,-1677
-2027,9286,4611,3756,2577,-659
-1431,10198,3215,4234,3910,1420
25,11038,2851,3733,6259,3160
1401,12730,3955,3937,7080,6871
1165,12946,4319,4052,6482,8033
1289,12610,3335,4257,5516,9072
2625,11786,2507,3821,5652,7975
5833,12990,1779,2403,6550,3054
6309,14266,2015,1820,6606,1895
6401,17466,3047,593,5236,1599
4361,17406,3695,-16,3036,3763
473,12698,4547,-927,1335,5842
-243,11230,4679,-1290,1010,5988
-1163,9430,4699,-2329,781,5553
-2239,9446,4487,-3064,458,5540
-5263,10102,3483,-2986,-41,7412
-5895,9670,3207,-3468,800,7936
-6827,8298,2883,-4090,2640,8484
-7903,6914,3251,-3749,3541,8276
-8283,6018,3055,-3560,4284,7850
-8375,6042,2899,-3585,4533,7596
-8323,6498,2719,-3340,4979,7064
-8171,6930,2863,-3353,5255,6477
-7571,6842,3215,-3496,5603,5077
-7503,6910,3415,-3412,5446,4621
-7951,7258,3955,-3542,5070,3875
-8051,7314,3947,-3671,4228,3584
-6871,6922,3703,-3500,3973,2728
-6415,6874,3527,-3420,4548,1939
-3943,8646,4459,-2999,5121,784
-1959,11494,5655,-2703,4592,578
1381,13618,9043,-4186,2389,-260
1849,13582,10531,-4318,247,-669
3237,12826,10163,-2381,-8994,-5475
4197,13366,9315,-1150,-11661,-7346
3317,13906,7255,3153,-15009,-7071
1733,13122,6243,4030,-12869,-6471
-2139,11050,5467,3741,-5573,-6566
-2711,8978,4559,2065,2041,-9028
-3331,8638,10135,1361,3641,-12015
-4123,8586,10899,2237,480,-12078
-5215,9546,9711,4592,-5803,-11697
-6047,9590,7723,4407,-8734,-10650
-6295,7134,4715,1943,-5946,-10119
-6051,6670,4783,1143,-4390,-10166
-6027,5742,5827,261,-2422,-10428
-6111,6182,6755,567,-2670,-10495
-4627,8230,7219,1679,-4426,-9707
-4487,8530,7155,1648,-4681,-9240
-4815,8114,6803,1501,-4876,-7860
-5167,6830,6007,1173,-3782,-7114
-3315,6818,7387,1016,-1927,-6096
-2815,7502,7795,1305,-1773,-5508
285,11834,7859,2117,-997,-1865
1037,12974,7359,1591,-99,-540
1301,14382,6719,14,3542,2807
1737,14646,7039,-490,4023,3595
2737,15174,7619,-907,3468,4932
3621,14750,6079,-149,2165,5247
6165,15270,2971,825,2934,2255
6397,16582,2687,866,3902,1301
5401,19434,3447,21,4794,1995
3261,18530,4159,-1643,4784,3925
649,15222,4871,-2958,2707,5609
-95,14042,4915,-3061,1565,5884
-1059,12418,4235,-2553,-528,6275
-2503,12218,3847,-2393,-1280,7133
-5291,10866,3183,-3047,-32,9307
-5695,9986,3007,-3691,1150,9846
-6591,7942,3427,-4627,3414,10196
-7555,6510,4375,-4562,3690,10354
-7979,5718,4203,-3982,2605,10308
-8115,5802,3823,-3849,2472,10191
-8287,5922,2923,-3641,2817,9930
-8163,5814,2375,-3996,4551,9046
-7675,6262,3159,-5664,7428,6544
-7307,6718,3579,-6116,7674,5779
-6279,8478,4703,-6873,6554,4807
-5699,9898,4735,-6319,4066,4532
-4831,10902,4875,-4385,4739,5133
-4867,10646,5659,-4396,5545,5529
-4775,10030,6691,-5441,7631,5183
-3871,10598,7595,-6318,8362,2752
-2111,12434,10463,-4748,1851,-323
-2731,11850,11195,-3549,-1010,-1001
-3367,10534,11135,-730,-6370,-3738
-2051,11334,8775,1836,-9874,-7768
-1811,11446,7523,4960,-10699,-10199
-2795,11066,7063,5297,-9596,-10546
-3559,10394,7619,4235,-5268,-11867
-3363,10206,8047,3848,-4848,-12163
-2871,9654,8939,4466,-7041,-12670
-3023,9818,8443,5295,-8436,-12598
-3787,10482,6779,6290,-9301,-11552
-4011,10014,6527,5644,-8082,-11194
-3831,8366,7631,3281,-4861,-10062
-3619,8038,8099,2901,-4631,-9575
-4583,7574,9095,3563,-6004,-7280
-4911,7402,8771,3584,-6232,-6521
-3883,6038,6967,2908,-4219,-5251
-3375,5906,6995,2850,-3287,-5058
-1763,7398,7303,3581,-1064,-3967
-1427,8290,7247,3832,-431,-3394
-1403,9782,7767,3542,1115,-1722
-1215,10170,7551,2569,1864,358
-611,10026,6387,2647,1946,2627
-59,10518,5591,3081,2053,2457
1769,14898,2979,4356,4163,1488
2849,16238,3459,1222,8515,-1557
3089,16590,3823,840,8502,-1854
3305,17010,4259,527,8509,-2088
4425,19614,6059,-1592,3406,-1745
3913,19438,6091,-1882,1142,-922
1137,17630,4239,-2237,-3213,2645
461,16746,3807,-3042,-2906,3697
-2103,13674,4443,-6801,-1122,6097
-2883,12574,4831,-7573,-1460,6875
-5839,9442,4731,-7718,-3182,8904
-6823,8682,4447,-7322,-3349,9338
-8883,5962,2811,-5884,-2339,9843
-9175,5250,2571,-5575,-1401,9639
-9919,3966,2971,-5073,2067,8565
-10103,4038,3759,-5096,2815,8195
-9875,4662,3895,-5241,4779,7398
-9619,4718,3919,-5438,5309,6792
-6943,5946,3911,-5162,5951,4225
-5959,6966,3919,-4652,5558,3724
-4843,10974,4267,-2728,4858,4495
-4971,11726,4711,-2699,5386,5207
-3815,11254,6143,-4752,7269,6659
-2943,11086,6391,-5404,7414,6071
5,14110,9975,-6250,2963,1410
77,15958,11375,-6571,205,169
-455,15198,13323,-7222,-11606,-4353
245,15190,11943,-5409,-15628,-6409
1221,15214,7963,1226,-20513,-9025
-1455,13346,6507,5613,-18622,-10012
-4891,10922,3955,6726,-8465,-11146
-4823,9762,3127,6420,-4768,-11588
-4563,8010,3903,5000,2741,-12957
-4895,7494,6911,4051,5812,-13928
-5979,7310,7843,5537,1407,-13155
-6431,7606,7435,6296,1,-12834
-6859,7970,7419,5021,-986,-11548
-6823,7490,7127,4322,-1386,-11045
-5519,6786,6679,2760,-1757,-9748
-5575,7138,6807,2678,-2147,-9132
-6075,7930,7447,3031,-3901,-6819
-5799,8190,7235,2619,-3992,-6243
-3183,9990,6143,1579,-3747,-4612
-2463,10950,6035,1345,-3459,-3907
-1807,14062,6507,1022,-4172,288
-1991,14558,6823,890,-4506,1950
-1755,13970,5615,-563,-3767,6236
-1063,13750,5347,-918,-3134,7032
493,14870,6027,-2048,-684,8217
173,15886,6539,-2482,-301,8004
3149,18570,6387,-4444,-2947,5909
4241,18950,5955,-5688,-3694,5405
3321,19134,4879,-7463,-5509,4767
2953,18606,4899,-7698,-6177,4768
1569,15822,3711,-7351,-5578,4829
745,14770,3943,-7034,-4938,5024
-2947,10506,4619,-5838,-2869,5807
-4003,9238,5331,-5537,-2187,5994
-7019,5666,6751,-5495,-481,5964
-8027,4554,6939,-5705,-12,5628
-9375,3302,6939,-6077,377,4728
-9131,3074,5639,-7056,2158,3080
-8723,3254,5799,-7717,3056,2484
-8331,3986,5831,-8112,4027,1116
-8191,5046,6099,-7503,3247,148
-7107,7686,5303,-7351,2353,-848
-6331,8798,5159,-7660,2466,-944
-4703,10986,5423,-8545,2428,-959
-3635,13190,5791,-9076,843,-294
-2331,15614,5795,-8947,-1819,2021
-1959,16342,6007,-9128,-1814,3066
-2155,17506,7283,-10358,-1083,5718
-3103,16854,9111,-12818,-1409,8837
-2247,12822,8835,-16539,-3920,8458
-1307,11682,8619,-16889,-4488,6333
865,11174,9167,-16785,-6433,1410
1553,12902,11267,-15471,-10209,-3890
1849,15046,10395,-9628,-17758,-9112
977,15334,9783,-6789,-19121,-9638
-5067,12294,6983,-203,-18809,-8135
-6339,10162,5683,765,-16571,-7891
-6775,5206,4395,2157,-8131,-8626
-6135,4874,4967,2374,-5572,-9161
-5515,7038,6907,1042,-984,-9485
-5435,7606,7115,494,-923,-9074
-5191,8446,9255,-2159,-2124,-7323
-4579,8806,10143,-3137,-2734,-6787
-3539,10018,10735,-4406,-8871,-4144
-3723,10194,10075,-4450,-10804,-3470
-2751,10126,7239,-5147,-12581,-1825
-2347,9954,6783,-4854,-12299,-1467
-31,11446,5891,-1764,-10429,644
181,12766,6139,-630,-9637,1699
-1367,14682,6403,692,-8489,4481
-1723,14030,6227,-985,-6092,6253
437,13514,6143,-5713,-3945,4575
1613,14706,6147,-6806,-4526,3687
2317,18674,6559,-8593,-7093,3660
429,19106,6383,-10123,-9758,5982
-1159,14854,3999,-10882,-8935,7381
-1011,13762,4011,-10604,-7555,7123
-1355,11830,4735,-9769,-5134,6185
-2111,10374,6495,-8889,-3778,5550
-4331,8678,8787,-9436,-3967,5705
-4935,8322,9267,-10113,-4433,5883
-5375,7350,9155,-11644,-5551,6429
-5043,6122,8555,-12649,-6733,6146
-4511,5894,7271,-12116,-7706,4354
-4419,6542,6855,-12018,-7566,4157
-4335,7310,5811,-11836,-6072,4031
-3979,7622,6103,-12197,-3812,3786
-3195,7854,6291,-12147,-2423,2747
-3007,7958,6687,-12120,-2454,2523
-3483,8258,6199,-11361,-3236,2303
-3695,8330,6135,-11005,-3515,2360
-3007,7530,5107,-11093,-2452,2089
-2639,7538,5159,-11110,-1919,1674
-731,9490,5203,-10822,-1721,1225
-327,10306,5227,-10747,-1649,1398
-1647,10358,5035,-10399,-680,2133
-2167,9646,5459,-11127,37,1528
25,10414,5515,-13937,-178,-4958
1605,12070,6323,-13480,-2145,-6592
-295,15322,8007,-9056,-10353,-6057
-5535,11998,5155,-7386,-11743,-1462
-5659,11190,4779,-7542,-11152,-1321
-5715,9682,3783,-8042,-9273,-1385
-5695,6710,3871,-9605,-1983,-4974
-5807,6822,4603,-9966,-1018,-6155
-6099,8506,7055,-9115,-2867,-7916
-6087,8902,7351,-8548,-4320,-7897
-5431,8798,5811,-6328,-7742,-7142
-5175,8406,5491,-5790,-7972,-7072
-4347,7258,4947,-5097,-7028,-7272
-3647,7118,5039,-5107,-6597,-7389
-2371,7882,6443,-4794,-6646,-7012
-1971,8262,6619,-4652,-6765,-6529
-775,8318,6671,-4762,-5791,-4852
-415,8378,6755,-4741,-5420,-4382
313,8566,8023,-4858,-5431,-2788
77,8474,8347,-4675,-5657,-2151
-191,8618,7707,-4221,-5954,154
-171,8482,7339,-4177,-5514,796
-79,8338,6975,-3780,-4598,1607
361,8814,7131,-3387,-4067,2156
-263,9530,6875,-2221,-3980,3600
-411,8938,6327,-1921,-3814,3431
2073,9822,5623,-2240,-2156,-578
3141,11274,5875,-2427,-1967,-1440
1985,14666,7107,-2393,-3542,737
21,14302,7047,-2158,-4259,2478
-2075,11610,5647,-2375,-3869,5210
-1747,8790,3603,-2741,-699,5371
-1007,8842,3615,-1944,3292,3835
-1455,9618,4167,-1925,4142,3552
-2311,10750,5003,-2207,5181,3296
-2527,12046,5655,-2957,5359,3437
-2775,12502,5815,-4356,4522,3936
-3171,12094,6095,-4641,3955,4094
-4279,11174,5979,-4964,2478,4485
-5275,10090,5807,-4955,1166,4660
-6307,8582,4527,-4602,281,4122
-6467,8270,4027,-4505,523,3769
-6587,7990,3523,-4500,1578,2948
-6951,7570,3791,-4584,2635,2045
-7435,7166,4719,-4567,2689,987
-7515,6946,4683,-4505,2495,708
-7643,6838,4815,-4416,2057,322
-8219,6610,4783,-4502,1970,196
-8051,6634,4407,-5686,2651,295
-7647,6646,4555,-6051,2877,167
-7083,6818,4795,-6202,2447,-323
-6819,7370,4979,-5967,1112,-739
-6191,8358,4951,-5773,-683,-634
-5911,8618,5079,-5968,-890,-561
-5147,8622,5763,-6434,-1339,-218
-3535,9170,6431,-6739,-2255,826
-1215,10986,6951,-6807,-2421,2826
477,11602,7267,-7261,-2589,2480
4461,13190,8491,-8179,-3984,1064
4125,12334,10795,-6862,-8128,893
3669,10026,10115,-5216,-12839,-4678
4297,11506,10251,-4162,-14053,-6575
489,10510,9871,359,-17520,-7402
-1459,9494,8967,1569,-16704,-7551
-3151,6658,6815,2625,-9128,-9872
-3091,5534,6619,2855,-6358,-11040
-2871,5850,9431,3466,-1564,-13774
-3287,6518,9687,3919,-1954,-14223
-4463,8874,9771,4639,-4581,-13306
-4639,8846,8975,4093,-4923,-12699
-3767,7686,8151,2569,-4509,-10805
-3483,7762,8507,2360,-4753,-10023
-3811,7594,7431,2712,-6443,-6636
-4203,7326,6727,2946,-6311,-5565
-4011,6450,4947,2280,-1947,-3413
-3711,6042,4591,1794,-228,-3200
-2803,7034,5855,1112,2930,-2491
-3003,7710,6423,1165,2803,-1829
-2883,8338,5119,1319,3321,260
-2223,8742,4783,1306,3873,806
209,11582,4991,1492,5266,3099
473,12626,5339,1584,5078,4163
757,13862,5671,1488,3855,7384
1217,13414,5275,1134,3895,7862
3237,11838,4875,414,4573,6628
4173,12078,4987,-42,4856,4995
5677,13874,5315,-1281,4858,2301
7341,19026,6375,-3596,2992,1073
6337,19642,6679,-4084,1617,1962
3893,17874,6319,-5551,-776,4358
1465,14950,5167,-6513,-1717,5783
-887,11794,4783,-6310,-2799,7091
-1591,11258,4631,-5924,-3107,7626
-3371,10298,4659,-4980,-3409,8898
-5327,8410,4395,-4134,-2850,9780
-6979,5870,3879,-3050,-1044,10063
-7415,5182,3739,-2746,-211,9822
-8071,3946,3235,-2255,1716,8884
-8431,3230,3091,-1842,3840,7350
-8339,4050,2707,-1776,6718,4822
-8195,4550,2827,-2107,7782,4216
-7955,5458,3967,-2919,9102,3283
-7947,6182,4987,-3494,8549,3117
-8759,6294,5547,-3998,5972,3519
-8935,6118,5591,-4058,5096,3556
-8071,6014,4651,-4412,3736,3258
-6335,7354,4735,-4376,2715,2211
-3783,10654,6051,-4429,-124,2487
-3747,11190,6247,-4437,-704,3244
-3535,9958,5675,-4346,-43,2767
-983,10458,6107,-4255,1109,-1056
1541,12522,9839,-2146,-1426,-6315
1117,12322,10839,-817,-3613,-7794
1421,14186,10667,1782,-8007,-11885
4021,16974,9147,4324,-10133,-13806
-655,14334,8467,5483,-8344,-12100
-1775,13098,8163,4982,-6860,-11779
-3399,8838,7631,3567,-1928,-12938
-3507,8162,8331,3490,-1513,-13501
-2995,9166,8779,5399,-4321,-13941
-3367,10050,8759,6057,-5229,-13586
-4191,10930,7903,4161,-4943,-10818
-4267,10206,7719,3006,-4163,-10055
-4307,7914,7923,929,-2310,-9033
