acc_x,acc_y,acc_z,gyro_x,gyro_y,gyro_z
-14567,13402,2366,-1786,5013,-1429
-14511,13398,2282,-1753,4778,-1384
-13483,14038,1846,-1522,3147,-798
-12927,15462,1490,-1146,-143,266
-12835,15594,1462,-1123,-174,331
-12859,15630,1314,-1222,-219,359
-12839,15698,1302,-1254,-202,386
-12859,16038,1166,-1514,-68,460
-12735,16990,1158,-1895,224,246
-12455,19850,1310,-1827,515,-315
-12419,20582,1498,-1559,433,-367
-12075,20998,2042,-1127,-101,-211
-11967,20494,2414,-1337,-853,631
-12535,19778,2110,-2850,-1442,2368
-12743,19954,2062,-3182,-1464,2874
-13415,20738,2050,-3135,-1346,3178
-12939,22150,2786,-1954,-1823,3048
-11411,21414,3482,1659,-6083,4183
-11671,21342,3630,2697,-7332,4937
-13823,20310,3806,3935,-8497,6860
-14243,19902,3694,3828,-8276,7268
-14303,19050,3106,4002,-7145,8179
-14263,19170,3110,4132,-6566,8373
-14015,19406,3010,4662,-3982,8444
-14139,19130,3142,4898,-3187,8349
-14175,17742,4106,5131,-926,8314
-14283,17014,4330,4899,-535,8296
-14675,15262,5194,4120,-621,8334
-14791,14738,5510,3928,-1013,8330
-15027,13798,5874,3631,-2655,8167
-15047,13510,5638,3514,-3098,7958
-15179,12630,4974,3226,-3751,6996
-15159,12362,4846,3168,-3697,6590
-15179,12002,4534,2823,-3071,5569
-15047,11830,4506,2196,-2269,4389
-15215,13098,3986,1137,-684,2071
-15279,13790,3982,884,-107,1179
-15555,15486,4010,896,1083,-1069
-15399,17338,4146,1302,2096,-3536
-14875,18546,4430,1113,2575,-6386
-14863,18802,4362,567,2550,-7060
-14727,19090,3870,-517,2343,-7909
-14831,20438,2378,-1231,2944,-8851
-14955,20530,2210,-1229,3441,-9196
-14355,19862,1942,-977,4567,-10304
-13963,18582,1770,-798,4311,-10150
-14031,15622,1526,-1648,3591,-8813
-14103,15790,1474,-2143,3518,-8279
-14271,16434,1298,-2815,3368,-7148
-14571,17246,994,-2664,3158,-5835
-14907,17166,626,-1937,4153,-4579
-14823,16982,630,-1799,4849,-4444
-14507,16110,654,-1562,6453,-4308
-13951,15186,1034,-1444,7998,-4143
-13435,13462,1874,-1815,8957,-3698
-13375,13214,2290,-1878,8907,-3592
-13427,12874,2270,-1934,8575,-3345
-13383,12714,2630,-2014,8110,-3355
-12875,12986,2658,-1897,6926,-3560
-12739,13154,2674,-1778,6420,-3593
-12151,13650,2786,-1607,5097,-3607
-11883,14270,2698,-1541,3436,-3505
-11719,15662,2094,-1641,1127,-3182
-11779,16338,1894,-1631,549,-3086
-11879,18858,1286,-1891,-537,-2758
-11931,19654,1254,-1985,-642,-2686
-11591,21966,1058,-2160,-319,-2490
-11375,21954,978,-2036,-388,-2157
-11499,21878,1274,-2316,-596,-925
-11739,22858,1230,-2457,-413,-503
-12731,25194,2334,-1888,-347,562
-12671,26342,2658,-1507,-509,806
-11239,21866,3166,918,-3963,3547
-11299,19622,3414,1265,-5157,4705
-13011,16374,3550,460,-7344,8083
-13587,16030,3622,167,-7644,8814
-14371,16298,3654,450,-8457,9736
-14383,16510,3622,919,-8664,9690
-14243,17310,3826,2170,-9077,9174
-13939,18262,3846,3749,-9548,8347
-13903,18806,4090,6085,-9978,7003
-13723,18694,3970,6561,-9677,6733
-14147,17846,3774,6788,-8475,6499
-14335,16698,4070,6266,-6968,6575
-14483,15146,4454,5238,-5605,6991
-14463,14814,4382,4946,-5292,7168
-14619,13974,4150,4222,-4307,7530
-14791,13246,4218,3348,-3152,7486
-14919,12362,4390,2057,-1848,6592
-14867,12338,4430,1745,-1595,6105
-14823,12702,4474,1472,-1336,5081
-14991,13238,4638,1322,-1113,3565
-15339,15638,4418,1787,-735,461
-15463,16350,4474,2141,-621,-597
-15267,18086,4230,2433,53,-2701
-15075,18878,4242,1953,1022,-4350
-15167,19938,3706,-179,2582,-5941
-15227,20450,3078,-861,3279,-6302
-15371,20738,2386,-2678,6342,-7720
-15167,20814,2654,-3183,7143,-8129
-13599,17254,3362,-3908,5968,-7566
-13583,16030,3334,-4085,4721,-6933
-14207,15274,3006,-4184,406,-4536
-14439,15318,2966,-4301,-710,-3682
-15811,15442,1374,-3468,-2769,-2578
-15963,15574,814,-2936,-2518,-2789
-15111,16194,-366,-1223,706,-4155
-14599,16270,-770,-1020,2395,-4543
-13395,15910,-1058,-683,6288,-4845
-13239,14322,222,-1079,9135,-5098
-13579,13210,1178,-2348,11269,-4986
-13759,13234,1462,-2512,11616,-4905
-14071,12854,2042,-2311,11341,-4720
-13755,12854,2814,-2114,10267,-4663
-13163,13546,3350,-1937,7681,-4709
-12819,13798,3514,-1835,6645,-4728
-12103,14446,3338,-1662,4033,-4630
-11779,15554,2806,-1485,1512,-4548
-11723,17454,1910,-1480,-1212,-4246
-11767,20366,622,-1522,-1680,-3941
-11775,20630,714,-1576,-1534,-3898
-11771,21058,634,-1599,-1271,-3887
-11299,21790,338,-1340,19,-2941
-11347,21798,702,-1391,365,-2608
-11763,24042,1530,-1710,1534,-1303
-12135,24270,1670,-1565,1704,-835
-11887,25454,2914,-540,1355,598
-11479,24086,3154,177,327,1520
-11639,18618,4242,1027,-3768,4772
-12151,17654,4434,945,-4857,5785
-13651,15814,4326,638,-7250,7619
-13919,15502,4174,804,-7851,7825
-13651,15834,3750,1969,-8829,7645
-13675,16246,3738,2569,-8949,7358
-13875,17362,3902,4012,-8962,6481
-13787,18386,4158,5514,-9019,5535
-14019,18218,4374,6869,-8620,4964
-14139,17858,4402,6847,-8239,5041
-14287,17046,4302,6386,-7031,5576
-14459,16150,4538,5640,-5853,6411
-14855,14830,4654,4148,-4263,7645
-14895,14618,4714,3653,-3781,7912
-14915,14026,4918,2752,-3094,8324
-15075,13278,5230,1804,-2720,8435
-15231,12494,4782,892,-2341,7664
-15439,12534,4778,731,-2179,7118
-15587,13258,4518,519,-1673,5617
-15919,15262,4038,589,-663,3448
-15847,18210,3594,1687,1761,-724
-15663,18478,3786,1844,2628,-1937
-15383,18418,4142,1343,4165,-3868
-15271,18794,4094,194,4517,-5078
-15947,19330,3738,-1287,4748,-6020
-16035,19662,4006,-1640,4667,-6492
-14983,19866,3998,-2290,2343,-7325
-14383,19158,3678,-2259,913,-6944
-14803,16926,1982,-2789,-1720,-4838
-15283,16538,1490,-3136,-1936,-4293
-16283,15770,494,-4029,-1733,-3390
-16327,15598,250,-4028,-1484,-3304
-16075,14830,-354,-3104,-108,-4018
-15763,14738,-714,-2692,815,-4467
-14631,14482,-406,-1871,4995,-5752
-14307,14254,-214,-1704,6227,-5912
-14015,13446,502,-1706,8274,-6116
-13991,12934,1594,-2071,9579,-5957
-14059,12822,2166,-2083,9611,-5447
-14027,12982,2294,-2099,9494,-5283
-13983,13554,2746,-2282,9007,-5093
-13351,14238,3018,-2313,7945,-4837
-12119,14934,2922,-2390,4597,-4196
-11859,15414,2870,-2364,3344,-3942
-11791,16610,2294,-2322,994,-3371
-11983,18010,1566,-2204,-573,-3067
-11927,19702,746,-1731,-1561,-2990
-11915,20482,442,-1679,-1338,-2976
-11275,21222,94,-1132,-209,-2778
-11211,20946,322,-945,86,-2609
-11347,21658,538,-959,890,-1962
-11523,22486,702,-1007,1335,-1580
-12171,25266,1746,-415,2483,-591
-11879,25890,2422,7,2307,-158
-10623,21110,3558,1697,-1361,3003
-10683,19870,3806,1699,-2691,4219
-12663,17602,4274,1368,-5988,7719
-13199,17222,4278,1377,-6791,8490
-13851,16758,3950,2156,-8699,9783
-13863,17086,3838,2669,-8955,9941
-14271,18742,3670,4076,-8211,9563
-14327,19218,3714,4589,-7840,9322
-13783,19226,3690,5600,-6085,8851
-13967,18638,3658,5630,-5285,8782
-14419,16638,3942,4435,-2162,8815
-14623,15986,3982,4057,-1424,8885
-14903,14802,4546,3215,370,9075
-14851,14578,4670,3013,652,9119
-14787,13322,5530,2233,325,8880
-14803,13074,5614,1952,-81,8729
-15127,12118,5754,1300,-1835,7772
-15111,12038,5554,1116,-2303,7205
-15195,12606,4846,859,-3069,4992
-15239,13126,4730,880,-3015,4034
-15371,15718,4086,1510,-2119,467
-15375,16662,4122,1810,-1624,-765
-14979,17490,4138,1900,-273,-3827
-14963,17530,4118,1453,-28,-4561
-15155,18606,3034,-109,932,-6405
-15351,19334,2662,-349,1511,-7099
-15115,20994,2246,-630,4092,-9678
-14479,20782,2474,-661,4411,-10090
-13335,18110,2782,-1670,3645,-9483
-13499,17606,2406,-2154,3229,-8852
-14375,16442,1950,-3288,2034,-6623
-14471,16450,1778,-3720,1850,-5912
-14919,16134,1458,-4111,1123,-4505
-14935,16002,1126,-4006,1229,-4421
-14227,15430,498,-2835,2506,-4682
-13971,15134,626,-2564,3395,-4808
-13219,13654,1126,-2577,6113,-5026
-13195,13230,1374,-2607,6605,-5076
-13371,12946,2206,-2583,7182,-5346
-13259,12978,2362,-2691,7213,-5370
-12947,12866,2482,-2758,6453,-5386
-12799,12906,2574,-2696,5935,-5324
-12535,13522,2522,-2484,4320,-5383
-12463,13742,2534,-2454,3672,-5473
-11807,15702,2274,-2065,1358,-5554
-11603,16430,1974,-1753,521,-5450
-11823,18702,1658,-1168,-1267,-5174
-11843,19698,1462,-1193,-1601,-5071
-11407,22450,862,-1282,-1847,-4055
-11315,22582,670,-1274,-1739,-3457
-11379,21422,826,-1511,-1318,-1418
-11683,22250,986,-1783,-841,-871
-12711,25654,1654,-1389,517,544
-12687,26978,2306,-1082,790,778
-10883,22914,3470,1295,-2413,3403
-10819,20954,3530,1736,-3760,4581
-12827,17674,3798,1303,-6282,8142
-13423,17402,3622,1071,-6630,8958
-14211,17046,3458,1466,-7435,10538
-14267,17102,3430,1564,-7472,10535
-14447,18090,3306,2472,-7252,10217
-14231,19318,3598,4725,-6356,8924
-13963,19162,3454,5306,-5945,8597
-14063,16998,4310,5593,-4759,7881
-14039,16310,4630,5259,-4585,7785
-14551,15094,4406,4475,-3960,7994
-14703,14718,4426,4413,-3779,8229
-15235,13794,4862,3903,-3449,8084
-15163,13582,5010,3620,-3417,7958
-14959,12782,5150,2988,-3667,7278
-14939,12658,5018,2729,-3769,6956
-14803,12518,4686,1913,-3685,5666
-14955,12834,4574,1609,-3428,5095
-15407,14642,3790,1217,-2167,2819
-15575,15366,3778,1377,-1604,1852
-15419,18146,3514,2174,740,-1477
-15251,18470,3706,2265,1425,-2315
-15147,18190,3838,934,2853,-3948
-15275,18438,3574,230,3285,-4376
-15887,19502,2486,-857,5487,-6207
-15819,19714,2482,-1060,6300,-7009
-14495,18190,2850,-1763,6999,-8623
-14311,17238,2550,-2061,6574,-8620
-15267,15778,1210,-2309,5440,-8782
-15147,15890,1122,-2229,5170,-8721
-14779,16766,1846,-2917,3931,-7518
-14863,16874,1814,-3094,3336,-7030
-14603,16718,1422,-2619,1815,-5902
-14307,16390,1050,-2310,1475,-5631
-13623,14918,326,-1810,2499,-4885
-13539,14398,238,-1730,3177,-4671
-13407,13386,1014,-1898,5389,-4043
-13343,13294,1226,-2001,5920,-3841
-13315,13242,1766,-2522,7203,-3408
-13271,13450,2046,-2693,7519,-3378
-12795,13470,2454,-2822,7231,-3443
-12507,13630,2714,-2833,6777,-3468
-11723,14698,2474,-2628,4519,-3515
-11555,15174,2486,-2531,3575,-3459
-11447,17262,2266,-2149,358,-3435
-11395,18170,2066,-1943,-452,-3483
-11067,20386,1618,-1506,-2339,-3451
-10939,21170,1342,-1449,-2574,-3445
-10155,21522,458,-720,-2688,-2648
-10199,21054,534,-613,-2521,-2240
-11007,23302,590,-990,-577,-1374
-11155,23814,798,-802,6,-886
-10963,25530,2414,419,459,581
-10591,24334,2782,997,-265,1597
-11063,19382,3478,1428,-3382,5374
-11703,18626,3394,1088,-3950,6544
-13283,17370,3494,771,-5133,9044
-13407,17042,3666,893,-5616,9520
-13655,16822,3826,1794,-7138,10130
-13755,17094,3682,2343,-7452,10059
-14143,18038,3730,4062,-7427,8895
-14083,18134,3850,4571,-7290,8414
-13887,17654,3906,5282,-6919,7751
-13923,16574,4174,5357,-6388,7227
-14331,15346,4086,4888,-5021,6970
-14451,15050,4102,4812,-4539,6977
-14739,13998,3966,4428,-2974,6825
-14799,13874,4330,4267,-2559,6743
-14751,12986,4742,3321,-1640,6454
-14715,12730,4862,2954,-1535,6248
-14919,12514,4750,1922,-1303,5238
-15007,12802,4562,1736,-1141,4702
-15235,14562,4262,1244,17,2467
-15299,15130,4094,1240,484,1602
-15231,17558,4218,1357,1965,-1593
-14995,18030,4214,1453,2277,-2394
-14859,17902,3802,554,2558,-4241
-15099,18202,3694,-37,2793,-4750
-15415,19650,2826,-1503,3964,-6527
-15475,19722,2702,-1776,4472,-7206
-14375,19270,2406,-2021,4755,-8565
-14155,18018,2442,-2113,4426,-8427
-14891,15626,1738,-3125,3301,-7712
-14855,15674,1958,-3384,3082,-7451
-15023,16302,1850,-3887,1951,-6413
-15071,16162,1738,-3812,1520,-6203
-14867,16118,774,-2789,1004,-6355
-14663,16066,686,-2453,1291,-6498
-13891,15530,666,-2163,3343,-6763
-13727,15282,830,-2127,3850,-6745
-13199,14218,1130,-2418,5526,-5990
-13159,13934,1210,-2566,5955,-5712
-13027,13534,1874,-3250,6776,-4575
-13059,13554,1890,-3284,6720,-4325
-12583,13978,2074,-3299,5556,-3956
-12243,14110,2414,-3208,4873,-3886
-11319,15098,2002,-2609,1819,-3571
-11119,15738,1910,-2458,809,-3355
-11003,17630,1438,-2016,-2387,-2420
-11091,18038,1338,-1944,-3211,-2136
-11223,19878,482,-1880,-4158,-1404
-11267,20422,78,-1872,-3936,-1214
-10943,20938,-118,-1615,-2256,-576
-10939,20406,114,-1535,-1918,-331
-11475,21222,858,-1700,-960,197
-11607,21810,1010,-1597,-596,337
-12367,24266,2162,-374,-323,306
-11991,24514,2366,532,-908,511
-11391,22054,2846,2961,-4089,2604
-11631,21434,2626,3175,-4510,3609
-13563,18882,3094,3469,-4324,6349
-13875,18410,3658,3458,-4465,6899
-13551,17650,4250,3808,-5659,8292
-13587,17778,4270,3985,-5999,8716
-14099,18470,3746,4759,-6153,9448
-14379,18642,3718,4981,-5704,9529
-14559,17506,4074,5147,-4067,9440
-14511,16926,4130,5016,-3588,9411
-14511,14910,4470,4222,-2560,9223
-14579,14538,4374,3983,-2226,9102
-14927,13418,4574,3892,-1776,8344
-14943,13174,4730,3977,-1757,8023
-15011,11974,5206,3046,-2561,5816
-14959,12070,5274,2904,-2658,5650
-14943,12078,5086,2706,-2844,5382
-15003,13294,4154,1794,-3241,3550
-15067,13874,3918,1827,-3083,2831
-15303,15770,3150,2259,-1701,-293
-15327,16670,3174,2376,-1022,-1457
-14891,18258,3466,2143,555,-4494
-14635,18442,3570,1706,763,-5140
-15011,19950,2606,-70,1566,-6711
-14967,20466,2146,-285,2106,-7120
-14795,19962,2390,-922,3863,-8300
-14247,19182,2422,-1281,4036,-8274
-13831,16658,2506,-2505,3110,-7062
-13959,16806,2238,-2714,2478,-6549
-14223,16946,2170,-3026,342,-4614
-14471,16878,2178,-3096,-302,-3936
-15099,16234,1274,-3099,-1177,-2822
-14995,16058,854,-3106,-936,-2729
-14279,14958,14,-2939,1437,-3038
-14015,14498,-146,-2793,2459,-3189
-13467,12902,214,-2619,5066,-3572
-13543,12706,434,-2597,5785,-3781
-13655,12746,758,-2437,7561,-4194
-13619,12850,1042,-2512,7980,-4293
-13107,13278,1822,-2544,7567,-4362
-12895,13294,1990,-2469,6977,-4375
-12107,14218,1846,-2258,4484,-4343
-11903,14466,1614,-2152,3572,-4190
-11335,15762,846,-1989,979,-3347
-11439,16354,502,-2035,493,-3166
-11603,18670,426,-1902,-85,-3144
-11447,19254,486,-1764,-339,-3186
-10839,21010,-30,-979,-636,-3060
-10727,20786,-106,-676,-459,-2897
-10787,19478,526,-764,157,-1999
-11051,19586,530,-1014,472,-1749
-11643,21662,810,-961,1849,-808
-11903,22214,1050,-773,2414,-668
-11247,23070,2530,654,2161,304
-11087,21906,3162,1117,1168,967
-11631,20478,3618,1313,-2121,3601
-12191,19738,3758,1478,-3018,4518
-13283,17670,3834,1536,-5178,6430
-13303,17330,3698,1599,-5557,6834
-13719,17954,3066,2294,-5390,7187
-13767,18526,3182,2695,-5067,7025
-13467,18750,3646,4302,-4586,6666
-13379,18158,3750,4585,-4503,6710
-13535,16706,3990,4550,-4114,6996
-13891,15290,3894,3996,-3634,7438
-14271,14558,3774,3215,-2576,8063
-14427,14406,3830,3104,-2206,8184
-14599,13994,4282,3043,-1692,8251
-14747,13650,4714,2929,-1502,7966
-14935,13102,5082,2443,-1692,6949
-14795,13222,4794,2183,-1720,6622
-14807,13498,4582,1771,-1485,5774
-15051,14198,4350,1280,-793,4463
-15499,16274,3958,1250,623,1752
-15463,16986,3846,1372,1050,802
-15331,18322,4078,1421,1991,-1213
-14799,18490,4290,903,2075,-2368
-15067,17994,3306,-795,1410,-3353
-15467,18650,2854,-1043,1552,-3874
-15755,19094,2590,-1247,2098,-5278
-15099,19662,2438,-1527,2412,-7058
-13599,17570,2194,-2231,1338,-7767
-13627,17066,1942,-2551,808,-7609
-13899,16446,1142,-2733,-811,-6340
-14239,16558,1158,-2920,-1196,-5753
-14887,16310,1054,-3080,-2294,-3839
-14947,15834,738,-2786,-2515,-3462
-14731,14998,-562,-1907,-870,-3374
-14419,14782,-694,-1670,262,-3407
-13751,13714,-406,-1602,4362,-3425
-13675,13262,62,-1727,5374,-3430
-13635,13102,1170,-2333,7493,-3362
-13515,13158,1490,-2546,7924,-3294
-13527,13230,1850,-2661,8110,-3208
-13391,13398,2350,-2378,7433,-3324
-12975,14070,2754,-2060,5680,-3958
-12635,14286,2662,-1967,4824,-4135
-11863,15294,2322,-1703,2807,-4363
-11275,15886,2158,-1701,863,-4205
-11291,17222,1374,-1907,-1525,-3635
-11399,17730,1054,-1957,-1998,-3502
-11471,19190,610,-1948,-2171,-3359
-11243,20470,346,-1756,-1857,-3152
-10855,19570,498,-1285,-1598,-2123
-11055,19590,498,-1475,-1372,-1793
-11879,22318,982,-1859,126,-1063
-12151,22902,1246,-1635,595,-888
-11611,24986,2586,-70,677,-352
-11251,23874,2770,828,-286,338
-11639,19998,3182,2049,-3323,3220
-12075,18986,3342,1947,-3916,4134
-13243,16970,3446,1343,-5312,6254
-13267,16910,3454,1343,-5638,6708
-13635,17570,3290,2594,-6180,6989
-13495,18138,3154,3112,-6197,6812
-13119,18870,3126,4857,-5854,6363
-13047,18562,3110,5143,-5518,6324
-13215,16846,3502,4775,-4153,6874
-13335,16322,3634,4487,-3837,7168
-13599,15710,3650,4100,-3385,7862
-14039,15274,3614,4090,-2810,8373
-14403,14614,3834,4127,-1539,8576
-14451,14402,3946,4030,-1196,8505
-14423,13814,4446,3668,-610,8367
-14475,13414,4750,2981,-291,8106
-14779,13706,4334,1898,88,7267
-14855,13870,4118,1796,415,6762
-15191,14566,3738,1649,1702,5314
-15355,15518,3650,1700,3337,3358
-15295,17414,4398,1865,4811,83
-15183,17474,4822,1779,4758,-728
-15043,16906,4826,1121,3967,-2097
-15463,17286,3878,201,3437,-3397
-15803,18862,3342,-551,4252,-6254
-15591,19258,3554,-942,4496,-7276
-13687,17434,3102,-1954,2273,-8911
-13567,17158,3010,-2102,1977,-8783
-13871,15930,2338,-2728,603,-8105
-14531,15610,1454,-3462,-1102,-6746
-14527,15798,1362,-3675,-1510,-6342
-14783,16502,982,-3438,-2328,-5877
-14663,16594,754,-3092,-2052,-5950
-13787,16534,-166,-1975,114,-6497
-13331,16354,-402,-1801,1366,-6548
-12887,14818,-478,-1659,5042,-6152
-12915,14362,58,-1747,6055,-5995
-13099,13974,1250,-2363,8560,-5175
-13139,13954,1554,-2604,8947,-4904
-13331,13718,2026,-2645,8778,-4372
-13127,14046,2378,-2705,8466,-4312
-12507,14362,2834,-2401,6517,-4213
-12195,14454,2702,-2263,5611,-4232
-11595,15282,2394,-1838,2511,-4097
-11515,15770,2258,-1835,1652,-3967
-11591,17478,1646,-2162,-545,-3569
