acc_x,acc_y,acc_z,gyro_x,gyro_y,gyro_z
-3044,2427,-4657,5148,5405,-5657
-2736,2539,-4557,5187,5452,-5759
-1180,3871,-3249,5219,5589,-6050
-908,4507,-1781,8512,5894,-5723
-968,4479,-1785,8479,5842,-5692
-896,4531,-1533,8488,5846,-5694
-836,4459,-1433,8432,5816,-5744
-720,4467,-1457,8352,5816,-5707
-692,4439,-1273,8261,5756,-5725
-732,4487,-1277,8215,5797,-5740
-688,4411,-1149,8154,5731,-5784
-628,4343,-873,7928,5491,-5800
-76,4895,-337,7318,4444,-5667
-120,5383,-197,6535,2546,-5199
140,5487,-277,6301,2115,-4930
460,5783,-637,5617,1245,-4396
296,5523,-933,4846,1143,-3997
-356,4983,-1125,3990,1339,-3659
-468,5011,-1117,3890,1141,-3616
-356,5487,-945,3956,459,-3308
-556,5831,-1125,3794,120,-2812
-472,4595,-1769,3151,600,-2680
-520,4699,-1629,3014,793,-2665
-488,5451,-605,2820,323,-2341
20,5939,-113,2610,-244,-1892
56,6347,31,1664,-3105,99
-300,5851,-337,1525,-3605,544
-1028,4547,-1661,184,-3238,1176
-1228,4319,-1353,-183,-2961,1252
-1056,4963,251,-1121,-3403,1255
-588,5251,479,-1263,-3961,1115
-316,5591,-1493,-864,-2487,-334
-448,5375,-2201,-451,-1152,-1163
-384,5215,-1725,869,4346,-4479
-516,5435,-849,1207,5627,-5621
-780,6695,391,2898,7860,-8731
-1416,7719,1467,3997,8202,-9365
-1444,7311,2051,5334,7698,-10337
-1536,6915,1515,5804,7641,-10518
-1912,7175,1319,7899,8158,-10623
-2120,7423,2211,8096,8114,-10284
-2876,6651,2499,9066,4986,-8243
-3080,6503,2091,9536,3648,-7402
-3320,5695,143,10370,900,-4634
-3128,5415,-457,10261,57,-3704
-1052,5023,-2549,9099,-1967,-1667
-12,5223,-3457,8766,-2075,-1749
2320,6355,-6153,8970,1135,-3312
3164,6491,-6521,9290,3050,-3892
4680,6467,-5285,8350,10617,-5227
5256,6487,-4721,7583,12778,-5847
5936,7787,-129,5106,15775,-6277
5756,7423,1331,4227,15169,-5422
3944,3767,1795,1611,13055,-1637
2840,2491,1635,662,13071,-291
-224,271,3747,-3615,13141,4590
-1152,-217,4767,-5259,12331,6330
-2780,671,6915,-10534,5541,13253
-2560,1771,7015,-12090,2143,15928
-3120,5587,5959,-16859,-7004,24726
-3544,5819,4871,-17968,-8993,26956
-2064,3571,627,-17790,-11879,28673
-1452,2683,43,-16307,-11459,26800
604,3051,135,-9740,-6696,17676
1080,5343,-269,-7589,-3404,14106
-516,8471,543,-1003,5845,3021
-904,8163,-205,1690,9362,-714
-5492,10419,2495,10401,18566,-10209
-6836,10499,4223,12200,20240,-12675
-6480,11651,7327,14709,19652,-17154
-6480,12363,7823,14643,18421,-17801
-5820,10487,8163,13835,15220,-18589
-4844,7299,7419,12781,10622,-18777
-1056,6951,6743,9955,2887,-15386
-296,7039,6903,8556,407,-13022
704,5455,5339,6136,-4577,-7972
2060,2895,3623,4852,-7986,-4068
4500,591,1399,3482,-11663,-331
5584,347,371,3786,-11803,12
7580,835,-1209,5069,-9273,-215
8936,1715,-1169,5889,-4130,-775
8712,615,1667,5499,6287,-2664
8928,675,2767,5120,9292,-3804
7820,3775,7883,3611,12408,-5209
3620,4735,11867,772,9872,-4426
-96,1447,9095,-3928,2776,-1716
-152,1443,8219,-5066,1391,-561
-1016,2743,7311,-8159,363,2215
-3052,3699,6911,-10596,339,5659
-4580,2711,6075,-13081,-230,10896
-4620,2691,5919,-14023,-148,12336
-3548,3635,6031,-16121,417,15035
-3460,5175,7443,-17592,403,16868
-664,5443,6387,-14612,537,12069
92,6275,7219,-11805,1140,9054
1120,10595,9443,-6509,3224,2540
1212,15659,12235,-2635,3787,-2276
596,16083,10711,3540,2818,-7869
-528,15547,9079,6009,3668,-9599
-3464,14559,7775,9195,6357,-12199
-5828,12495,6367,10938,8579,-13935
-7088,9407,5747,14118,9638,-14943
-7020,9087,5527,14795,9462,-14680
-5908,7579,5683,15116,10154,-12343
-5908,7055,6095,14695,10949,-11156
-4584,5347,7107,13396,10871,-6134
-3704,4891,7399,12886,10700,-4663
-812,4859,9939,12298,7904,-258
700,5143,10959,11672,6700,988
5372,4231,12003,8356,4073,2015
7000,4063,11895,7451,4429,1308
8416,4679,12455,6506,5227,169
8508,5627,13983,4962,6266,-942
8476,5467,14523,2035,8038,-2586
7440,6119,15415,1255,8374,-2749
3740,5935,16751,-916,6924,-2000
364,3595,15375,-3798,3843,-685
-3392,807,12691,-8290,1008,555
-3424,1079,12391,-9768,-167,1568
-4384,3347,12575,-14311,-1727,4450
-6032,4559,11843,-18542,-3149,7468
-6160,5283,10099,-23484,-4507,12030
-5724,5819,9775,-24967,-4367,13225
-4736,7315,11015,-27422,-4920,15343
-3132,7991,11915,-28328,-4726,14983
-212,7995,12775,-23548,-1573,7766
-124,16423,19163,-7986,4165,-2772
-328,16279,18767,-6576,3777,-3062
-552,16691,19295,-5403,3340,-3308
-2372,16643,18843,6228,-1083,-4337
-3288,14639,17151,9065,-2694,-4446
-6600,8655,10379,14371,-3815,-6329
-7412,7455,9151,14974,-3531,-7071
-7120,6959,8015,14107,-4605,-6576
-6992,6755,7807,13056,-5159,-5774
-7340,3863,5875,11576,-5504,-4000
-6844,3387,5811,11677,-5469,-3311
-5440,3323,6963,10394,-5259,-1288
-3712,3199,8363,7772,-5569,1096
-592,991,9387,4487,-8742,3887
1080,231,8739,4220,-9355,3981
4160,-857,8023,4937,-8341,2213
7816,491,9007,5807,-6064,228
9448,351,10763,4430,-619,-1778
10304,-33,10715,3910,1121,-2296
8236,2279,13151,522,7280,-2028
5896,507,13843,-752,7709,-1348
872,-5425,12447,-4845,8560,-367
72,-5993,11559,-6719,8991,-72
-176,-3873,9867,-13606,9671,3005
-300,-1461,10515,-15576,9318,4659
-2068,5575,13667,-21548,5164,9696
-2376,6551,13271,-22724,3641,11007
-3844,7699,11991,-23992,1321,13545
-4956,8719,11703,-26225,-1914,16417
-4988,7275,9939,-26270,-5257,16926
-4772,6191,9591,-24265,-4242,14664
-4792,4903,10351,-16497,-1414,8449
-4252,6175,12123,-7858,3188,1636
-4648,11535,15695,1614,4408,-4750
-5140,12367,15543,4410,4616,-6242
-6812,11123,13791,10173,5151,-9526
-7920,8299,11743,14102,5700,-12955
-8712,5679,9019,17145,5632,-17507
-7432,5899,9083,18180,4525,-17869
-4900,8983,10231,18231,2935,-17437
-4852,9163,10331,16882,3613,-15859
-3596,7103,8551,15790,4574,-12136
-2988,6435,8631,14918,5076,-10663
-748,4367,9847,13568,5308,-5833
-60,4123,10487,13681,5584,-4832
2140,3043,11335,13409,8137,-2826
3316,3179,11891,12709,10349,-2507
2128,1187,12299,10635,15129,-767
2472,2455,15279,13558,14205,-711
3376,10015,20859,13729,18456,-2339
4248,10663,23131,10614,20145,-1910
1420,9427,25875,2859,16990,-413
424,8995,25267,2622,13547,-262
-556,8043,20807,-666,4060,-239
-1572,7399,19911,-2562,1392,629
-4816,4331,15967,-7132,-6827,2944
-6460,3023,15119,-8031,-9623,3609
-9560,223,11799,-9931,-14509,5192
-9652,-141,10375,-10483,-14336,5459
-9320,1215,7559,-13867,-9002,6460
-8696,1903,6895,-15482,-5894,6199
-7448,4211,8727,-19612,1722,5175
-7680,5351,12799,-23516,9183,2922
-5480,5183,20451,-18787,10016,-2748
-5444,6507,24239,-15199,7745,-4395
-2636,12143,31275,-9590,-1100,-5848
-1768,15451,30799,-7188,-12674,-4086
-2500,17227,20459,585,-18372,-1481
-3336,16687,18511,2760,-17627,-1077
-6632,13783,15387,5341,-15642,-749
-10108,11327,12759,6203,-14798,-715
-15320,8623,8167,7261,-14507,-2379
-15684,7715,5651,7488,-12989,-3317
-15484,5367,1391,9068,-9327,-5625
-13984,4671,-721,10436,-8163,-5968
-10180,6463,-2505,16690,4099,-4989
-9396,6755,-493,16227,7842,-5558
-7528,6723,3223,15681,17150,-4153
-6364,7211,3919,16611,18528,-3195
-2356,8855,9095,21793,22497,-3333
-1496,8907,11543,22410,23635,-4623
4016,14235,17831,19787,27953,-7103
2408,15715,23471,17094,27953,-6699
956,17139,31527,14984,27953,-4710
964,15671,35619,14323,17248,-1904
136,12207,28887,8788,3022,1131
-440,10615,25443,6432,1586,1344
-2748,5239,20199,1667,2607,613
-5060,1215,19235,-3031,2907,-595
-6932,-657,18907,-9277,-3169,-306
-7184,-261,18331,-10778,-5752,225
-8248,1407,17571,-14177,-10827,1680
-9460,2751,15787,-18157,-14502,3197
-7696,4323,11311,-23086,-13368,5151
-6252,5603,10883,-24740,-10484,5638
-4036,9099,11259,-29135,-1398,5758
-4816,10931,14643,-30330,7700,3777
-5160,12479,27567,-20895,7776,-1894
-4628,15171,31503,-16647,3151,-2544
-3668,22263,26879,-7128,-15246,1947
-5044,21103,22595,-3538,-18406,3424
-10012,13919,13803,7381,-21650,2943
-11404,11715,12503,9103,-21538,1813
-13476,8199,8387,10589,-19461,-2178
-13340,7699,7291,10278,-18072,-3279
-12672,5591,1591,12082,-3938,-4752
-11424,6087,3871,11397,-3775,-5437
-10236,5711,5899,7839,1421,-3197
-10852,5531,6867,7395,3098,-2770
-10432,4415,6959,6887,2582,-1447
-7300,3695,6091,6587,4150,-432
-3028,5159,7971,7056,7079,-1189
-1808,5591,8019,8315,8148,-1781
1488,7923,9563,11431,13214,-4253
3624,11531,15379,11614,19842,-6100
4244,12459,25887,5986,23754,-6535
3832,11903,28243,5453,22668,-6261
2920,11483,31235,6134,17120,-5458
1128,9959,32351,3615,5024,-2206
-3588,2739,22059,-2008,-7580,757
-4888,1383,19827,-3447,-9994,1067
-8264,-513,12819,-12837,-14068,3064
-8488,-405,12519,-13795,-14144,3340
-8864,355,11291,-16703,-14356,4338
-9156,2375,7155,-23597,-12473,7386
-8264,2763,5127,-24453,-10225,8427
-5828,5759,6123,-26104,-1470,8998
-4776,6987,7035,-26984,2479,8843
-6480,9003,11319,-23143,15524,2848
-6564,10379,13619,-17668,16284,142
-2024,20475,26823,1111,9360,-2995
-1908,24067,31195,2500,5452,-1520
-3956,20635,24231,7658,-6264,3691
-5600,17651,21351,10089,-7268,3730
-8728,11063,14603,12836,-5034,1451
-9128,9547,12967,13693,-3379,421
-11060,6499,10687,16648,1164,-2346
-11544,5855,10863,17154,1361,-2688
-12556,3347,10527,17328,-872,-2199
-12868,2555,10075,17366,-1980,-1857
-11784,1803,7579,17278,-4329,-288
-10924,2319,7307,16706,-4293,378
-8040,3155,6247,13491,427,1198
-6580,3447,6027,12946,2414,1218
184,6895,7659,11909,14111,-274
1844,8323,9099,11734,19699,-1530
2884,13879,22215,13173,27953,-4714
3244,15199,28591,12834,27953,-4598
1136,13719,37258,10514,15843,-1063
1420,11539,37258,9814,8353,68
-2220,5687,27351,3847,-6182,1149
-3444,3783,23939,1499,-7846,545
-6964,-865,17983,-4911,-9822,-1283
-7196,-1781,17219,-7093,-9895,-1508
-8712,-2113,14363,-14423,-10148,-9
-9392,-1805,13867,-16397,-10929,833
-10772,1051,11487,-21772,-13919,3282
-10420,2075,9403,-23070,-14156,4373
-9932,3235,5375,-25407,-9559,5595
-10344,4559,6475,-28113,-3189,4572
-7460,8131,9279,-30330,11213,1371
-7208,9587,11171,-29168,16527,-1561
-7244,19371,21947,-12180,20772,-8320
-4544,27915,35055,538,13332,-6402
-3148,24843,31499,5875,-9318,2587
-4552,21615,25887,9567,-12146,3025
-7948,13435,16951,16431,-11027,118
-8376,11151,15491,17768,-9614,-1216
-10592,5499,13227,20613,-8071,-4562
-11312,4043,13027,20609,-8440,-5123
-10356,1043,10771,18246,-10961,-4010
-8984,755,8971,17114,-10990,-2624
-8640,1815,9351,10910,-10685,1933
-8544,1703,9379,8657,-10761,3451
-6592,467,8803,3805,-9051,5818
-4708,639,8435,2323,-7769,6221
2684,2727,7283,-102,-710,6558
4112,3395,7543,190,3260,5420
7344,8415,12843,2518,15662,1873
6544,10271,17135,1758,18819,1207
5700,11043,26547,-1500,22166,-798
4564,12011,28251,-873,23445,-1840
-784,10707,30499,-1215,12068,-593
-2280,7835,28555,-3545,7432,360
-7248,-201,20395,-9992,-5196,3043
-8516,-1457,18359,-11632,-8195,3560
-10044,-1505,9659,-16908,-12974,6012
-12108,-1229,8507,-18367,-13013,6448
-13676,1175,7519,-22760,-14399,7039
-13296,3475,5895,-27894,-11623,7698
-11192,7571,6231,-30330,-4855,8542
-10984,7631,5835,-30330,-2887,8379
-9540,5843,5291,-30330,583,6185
-7028,2127,5891,-23658,8479,-1258
-6252,8975,16879,-3292,21516,-13590
-5184,14935,22407,1537,21890,-15337
-4940,19871,32811,12121,10450,-13410
-4756,18147,32439,15787,4310,-12287
-7856,14371,21207,21915,-4801,-10782
-8452,12539,17295,23304,-5253,-11006
-10024,8319,9095,27554,-1297,-12407
-10892,7587,8703,28160,-143,-13149
-10900,6671,8303,27416,812,-13556
-9904,7791,8671,23594,3333,-12808
-9672,8487,8523,17280,7401,-8344
-9080,8195,8447,15634,9329,-6838
-8684,6743,9603,12605,13823,-4342
-7144,6803,10567,10818,16519,-2328
-3932,11267,14603,9497,19887,1116
-3212,12455,16659,9721,21113,1392
-464,15559,24007,11879,25189,495
352,17435,36323,11421,24912,423
1520,16527,37258,5511,11140,2857
2024,16283,37258,4106,6943,3731
-2464,12535,36563,-141,-1263,5447
-7404,3879,28211,-4133,-9459,4680
-10680,-3257,20447,-8454,-18509,-461
-10580,-3437,19067,-10624,-20843,-1287
-10124,-2225,14455,-15944,-24063,-287
-11880,-993,11115,-21796,-24001,1669
-13228,1687,7003,-28457,-18682,3630
-12800,2651,6647,-29920,-16381,4196
-11724,6311,7183,-30330,-6402,5717
-11696,6491,7435,-30330,-3094,5757
-11860,4367,10971,-28505,9334,748
-12176,5839,13355,-19950,11469,-2364
-5632,28279,29399,7396,16627,-6348
-1824,26471,34907,9784,12566,-5150
-7240,28655,37258,4692,460,2124
-9716,23703,23267,10749,-3037,3807
-12024,15131,18095,13341,-2166,457
-12592,12667,16567,12917,-2229,-573
-13312,9227,13491,13384,-3404,-2741
-12944,7247,10735,14704,-5937,-4120
-11704,5567,9263,15305,-11615,-3203
-11140,5139,8955,14784,-13169,-2368
-9760,4519,8223,12530,-14061,-476
-8892,4415,7395,9493,-11457,823
-5168,4171,6743,5151,-3439,1780
348,6359,8791,6982,12460,1384
432,7195,9767,7516,13652,1116
832,7239,10843,8081,14481,977
1552,15603,25119,11183,19531,-1810
1848,16383,29839,10304,17231,-1415
4112,17739,32811,7808,6524,2337
2728,16975,30799,7192,2748,3846
-3676,6987,22403,3490,-6647,6628
-5768,3587,19627,2352,-8884,6236
-8892,-2909,15499,-1942,-13626,3579
-9044,-3905,14631,-4230,-14671,2923
-8432,-3681,11975,-12390,-16508,4446
-8884,-2705,10991,-15043,-16840,5536
-9156,847,8011,-22255,-14558,8446
-8328,1955,7187,-23878,-12687,9521
-6492,4655,7263,-27506,-7024,11378
-5160,5819,8731,-30330,-536,12122
-2028,1539,10955,-30330,6524,7223
-864,959,12187,-29011,9652,4228
-1232,6295,21535,-21184,17577,-3870
-3904,17611,32291,-10986,12470,-7584
1072,18263,34667,-877,-14612,-1829
-352,15995,29275,750,-19273,304
-5732,14111,18567,5363,-22564,2959
-11416,11063,12199,11645,-20569,2042
-14912,7187,8743,17669,-16104,-2657
-14964,7223,7919,17137,-15407,-3552
-13828,5135,6075,11083,-15145,-6003
-7960,5299,-2993,10683,-11267,-5562
-10972,5055,1551,12980,3302,-10115
-10348,5447,3603,11941,6190,-9689
-9776,6467,7039,9908,11972,-8305
-8952,7043,7363,10512,10513,-6835
-4892,8627,5799,14749,7765,-5370
-3176,9447,5291,16463,8975,-5800
3560,13915,4311,19241,22896,-9646
5172,15723,5339,19036,27953,-10432
1980,23119,19507,14670,27953,-12688
516,23635,27127,13121,27953,-12458
3760,17779,37258,12296,27471,-5807
4624,15075,37258,11680,18637,-3220
1072,2827,26303,5432,-869,2295
-728,-901,22827,3828,-3649,1758
-6336,-4397,19927,-2287,-9989,-536
-7780,-3853,20039,-5420,-12454,-204
-10396,-2213,18747,-13067,-17384,2206
-12680,-589,16519,-20516,-20755,5567
-12400,2179,10419,-28024,-21380,10811
-11392,3019,8467,-29608,-18438,11561
-8096,5827,5939,-30330,-9325,11654
-7136,6695,6587,-30330,417,9125
-7848,12991,16295,-20694,20006,-3230
-8508,17763,22707,-13378,20704,-6895
-3292,30851,37258,-1558,6175,-4621
-2200,32219,37258,-957,-1813,-1136
-5236,21199,22651,6148,-12854,4263
-6624,18179,19467,7225,-12736,4341
-10204,10367,12831,8482,-9241,2754
-11664,8135,12443,9072,-8261,2171
-11916,6411,9739,9801,-7455,731
-12644,4867,9115,9884,-8268,688
-13724,2035,5643,9980,-12811,2541
-14208,767,4347,10938,-14466,2954
-14212,-241,2707,13197,-16677,3547
-12604,175,2255,12357,-14289,3100
-8236,1091,387,9524,-3810,711
-6896,1143,919,9287,29,-609
-1644,1803,2415,10009,8216,-3985
4752,5655,3931,11627,19087,-5957
5228,22763,14527,13051,27953,-9577
2416,23347,23047,10978,27953,-11474
-2528,20003,37258,8986,27953,-7542
228,14871,37258,8990,11583,-2522
-1504,7963,21975,3494,-7268,2645
-2640,4095,17371,3058,-8469,2457
-4804,-525,13855,2878,-9387,1057
-6572,-2053,14275,365,-10460,175
-8676,-1093,13507,-9460,-12296,1694
-9532,-733,12495,-12779,-12569,2523
-10620,703,9891,-18231,-12413,4242
-10396,3767,4015,-21662,-10557,5749
-8164,3535,4607,-24782,-2209,7016
-7624,3147,5051,-25570,1514,6424
-3416,867,5911,-24281,16784,688
-2820,2171,7123,-21114,24664,-2504
-8556,31051,35955,-3041,27953,-12692
-7168,33410,37258,1575,26355,-9769
-5420,26647,37258,1784,-4412,1577
-6584,25255,30975,3739,-9183,3400
-7884,16215,16167,8626,-10765,5386
-9048,13227,14083,9434,-9297,4788
-12476,8291,10731,10457,-7226,2983
-12936,7707,11035,9953,-8116,2843
-13916,6139,10743,8711,-9117,3376
-14224,3543,7019,7942,-10835,4347
-14688,-1021,883,12318,-14184,5712
-14460,-1141,1343,13405,-14585,5795
-12008,-369,2203,12338,-10911,5635
-11168,-609,1451,10483,-4047,3704
-6532,495,83,14312,9399,-5388
-3272,3191,787,16233,15356,-7952
1536,11631,3931,18149,27953,-12003
704,23859,11915,17449,27953,-17472
-8676,22899,37258,12613,27953,-13465
-3452,20527,37258,13031,25827,-9822
-3332,18159,37258,6136,4258,-1826
-5092,10151,26267,467,-10181,3763
-6760,647,15595,-430,-13394,2757
-8140,-665,14143,-1169,-12839,1880
-10664,-2665,14643,-7965,-13465,170
-10476,-2725,15103,-10979,-14098,748
-11024,-629,13519,-19233,-13793,2347
-11384,551,13199,-21664,-12855,2767
-10540,3031,11091,-28391,-6847,2895
-9372,3339,10611,-29681,-3864,2538
-6420,3279,11995,-29809,5734,-651
-7652,10723,22359,-21549,13708,-5918
-5484,33410,37258,-3741,5193,-5230
-4552,33195,37258,-4460,-1041,-1369
-7548,21599,22447,-1022,-15747,7497
-7948,20835,21235,-245,-15492,7510
-10348,15131,16847,2576,-12927,6476
-12984,9203,12739,4165,-9493,3570
-13656,7959,11335,4419,-8923,2528
-13636,5459,9903,4638,-9420,798
-13636,5091,8295,4456,-10836,1079
-12672,2891,2151,6644,-15756,3042
-13852,2015,1499,8860,-15636,3108
-13640,2091,2675,11692,-13198,2192
-12912,2183,3775,11365,-11648,2128
-11516,1819,-321,12425,-3846,-787
-9816,3175,-913,13070,-64,-2772
-1664,10331,-113,13725,18281,-10485
2292,14259,179,13551,26682,-11997
-3504,24271,11551,20569,27953,-16311
