acc_x,acc_y,acc_z,gyro_x,gyro_y,gyro_z
-13681,16051,-1016,98,-565,195
-13549,16019,-980,78,-483,176
-13521,16007,-628,40,-389,139
-13597,16115,-468,42,-848,244
-13581,16143,-548,81,-934,264
-13537,16183,-628,131,-1025,299
-13565,16111,-772,178,-820,378
-13669,16027,-596,193,-739,491
-13589,15967,-536,222,-589,628
-13617,15939,-448,222,-617,644
-13577,15939,-684,385,-647,865
-13537,15943,-1044,494,-433,914
-13485,15919,-736,487,567,983
-13537,15971,-532,503,689,977
-13377,15835,-348,226,657,913
-13441,15751,-184,159,572,913
-13481,15479,-32,-163,195,629
-13525,15411,-92,-315,50,506
-13533,15415,-364,-633,-206,25
-13501,15567,-312,-808,-192,-134
-13537,15391,-288,-1066,-303,-579
-13481,15479,-512,-1130,-262,-671
-13577,15723,-412,-1135,-541,-826
-13389,16071,-484,-1112,-658,-945
-13213,16523,-840,-888,-608,-1168
-13137,16699,-964,-835,-512,-1096
-13217,16547,-752,-460,-105,-784
-13281,16507,-456,-283,-132,-579
-13177,16615,-468,-67,39,388
-13305,16511,-324,67,39,667
-13329,16127,284,100,-651,1123
-13285,16163,176,48,-794,1179
-13389,16019,-516,-277,-720,1015
-13525,16067,-572,-352,-454,885
-13597,16067,-800,-555,482,244
-13549,15907,-548,-573,732,28
-13637,16211,-188,-620,733,-386
-13685,16219,-184,-631,569,-423
-13585,16291,-296,-402,59,-554
-13577,16407,-280,-319,-91,-574
-13665,16471,32,-214,-729,-589
-13609,16375,-104,-166,-945,-646
-13393,16475,-412,-160,-1060,-714
-13361,16415,-452,-172,-976,-654
-13405,16431,-332,90,-600,-425
-13473,16511,-148,128,-574,-339
-13373,16695,-260,342,-682,-252
-13381,16539,-256,658,-766,52
-13421,16419,-280,714,-716,124
-13505,16099,-108,844,-989,288
-13525,15955,-124,880,-1017,297
-13617,15739,-248,896,-872,385
-13633,15631,-444,917,-795,332
-13553,15787,-292,761,-200,132
-13557,15787,-160,627,-121,24
-13545,15831,-116,270,-141,-191
-13493,15679,64,197,-82,-232
-13577,15807,-60,-83,216,-146
-13637,15803,-160,-226,378,-149
-13645,15911,-228,-499,766,-109
-13477,15999,-164,-629,935,-115
-13509,16151,-472,-776,1565,-5
-13621,16099,-844,-770,1759,-75
-13561,16135,-1180,-613,2741,-139
-13529,16115,-1060,-485,3030,-152
-13537,15995,-300,-287,3453,-259
-13493,16023,-276,-281,3300,-264
-13469,15995,-100,-191,2346,-328
-13397,16003,-12,-157,1968,-333
-13213,15939,-4,-256,888,-362
-13249,16007,-24,-222,585,-300
-13213,16267,-208,-75,-161,-245
-13257,16343,-140,-31,-372,-200
-13373,16459,-236,128,-956,19
-13413,16331,-336,155,-964,132
-13653,16399,-1016,418,-313,175
-13613,16315,-1100,457,189,123
-13837,15951,-804,497,1187,30
-13821,15855,-336,520,1321,-17
-13813,15895,572,283,582,-167
-13621,15927,328,128,306,-192
-13817,15783,372,73,-730,-286
-13665,15863,380,81,-1112,-350
-13565,15987,312,-121,-1529,-298
-13437,16147,132,-175,-1571,-293
-13637,16231,-240,-275,-1159,-357
-13685,16307,-444,-298,-968,-446
-13581,16367,-568,-349,51,-432
-13645,16455,-484,-390,323,-393
-13749,16323,-600,-354,1106,-311
-13777,16255,-200,-303,1121,-337
-13721,16255,-72,-238,907,-340
-13669,16191,-12,-240,748,-327
-13769,16203,-128,-187,455,-273
-13821,16183,-316,-138,313,-325
-13689,16231,-100,4,79,-280
-13641,16203,60,34,-184,-266
-13721,16191,252,61,-1001,-91
-13769,16171,268,89,-1324,-41
-13701,16311,-204,96,-1516,-17
-13697,16363,-488,120,-1311,-18
-13665,16279,-296,102,-761,-6
-13765,16247,-176,35,-458,-10
-13717,16331,-84,-86,-394,-31
-13769,16283,-44,-128,-392,-86
-13837,16295,-52,-126,-463,-149
-13937,16135,-192,-125,-505,-151
-13941,16067,-180,-138,-476,-173
-13941,16151,-80,-149,-553,-181
-14025,16063,-292,-87,-731,-145
-14133,16171,-552,-9,-501,-164
-14105,16327,-124,115,-431,-128
-14025,16311,72,104,-529,-130
-14061,16331,80,121,-736,-101
-14013,16243,-140,93,-666,-108
-14037,16183,-96,94,-329,-172
-14105,16115,-60,70,-211,-154
-14009,16059,232,-86,-246,-246
-13973,16087,284,-155,-330,-287
-13889,16139,-364,-247,-197,-369
-13893,16199,-240,-243,-76,-422
-13913,16275,-240,-259,166,-309
-13869,16187,-176,-189,157,-233
-13761,16103,-80,-172,464,-80
-13877,16067,-272,-146,502,-11
-13781,16095,-196,-132,610,8
-13901,16051,-112,-192,632,-28
-13893,16127,12,-182,490,19
-13837,16095,-44,-186,413,-8
-13853,16127,-68,-306,-13,47
-13821,16395,-268,-200,-432,-44
-13921,16391,-248,-222,-474,-83
-13825,16435,-372,-170,-535,-39
-14009,16347,-352,-65,-751,-58
-14073,16387,-424,-6,-900,-94
-14109,16199,-512,144,-1069,-97
-14161,16255,-496,196,-1134,-98
-14309,16183,-480,301,-1123,-36
-14381,16215,-340,337,-1186,-66
-14285,16163,-80,379,-1230,-91
-14289,16183,-64,397,-1307,-126
-14177,16223,-276,321,-1166,-233
-14221,16227,-144,305,-1001,-268
-14141,16119,208,50,-843,-189
-14169,16171,208,3,-924,-210
-14073,16207,84,-124,-828,-178
-14105,16083,-24,-194,-773,-153
-14061,16207,-140,-307,-510,-173
-14085,16215,-276,-309,-350,-168
-14137,16331,-348,-360,155,-205
-14153,16351,-404,-389,159,-196
-14221,16283,-308,-266,104,-252
-14261,16319,-296,-320,66,-303
-14621,16387,-372,-156,-29,-557
-14521,16431,-640,-77,-179,-589
-14353,16423,-664,413,-209,-457
-14377,16475,-508,485,-303,-369
-14353,16175,-204,720,-589,42
-14369,16111,-212,756,-742,159
-14401,15983,-68,852,-1212,243
-14329,16039,-172,830,-1231,205
-14341,16179,-236,679,-1354,215
-14317,16171,-64,712,-1416,206
-14641,16127,-160,498,-1534,117
-14733,16231,-232,469,-1461,76
-14649,16303,-404,413,-1152,138
-14745,16159,-480,420,-1056,100
-14997,16071,-428,282,-574,-79
-14993,16119,-608,244,-328,-134
-14693,16047,-668,318,385,-150
-14657,15967,-372,295,573,-146
-14633,15991,-84,62,418,-234
-14677,16131,-476,87,486,-256
-14473,16467,-716,135,1013,-359
-14429,16383,-664,133,1088,-324
-14481,16247,-364,45,1066,-333
-14749,16175,-516,50,969,-267
-14677,16291,-552,158,773,-163
-14597,16223,-696,139,740,-115
-14629,15887,-732,236,899,-159
-14641,15979,-768,284,1021,-234
-14597,16099,-660,173,1405,-392
-14681,16099,-524,176,1505,-424
-14469,16159,-364,51,1317,-440
-14513,16263,-484,-69,1273,-491
-14357,16023,-468,-38,1009,-472
-14369,15955,-372,16,962,-276
-14317,16139,-600,12,870,-225
-14257,16391,-1552,248,1047,-43
-14493,15575,-624,-22,1452,-135
-14245,16019,-620,-117,1539,-142
-14449,15963,-528,-161,1485,-243
-14585,16083,-396,-212,1356,-312
-14369,16275,-484,-197,869,-270
-14429,16327,-452,-203,754,-240
-14353,16399,-652,-16,472,-87
-14425,16203,-652,-49,410,17
-14429,16131,-656,43,177,24
-14473,16059,-552,110,82,-23
-14445,16079,-484,140,-118,-18
-14521,16119,-652,215,-229,-26
-14389,16251,-508,419,-320,-85
-14541,16235,-880,387,-244,94
-14577,16187,-536,239,-254,128
-14709,16139,-372,318,-221,184
-14605,16143,-540,319,-124,68
-14557,16171,-664,319,56,104
-14521,16071,-688,248,730,-83
-14553,16063,-764,215,902,-95
-14505,16143,-680,-23,1515,-126
-14413,16135,-580,-61,1573,-128
-14285,16183,-400,-141,1559,-121
-14345,16059,-424,-161,1479,-118
-14233,16123,-616,-224,1331,-136
-14149,16231,-592,-295,1282,-99
-14205,16031,-616,-283,1128,-75
-14217,16303,-436,-295,1023,-4
-14097,16275,-408,-360,373,15
-14021,15923,-260,-272,185,54
-14053,16207,-404,-185,-485,131
-14157,16339,-432,-173,-668,193
-14121,16811,-748,-160,-1116,243
-14189,15903,-716,-133,-1223,280
-14181,16059,-772,211,-959,292
-14149,16023,-664,256,-925,377
-14201,15763,-520,379,-753,375
-14229,15679,-300,433,-676,425
-14273,16011,-120,244,-626,411
-14321,16083,-8,143,-620,444
-14545,16207,-240,-149,-757,466
-14581,16187,-112,-226,-695,475
-14697,16087,-436,-389,-332,237
-14605,16219,-612,-405,-84,153
-14601,15847,-656,-341,526,9
-14629,15715,-448,-194,700,-96
-14365,15855,-600,-354,1257,-371
-14421,15555,-728,50,1271,-566
-13937,15831,-348,-126,1302,-206
-13805,16739,-656,-184,1388,-50
-14113,16255,92,-518,1215,94
-14057,16255,144,-631,943,28
-13809,16475,-324,-775,137,-142
-13625,16583,-460,-867,-32,-106
-13821,16227,-316,-741,-691,-248
-13977,16091,-176,-678,-1121,-276
-14141,16355,-352,-510,-2385,79
-14141,16199,-388,-371,-2753,117
-14277,16231,-644,26,-3488,467
-14301,16299,-688,218,-3477,530
-14313,16375,-592,428,-3423,808
-14445,16355,-516,454,-3442,850
-14369,16191,-444,475,-2698,867
-14325,16195,-356,446,-2374,837
-14425,16183,-316,235,-1300,613
-14449,16371,-240,203,-1061,522
-14733,16267,192,-6,-760,450
-14629,16275,208,-76,-788,429
-14685,16099,148,-243,-999,250
-14633,16215,108,-303,-969,264
-14477,16007,-264,-476,-566,58
-14613,16107,-556,-426,67,-172
-14557,16139,-496,-376,70,-180
-14581,16223,-484,-369,149,-176
-14385,16247,-440,-191,164,-231
-14397,16263,-388,-93,84,-244
-14281,16155,-276,38,-189,-106
-14345,16143,-452,113,-185,-136
-14325,16111,-188,63,-315,-2
-14377,16243,-224,29,-387,-20
-14385,16119,-204,160,-495,-99
-14521,16207,-192,218,-448,-147
-14609,16291,-288,334,92,-112
-14613,16295,-184,335,182,-1
-14553,16219,-304,228,354,30
-14473,16235,-552,5,586,70
-14813,16387,-124,-3,877,-396
-14829,15999,-40,-40,899,-321
-14693,16323,-560,-44,1115,-335
-14629,16247,-588,-151,1470,-375
-14501,16207,-476,-150,2212,-466
-14409,16199,-252,-83,2278,-431
-14465,16235,-164,-52,2155,-459
-14477,16219,-260,-33,2173,-549
-14401,16087,-480,-131,2533,-565
-14581,15943,-504,-57,2559,-710
-14309,16307,-356,-14,2479,-618
-14233,16363,-400,56,2358,-582
-14309,16183,-476,218,2535,-519
-14337,16163,-600,241,2555,-468
-14277,16279,-396,394,2481,-405
-14149,16371,-288,505,2235,-221
-14133,16195,-212,537,1681,-149
-14181,16135,-232,525,1555,-122
-14177,16107,-232,467,1397,-205
-14301,16091,-400,401,1273,-319
-14081,16659,-260,375,951,-275
-14173,16335,-468,343,935,-418
-14149,16263,-248,299,603,-478
-14281,16251,-312,265,107,-621
-14353,16387,-364,409,-402,-625
-14365,16167,-560,440,-482,-660
-14325,16067,-784,644,-166,-723
-14353,15875,-732,708,55,-670
-14357,15859,-484,813,500,-594
-14405,15631,-424,839,597,-594
-14365,15891,-352,769,913,-540
-14277,15843,-92,732,1053,-391
-14337,15707,-304,663,1509,15
-14313,15831,-300,700,1678,121
-14417,15943,-588,654,2160,409
-14477,16059,-612,617,2817,645
-14465,16279,-624,452,3718,749
-14397,16255,-544,333,3948,704
-14585,16319,-668,45,4672,531
-14517,16187,-700,-93,4938,441
-14273,16135,-780,-409,5575,65
-14213,16019,-720,-439,5671,-67
-14053,16019,-552,-568,5354,-257
-14061,15819,-852,-534,5204,-347
-13701,16091,-620,-289,5070,-544
-13637,15979,-384,-213,4830,-593
-13261,15943,-116,-56,3368,-529
-13349,16379,-320,-10,2944,-481
-13237,16231,-596,361,2016,-403
-13045,16623,-652,353,2005,-318
-13329,16043,-336,527,1844,-116
-13353,16467,-208,637,1541,-48
-13465,16739,-220,681,481,99
-13497,16667,-304,633,247,104
-13645,16027,-340,778,-441,-204
-13629,15991,-336,849,-628,-352
-13781,15823,-684,1089,-857,-711
-13733,15695,-776,1087,-668,-810
-13853,15919,-564,1283,-637,-799
-13845,16203,-588,1355,-491,-773
-14153,16271,-728,1521,232,-320
-14289,16199,-924,1577,725,-142
-14633,16323,-468,1586,2502,129
-14821,16355,388,1479,2389,104
-14741,16127,924,744,655,-429
-14873,15923,720,503,243,-709
-14821,15719,-288,-426,412,-1460
-14749,15759,-1132,-268,928,-1725
-14281,14879,-1120,-55,3475,-2028
-14705,16499,-2248,64,3980,-2190
-13693,15919,-832,-109,5245,-2560
-13721,15455,-184,-41,5303,-2512
-12929,15839,836,-464,5248,-2089
-13489,15159,-364,-587,5173,-1961
-13449,16055,-512,-599,4820,-1895
-13245,16203,-812,-631,4369,-1759
-12993,16187,-884,-481,3177,-1604
-12929,16187,-940,-455,2787,-1555
-12833,16207,-1188,-210,2003,-1303
-13029,16527,-1100,-36,1244,-985
-13097,16299,-644,237,-463,-551
-13157,16243,-620,294,-1125,-442
-13233,15967,-840,454,-2200,-187
-13313,15683,-848,552,-2725,84
-13461,15723,-856,608,-3393,412
-13449,15807,-724,621,-3614,502
-13589,15827,-648,616,-3935,662
-13705,15815,-748,550,-4020,1000
-14197,15743,-576,215,-4058,1474
-14313,16019,-736,230,-4077,1580
-14413,15843,-612,227,-3867,1705
-14489,16023,-552,-2,-3544,1724
-14677,16059,-524,-404,-2877,1607
-14725,16055,-656,-533,-2802,1443
-14605,15875,-1044,-777,-2314,1233
-14377,15635,-888,-927,-1595,1072
-14277,15899,-472,-1373,-1389,747
-14165,16083,-668,-1469,-1434,595
-13705,15903,-940,-1700,-1103,495
-13545,15895,-936,-1750,-1000,493
-13321,16223,-496,-1586,-1153,827
-13461,16199,-332,-1586,-1422,943
-13661,16227,-92,-1572,-2843,1167
-13581,16227,-368,-1474,-3212,1216
-13477,16079,-352,-1396,-3956,1358
-13493,15991,-468,-1389,-4172,1294
-13689,16319,-536,-1282,-5182,1168
-13669,16287,-740,-1205,-5509,1173
-13721,16355,-916,-793,-5851,1104
-13749,16215,-696,-652,-5906,1132
-14093,16403,-400,-309,-6315,1246
-14125,16427,-200,-288,-6646,1300
-14433,16151,-168,-34,-8295,1622
-14401,16111,-384,-30,-8296,1570
-14417,16107,-340,9,-8301,1596
-14625,16123,-428,91,-7812,1486
-14697,16163,-500,179,-7664,1483
-14621,16311,-792,153,-6610,1302
-14641,16251,-592,173,-6192,1258
-14489,16155,-632,231,-4517,1015
-14465,16243,-788,230,-3933,950
-14381,16431,-360,101,-2535,953
-14385,16467,-200,33,-2121,1103
-14533,16355,272,10,-1950,1348
-14533,16083,620,-56,-2062,1434
-14489,16623,316,-128,-2487,1575
-14977,16327,288,-10,-2571,862
-14921,15683,-4,-325,-2642,912
-14781,16251,-236,-341,-2426,823
-14809,16039,-504,-257,-1710,704
-14949,15875,-724,-203,-1243,584
-15009,16047,-452,-168,194,264
-14945,16007,-436,-222,536,130
-15005,16207,-28,-456,954,-238
-14985,16231,-136,-506,974,-317
-14921,16219,-280,-705,1510,-530
-14941,16179,-376,-689,1637,-556
-14789,16187,-160,-731,1729,-732
-14765,16163,-160,-788,1704,-800
-14517,16003,44,-859,1388,-915
-14501,16015,-8,-795,1208,-926
-14265,16215,-144,-727,767,-922
-14301,16331,-288,-619,729,-861
-14209,16395,-692,-436,1036,-768
-14177,16515,-724,-390,1284,-690
-14109,16315,-336,-221,1714,-418
-14257,16307,-316,-143,1657,-379
-14225,16227,-200,16,1077,-192
-14145,16211,-56,46,945,-154
-14145,16047,-308,88,739,-21
-14169,16019,-356,106,710,-2
-14137,15991,-480,257,1039,138
-14093,16067,-412,270,1156,183
-14209,16171,204,283,828,332
-14293,16243,136,299,585,374
-14381,16295,-296,280,99,370
-14341,16335,-332,291,169,377
-14341,16255,-216,300,577,312
-14441,16223,-172,242,801,315
-14513,16155,-136,219,750,129
-14373,16143,-288,173,944,45
-14405,16095,-356,89,1574,-136
-14425,16123,-104,2,1834,-197
-14533,16227,304,-189,1507,-237
-14441,16379,380,-199,1331,-297
-14297,16347,296,-247,926,-340
-14265,16547,100,-364,777,-385
-14285,16455,-60,-359,538,-348
-14245,16475,140,-335,563,-341
-14149,16295,28,-255,429,-250
-14117,16255,-48,-215,502,-217
-14033,16275,-8,-190,445,-167
-14025,16295,-8,-168,431,-209
-13977,16363,-248,-188,468,-165
-13989,16295,-436,-73,824,-196
-14041,16311,-312,-7,1455,-180
-14121,16423,-32,31,1451,-201
-14065,16511,116,3,1213,-185
-14001,16515,244,-67,1090,-173
-14153,16547,420,-147,216,-38
-14081,16435,180,-127,-75,11
-14181,16303,24,-10,-557,144
-14221,16283,-96,48,-660,167
-14245,16131,-68,29,-848,191
-14297,16171,-24,50,-955,188
-14253,16215,-340,106,-461,-129
-14213,16247,-376,133,-201,-190
-14273,16243,124,29,-37,-265
-14349,16239,172,-16,-144,-211
-14457,16323,68,36,-659,-187
-14369,16331,-20,94,-700,-177
-14273,16327,224,5,-856,-185
-14309,16387,196,-12,-1014,-219
-14305,16339,40,-13,-1589,-256
-14237,16323,-20,12,-1742,-264
-14241,16207,-304,134,-2061,-214
-14133,16199,-588,324,-1989,-98
-14229,16539,-436,721,-1581,260
-14285,16655,-488,795,-1511,397
-14401,16371,-248,1094,-1470,686
-14501,16035,-12,1214,-1328,874
-14493,15779,-252,1140,-829,762
-14473,15755,-244,1013,-530,672
-14501,15827,-108,687,-29,394
-14505,15887,36,362,262,136
-14341,16015,-12,-99,1015,-175
-14353,16079,0,-246,1203,-236
-14349,16131,-220,-471,1546,-314
-14389,16115,-164,-670,1862,-308
-14341,16079,-240,-812,2009,-124
-14329,15959,-228,-832,2012,-74
-14333,16079,-500,-822,2058,-16
-14301,16215,-512,-795,2122,-39
-14109,16231,-332,-798,1751,-218
-14085,16235,-220,-793,1546,-283
-13989,16371,-320,-667,1057,-362
-13989,16371,-568,-522,813,-260
-13901,16403,-348,-196,312,-36
-13913,16291,-264,-124,96,26
-13881,16343,-180,37,-248,185
-13945,16303,-176,141,-609,328
-14109,16307,56,210,-1118,365
-14165,16295,120,187,-1217,345
-14221,16275,-136,247,-1405,290
-14189,16411,-124,232,-1325,212
