acc_x,acc_y,acc_z,gyro_x,gyro_y,gyro_z
-4121,4995,-6804,-1347,598,659
-4049,4851,-6736,-1477,853,643
-4053,4791,-6184,-2030,2030,532
-3833,4327,-4768,-2580,1022,393
-3797,4307,-4740,-2532,908,399
-3817,4267,-4812,-2508,574,347
-3769,4251,-5548,-2272,-481,144
-3769,4223,-5700,-2197,-503,42
-3725,4347,-6384,-2158,489,-343
-3649,4447,-6292,-2088,941,-552
-3797,4551,-5472,-2236,1914,-1005
-3741,4635,-5248,-2218,1891,-1159
-3973,4307,-4856,-1957,990,-1733
-3961,4275,-4840,-1931,823,-1979
-3873,4475,-5056,-1592,609,-2883
-4101,4543,-5024,-1519,654,-3219
-5169,4347,-4304,-1538,530,-4605
-5665,4191,-3564,-1661,338,-5188
-7437,3759,-2344,-2281,-1699,-7614
-7885,4059,-2192,-2527,-2483,-8486
-9977,5707,-888,-4077,-6037,-11202
-10589,6015,-584,-4776,-7387,-12147
-12665,7603,-128,-7439,-12063,-15787
-13029,8231,-356,-8398,-13434,-17028
-13125,11759,-2316,-11879,-16301,-20822
-12377,13751,-3908,-13076,-15828,-21683
-10249,19471,-11748,-16962,-7366,-22383
-10545,19311,-12488,-17370,-2812,-22429
-11829,20263,-7616,-15944,9467,-23191
-11601,21311,-5180,-15542,10700,-23165
-10041,20463,-2768,-12481,8728,-20343
-9869,20523,-2084,-11179,6856,-18986
-9685,19423,-1128,-8249,451,-14581
-9705,18683,-1136,-7576,-1104,-13347
-10185,17039,-2304,-6219,-3587,-10068
-10477,16747,-2700,-5836,-3729,-9077
-11717,16067,-3028,-4353,-3746,-6338
-12125,15887,-3300,-3849,-3501,-5724
-12777,16247,-2708,-3153,-1819,-4348
-12989,16387,-2268,-3146,-1438,-4101
-13365,16679,-1912,-3019,-756,-3793
-13597,16579,-1992,-3031,-560,-3818
-13625,16415,-1764,-3364,332,-4109
-13669,16183,-1684,-3493,682,-4168
-13881,15639,-1092,-4018,1538,-4257
-14081,15431,-1016,-4053,1493,-4324
-14373,15187,-1076,-4055,1287,-4412
-14457,15135,-1148,-4029,1468,-4366
-14393,15215,-1688,-3842,2892,-4270
-14133,15327,-1588,-3744,3353,-4145
-14453,15627,-1772,-3465,4771,-3819
-14533,15803,-1844,-3305,5043,-3756
-14605,16375,-1700,-2825,6240,-3449
-14685,16647,-1624,-2748,6501,-3346
-14677,17075,-1652,-2263,6476,-2858
-14617,17151,-1620,-2081,6564,-2559
-15281,17651,-2360,-1442,7529,-1398
-15529,18663,-2272,-1372,7878,-1200
-15869,23147,-1956,-1601,7103,-1014
-15777,23875,-2120,-1405,6388,-831
-15361,22679,-2564,-672,5844,-242
-15101,18839,-2116,591,6989,1901
-15429,17251,-1528,921,7050,2670
-16321,14283,576,2291,4285,4233
-16581,14183,1044,2597,2382,4477
-16541,15227,888,3236,-4481,4327
-16261,15623,60,3322,-5914,4128
-15393,16935,-2008,3758,-6882,4061
-15373,17147,-2348,4012,-6272,4125
-15757,16427,-3152,5157,-2879,4421
-15941,16239,-3104,5625,-1647,4479
-16073,15691,-2360,6799,2118,4738
-16145,15327,-1904,7111,2945,4884
-16221,14551,-396,7895,3779,5075
-16241,14367,88,8001,3641,5020
-16301,13963,584,7945,2661,4230
-16225,13987,596,7725,2310,3809
-15929,13755,364,6582,1657,2237
-15889,13631,136,6132,1613,1588
-15309,13707,-88,4465,2247,-447
-15293,13847,48,3733,2636,-1052
-15709,14623,0,1488,3115,-3022
-15593,14823,-72,858,3224,-3628
-15713,15235,-396,-823,3519,-4963
-15693,15575,-472,-1144,3748,-5240
-16085,16967,-520,-1461,4442,-5603
-16193,17259,-616,-1392,4710,-5642
-16645,21899,-324,-1431,5231,-6166
-16593,25235,-116,-1887,5171,-6629
-14961,26575,-1164,-4321,6336,-6535
-14941,23287,-1468,-4841,7320,-5975
-16221,16303,-1164,-4951,8261,-5007
-16325,14659,-1220,-4716,8251,-4558
-17165,12347,-740,-3133,7756,-3709
-17201,12547,-484,-2527,7211,-3600
-17121,13475,-1200,-1296,6677,-3238
-17017,14111,-2380,-124,8034,-2728
-17141,15035,-1728,864,10840,-2309
-17277,14919,-1072,892,11020,-2505
-17257,15071,-152,229,10163,-3186
-16913,14915,-28,-951,8820,-3916
-16869,14211,4,-3252,6700,-4831
-17005,13967,48,-4020,5846,-5195
-16981,14035,-952,-6068,3424,-6529
-16813,14191,-1168,-6579,3110,-6866
-16605,14695,-2016,-7720,3559,-7411
-16557,14847,-2056,-7846,3878,-7480
-16693,14859,-2476,-7726,4653,-7313
-16709,14691,-1604,-7487,4662,-7298
-16205,14695,-1688,-6900,4535,-7120
-16173,14783,-1484,-6723,4450,-6978
-15845,16023,-1840,-6316,3908,-6700
-15729,16571,-2080,-6143,3810,-6557
-15221,19007,-3260,-5175,4709,-5602
-15261,19887,-3628,-4782,5357,-5103
-15413,21583,-4276,-3151,8423,-2694
-15777,21823,-4136,-2521,9495,-1753
-17137,25151,-1676,-1029,10807,1193
-17185,25463,-1476,-911,10471,1377
-17293,26527,-1220,-646,8359,2106
-16429,22695,-3468,1590,5912,3937
-16157,20231,-3956,2653,6733,5008
-17541,17075,-952,5414,8582,7941
-18073,17607,224,5985,7413,8385
-17981,18503,320,7212,1905,9247
-17725,18591,-20,7535,619,9515
-17025,19127,-316,7676,-1629,10039
-17085,19159,-468,7727,-2181,10106
-17201,18519,-1072,8213,-3062,10087
-17121,17519,-1468,9002,-2956,9769
-16745,15679,-1500,9973,-988,9684
-16673,15187,-1484,10349,-258,9806
-16861,14219,-632,11014,997,10031
-16933,13575,304,11525,1292,10056
-16729,12963,1720,11285,284,9497
-16673,12763,1900,10863,-405,9100
-16521,12051,1956,9982,-2121,8070
-16377,11767,1700,8965,-3629,6827
-16333,12543,688,7504,-4747,4360
-16161,12911,360,6865,-4498,3512
-16045,13903,-344,4452,-2679,1328
-16073,14099,-616,3782,-1916,729
-16441,14783,-732,1993,722,-1035
-16553,15303,-472,1398,1445,-1626
-16621,18223,768,-1397,2352,-3990
-16737,19019,980,-2623,2112,-4830
-16545,18595,640,-6080,1097,-7462
-16717,18659,500,-7087,781,-8337
-17241,19715,-328,-9525,-525,-11200
-17097,20147,-764,-9952,-661,-11970
-15633,24207,-236,-11853,1569,-12929
-15901,26199,672,-13121,2050,-13134
-17165,24667,-1560,-15647,435,-13769
-16653,22287,-3532,-15143,1146,-13687
-15341,18699,-4860,-12910,5478,-12559
-15589,17519,-3036,-11098,9708,-10898
-16989,16299,-1496,-8430,11058,-9288
-17041,15559,-1916,-7237,11064,-8862
-16269,14367,-2616,-4766,12498,-7655
-15921,13071,-1744,-3088,14825,-6202
-16129,11203,640,-1255,14391,-5024
-16077,10711,940,-1007,13451,-5023
-15841,10447,992,-375,10342,-5230
-15661,10655,760,-386,9477,-5420
-15389,11131,944,-983,6953,-6177
-15329,11355,920,-1268,6174,-6443
-15549,13171,-500,-2066,4411,-7212
-15473,13955,-972,-2282,4448,-7392
-15165,16703,-2636,-2862,7129,-7197
-15017,17267,-2880,-2927,8607,-6832
-15845,18235,-2152,-2997,12334,-5071
-16153,18251,-1808,-2869,12745,-4510
-16365,17363,-1044,-2431,12810,-3370
-16549,16059,-316,-2013,12099,-2302
-16757,14895,376,-1748,9028,-1106
-16645,14531,336,-1686,7822,-876
-16721,13923,-116,-1599,5857,-495
-16709,14031,-904,-1570,4447,-554
-17061,14799,-1772,-1703,3067,-949
-17061,14815,-1988,-1784,2882,-1162
-17089,15391,-3000,-1853,3339,-1358
-17365,15783,-3500,-1687,3850,-1310
-17649,18027,-4160,-519,6678,-563
-17813,18571,-4176,-51,7733,-120
-18305,20907,-2536,922,10364,1491
-18729,22639,-2024,868,10156,1707
-18553,26591,-2656,1184,9113,2831
-18513,27063,-2744,1463,9378,3208
-18233,22687,-1548,1803,10271,4592
-18445,20667,-1108,1719,9930,4793
-18453,15595,-992,1967,7693,5301
-18593,14731,-724,2107,6759,5500
-18789,14219,-52,2349,2615,5450
-18617,14219,64,2336,1251,5284
-18333,14411,-632,2235,-849,4707
-17905,14823,-1872,2196,-1250,4189
-17593,14499,-2796,2643,886,3857
-17493,13975,-2840,2854,1843,3847
-17465,13003,-1788,3113,3567,3762
-17265,12083,-512,3065,4015,3481
-16661,11955,916,2431,2437,2413
-16521,11987,1176,2183,1505,2028
-16105,12959,1544,921,-1648,517
-16005,13591,1384,541,-2687,-10
-15505,14731,-4,407,-4438,-1275
-15301,14303,-88,499,-4207,-1282
-15393,13851,432,486,-3317,-1087
-15573,13819,412,478,-3352,-1119
-15629,15663,-80,767,-3289,-1411
-15429,16255,-348,882,-3046,-1359
-15317,16571,84,864,-1923,-1056
-15369,16647,132,822,-1676,-1060
-15545,18195,-464,897,-692,-1344
-15509,18527,-640,870,-240,-1343
-15825,18219,16,570,947,-1380
-15997,18147,100,352,913,-1444
-16573,18755,-384,-85,347,-1887
-16905,19127,-712,-93,281,-1991
-17469,19071,-1008,212,-265,-2234
-17565,20239,-984,509,-919,-2770
-16497,25183,128,-1500,-1295,-3243
-16681,25243,92,-2616,-1656,-3208
-17689,22447,-1916,-4277,-2952,-3471
-17377,19015,-5068,-3798,-1781,-3321
-17449,15331,-5428,-1030,4836,-994
-18029,14671,-4712,-71,6630,-303
-19081,15123,-2112,1857,9027,719
-18985,15295,-1820,2085,9099,835
-18017,14439,-1032,2285,7709,788
-17761,13867,-788,2118,6861,627
-17513,11743,-480,1358,3705,-101
-17341,11167,-640,1060,2802,-428
-17317,10207,-708,-229,866,-1106
-17389,9963,-672,-635,149,-1358
-17537,10563,-1372,-1131,-2029,-1902
-17373,10735,-1676,-1101,-2347,-1980
-17049,11183,-2524,-953,-1459,-2059
-16853,13003,-1964,-411,33,-2085
-16873,13027,-2008,-430,75,-2085
-16897,13027,-1816,-455,93,-2096
-16693,13939,-1300,-803,-545,-2362
-16513,14643,-1204,-853,-855,-2458
-16365,16663,-1156,-1361,-1700,-2578
-16457,17095,-1112,-1590,-1881,-2596
-16469,16919,-2012,-1982,-1961,-2336
-16433,16419,-2316,-1923,-1595,-2187
-16677,15295,-2492,-1071,-196,-1331
-16909,15095,-2256,-673,-18,-1016
-17205,14271,-1196,-128,-105,-522
-17069,14163,-1084,-69,-565,-562
-17049,14655,-1200,-233,-2029,-968
-17005,15203,-1452,-409,-2406,-1246
-16773,15623,-2552,-848,-2457,-1768
-16869,15667,-2800,-873,-1927,-1689
-18057,16179,-2484,-930,-1389,-1320
-18105,16399,-2504,-959,-1382,-1294
-17625,18443,-2392,-1609,-1078,-1253
-17593,19951,-2252,-1929,-1384,-1279
-18637,25839,-3600,-2513,-3304,-1430
-18221,27079,-4608,-2041,-3200,-1167
-17597,22959,-5540,913,3150,1869
-18273,20887,-4416,1765,5071,2785
-19381,17399,-1472,2898,6473,4780
-19353,16463,-1192,3256,5811,5296
-18549,15367,296,3828,2472,6345
-18329,15155,664,3667,1061,6528
-17805,14967,860,2688,-3689,6304
-17605,14967,764,2244,-5034,6007
-17317,14199,-664,854,-7484,4897
-17221,14107,-1488,553,-7429,4516
-16789,13031,-2108,181,-5635,3563
-16605,12463,-1984,134,-4733,3366
-16221,12367,-876,136,-2601,2943
-16253,12667,-464,158,-2470,2872
-16241,13755,524,554,-3557,2899
-16253,13903,768,650,-3957,2914
-15837,13283,952,614,-5397,3142
-15713,12943,1136,553,-5840,3335
-15829,13295,1508,52,-7700,3593
-16093,13563,1668,-152,-8439,3580
-16141,13939,1672,-1120,-10878,3037
-16109,14243,1608,-1597,-11568,2686
-15741,15075,400,-2993,-13032,1406
-15705,15467,-28,-3345,-12997,954
-15737,16611,-1160,-4168,-11524,-155
-15617,16735,-1340,-4318,-10761,-396
-15881,17931,-788,-4189,-8679,-890
-16113,18891,-624,-4029,-8406,-929
-16341,21183,-348,-3446,-8417,-745
-16753,21283,-240,-3165,-8711,-474
-17957,20347,-480,-1108,-11004,577
-18249,20927,-484,-474,-11741,690
-18105,24899,-648,112,-13269,870
-18117,25591,-688,-216,-13621,896
-18777,22707,-2336,-962,-15509,521
-18769,20639,-3460,-648,-15377,500
-18417,16147,-4816,1994,-11273,1069
-18317,15207,-4576,3021,-9250,1579
-19149,15067,-1888,5807,-4240,3064
-19325,15483,-840,6309,-3646,3410
-19433,15231,784,6913,-3488,3757
-19289,14839,1004,6925,-3754,3689
-18785,13439,1372,6678,-4174,3509
-18897,13215,1472,6522,-4360,3437
-19221,12379,1724,5874,-4351,3027
-19257,12147,1748,5565,-4210,2877
-19241,11903,1704,4590,-3734,2242
-19205,11999,1584,4332,-3578,2036
-18985,12339,1884,3285,-2917,1417
-18905,12527,1756,2876,-2721,1271
-18753,13255,1836,1757,-2760,750
-18689,13563,1736,1406,-2747,639
-18121,14671,1168,349,-2773,435
-18021,14763,1032,84,-2783,489
-17937,14651,808,-913,-2768,680
-17949,14535,600,-1362,-2885,663
-17737,14335,148,-2919,-3053,392
-17693,14231,-128,-3423,-3148,263
-17893,13951,-724,-5193,-3181,-297
-18073,14055,-920,-5787,-3241,-478
-18557,14039,-2012,-7128,-3531,-1434
-18501,14287,-2364,-7479,-3483,-1824
-18469,14947,-2608,-8176,-2991,-2547
-18409,15699,-3020,-8868,-2343,-3175
-18433,17211,-3412,-9167,-1138,-3588
-18505,17883,-3452,-9112,-775,-3590
-18397,18607,-3404,-8720,-153,-3319
-18105,19731,-2928,-8008,180,-2611
-18749,23935,-744,-7527,-2104,-1338
-19217,25211,-484,-7296,-3887,-1162
-17549,23931,-4040,-3704,-6827,268
-16893,22439,-4408,-2122,-5626,1308
-17109,19155,-2368,2427,-1822,4319
-17337,18391,-1636,3635,-1393,4999
-17061,17251,544,6331,-2586,6239
-16729,17379,1144,6777,-3588,6388
-16085,17267,1916,6909,-6030,6434
-15677,17127,1640,6780,-8697,6179
-15077,16683,12,7254,-11174,5746
-14937,16535,-272,7400,-11046,5673
-14981,16355,-616,7785,-10054,5704
-15173,15931,-524,8386,-8740,5728
-14637,15315,-296,9665,-6454,6037
-14569,14983,88,10011,-5892,6260
-14633,14671,1188,10685,-5468,6852
-14901,14643,1848,10953,-5948,7138
-14805,14747,2160,10940,-7556,7231
-14889,14643,2180,10798,-7878,7147
-14849,14651,1736,10521,-8325,6770
-14713,14823,1572,9829,-8110,6414
-14961,14899,1524,8377,-7731,5682
-15045,14923,1436,7904,-7661,5321
-15085,15431,1100,6369,-7456,4312
-15085,15467,856,5845,-7164,4084
-15409,15759,724,4136,-6255,3371
-15813,15927,388,2375,-5223,2904
-15877,15983,536,2271,-5136,2907
-16013,16071,392,2084,-4921,2925
-16809,17063,704,1411,-4785,3172
-17181,17647,932,1170,-5132,3191
-17829,18703,712,-222,-6752,2732
-18001,18995,304,-779,-7152,2457
-18857,20803,-1684,-1682,-7182,896
-18589,21995,-1864,-2111,-6617,263
-17725,23151,-1844,-5378,-2328,-907
-18213,22819,-1612,-6820,-1330,-1591
-18541,20959,-2552,-9302,-646,-3213
-17893,18943,-4060,-10469,1637,-4352
-17641,15811,-3412,-10843,7342,-4563
-17821,15071,-2776,-10718,8686,-4490
-18549,14763,-1760,-9724,10056,-4563
-18685,14923,-1464,-7988,10242,-4834
-17405,14643,-128,-6739,11103,-4647
-17413,14259,156,-6703,11014,-4553
-16957,13327,584,-6091,8709,-4342
-16865,13003,416,-5908,7994,-4236
-16513,11943,300,-5714,6603,-3854
-16477,11707,204,-5648,6278,-3815
-16321,11555,-216,-5366,5528,-3957
-16221,11851,-312,-5306,5473,-4076
-15921,12915,-284,-5551,5653,-4225
-15937,13063,-252,-5728,5678,-4239
-16157,14587,-344,-6264,5104,-4605
-16073,15119,-284,-6481,4887,-4690
-15993,16359,-528,-7084,4610,-4820
-16157,17211,-800,-7557,4215,-4800
-16317,17639,-1488,-7412,3951,-4372
-16369,17679,-1800,-7119,3980,-3998
-16593,17239,-1860,-6314,4277,-3150
-16773,16331,-1536,-5215,4032,-2216
-17373,14891,-1016,-3630,2443,-1112
-17453,14603,-1008,-3237,1855,-993
-17249,14479,-1372,-2495,379,-902
-17033,14795,-1804,-1911,-560,-893
-16789,15587,-2260,-1143,-679,-924
-16785,16083,-2364,-836,-289,-951
-16673,17691,-2144,-425,345,-759
-16725,18691,-1912,-280,471,-569
-16601,19715,-2416,584,986,526
-16673,20515,-2164,954,1272,1016
-17285,24543,-500,1751,-801,2425
-17593,25335,-72,2074,-2196,2660
-16373,26635,-2320,4243,-4880,3579
-15773,25591,-3040,5098,-3906,4437
-16341,21023,-2020,7852,266,7264
-16657,19495,-1336,8634,836,7917
-16873,17183,288,10316,161,9086
-16793,17315,700,10608,-602,9157
-16161,17671,936,11209,-3469,8911
-15869,17627,712,11335,-4039,8745
-15581,16963,-468,11881,-4159,8257
-15633,16711,-632,12090,-3669,8110
-16145,16039,-1076,12881,-1259,7851
-16257,15931,-1176,13081,-435,7771
-16165,15675,-744,13647,1967,7568
-16093,15487,-380,13754,2578,7576
-16361,15055,544,13888,3415,7587
-16409,14983,1028,13764,3322,7585
-16505,14367,2100,12686,1551,7303
-16485,13959,2292,12159,779,7151
-16521,12323,2540,10098,-1969,6380
-16653,11851,2504,9270,-2926,5938
-16777,11327,1996,6553,-5543,3955
-16705,11347,1616,5607,-6092,3138
-16305,11295,864,2011,-6477,527
-16381,11419,848,736,-6442,-393
-16713,13707,-252,-2844,-6123,-3763
-16665,14555,-772,-3777,-5668,-4847
-16429,16683,-1564,-6731,-2537,-7751
-16373,17359,-1560,-7637,-1125,-8532
-16837,19855,-864,-10296,2109,-10713
-17249,20335,-932,-10921,2706,-11444
-16773,21771,-1956,-11361,5457,-13298
-16213,23399,-1652,-11605,7152,-13752
-16097,26859,956,-15151,10880,-14792
-16389,27419,872,-16271,10689,-15246
-15561,24299,-2916,-16703,11721,-15140
-15081,22291,-3628,-16044,13723,-14327
-16109,17611,-2856,-13181,20427,-10718
-16773,17207,-1848,-12132,21410,-9855
-17849,17071,400,-8992,20832,-8204
-17629,16703,760,-8170,19957,-7993
-15973,15155,1336,-7006,17502,-7616
-15541,14239,1276,-6825,16702,-7706
-14589,11851,788,-6199,14250,-8273
-14421,11227,400,-5965,13773,-8447
-14425,9855,-1100,-5112,14811,-8851
-14461,9655,-1152,-4872,15824,-8920
-15061,9891,-380,-4234,18791,-9212
-15145,10375,-52,-4127,19210,-9453
-14801,12479,1032,-4537,19455,-10292
-14537,13211,1312,-4832,19193,-10505
-14033,16503,1988,-6344,17760,-11147
-13829,17415,1656,-6882,17235,-11269
-13057,19139,8,-8106,17404,-10663
-12869,19303,-400,-8254,18067,-10071
-13725,18871,-1012,-7965,20483,-7141
-14173,18359,-1260,-7486,21058,-6192
-15705,17227,-880,-6210,22838,-3477
-16345,16915,-276,-5845,22633,-2763
-16769,17579,468,-4757,19530,-1135
-16781,18435,228,-4289,18372,-676
-17213,20191,-1124,-3344,16271,509
-17209,20907,-1248,-3290,16050,712
-17957,26527,-1092,-3861,13806,966
-18257,27271,-1504,-4161,12776,1170
-18381,22031,-4728,-3385,12505,2492
-18377,20091,-4732,-2734,13563,3176
-19973,17035,-2016,-910,14229,4284
-20301,16883,-1124,-591,13064,4395
-20349,17815,-892,-292,7525,4716
-20177,17651,-1428,-323,6108,4819
-19793,14663,-4072,591,4959,5221
-19805,14527,-4012,794,5106,5184
-19517,13875,-4204,1456,5991,5048
-18677,12799,-3096,2587,8473,4585
-18433,12839,-2800,2872,9037,4392
-18317,13199,-2840,4581,10076,3508
-17717,13259,-3408,5308,10680,3367
-16141,13575,-4156,8238,14380,4125
-16025,13899,-3524,9008,15505,4560
-16141,15035,-1004,9488,16084,5231
-15929,14983,-916,9625,15130,5312
-15145,14791,-556,10333,11804,5107
-14877,14703,-328,10346,10796,5016
-14273,14471,-596,9909,8682,4662
-13977,14655,-1272,10040,8145,4503
-13689,15339,-1708,10252,8403,4391
-13701,15463,-1188,9910,8526,4245
-13717,14755,-372,8543,7268,3350
-13733,14535,-364,8246,6589,2928
-13505,13819,-436,6971,4665,1348
-13425,13543,-660,6562,4363,971
-13457,12603,-832,5170,3868,-545
-13509,12375,-692,4772,3630,-1024
-13421,11819,-1176,3730,3152,-2405
-13537,11779,-1240,3465,3064,-2776
-14325,13591,-524,2651,1370,-4376
-14673,14679,-212,2254,357,-5059
-14073,22715,-116,-927,-2525,-8565
