acc_x,acc_y,acc_z,gyro_x,gyro_y,gyro_z
-503,5374,2071,38,457,-105
-507,5426,2079,55,467,-130
-443,5446,2239,-56,316,-79
-491,5466,2527,-76,267,-111
-471,5282,2047,0,70,-48
-559,5270,1963,-3,64,-55
-499,5298,1975,-12,81,-56
-543,5398,2071,2,56,-42
-507,5366,2051,-28,25,-35
-499,5418,1987,-22,-76,18
-523,5298,1719,-23,9,41
-491,5286,1895,89,121,-17
-487,5410,1783,43,185,-56
-423,5398,2147,-21,129,-41
-435,5382,2279,-7,98,13
-535,5262,2035,21,-49,26
-483,5386,2019,77,-57,33
-475,5386,1967,56,49,16
-423,5310,2103,57,86,2
-507,5354,2219,-14,-27,21
-443,5350,2079,27,-27,37
-515,5346,1971,18,-40,31
-407,5414,1987,36,-23,42
-483,5422,2143,-23,71,-9
-579,5422,2223,-10,64,-6
-447,5350,2211,-38,-4,-8
-471,5398,2119,12,19,0
-487,5370,2027,30,-25,-14
-455,5366,2043,32,-40,-4
-515,5246,2155,-49,-137,36
-495,5294,1927,-16,-125,-2
-479,5338,1947,50,-74,18
-523,5318,1883,58,-17,-5
-495,5314,2131,11,51,-40
-383,5254,2131,52,27,-57
-435,5270,1899,12,17,-46
-559,5358,1891,45,35,-63
-531,5414,1955,51,124,-77
-471,5334,2091,46,105,-78
-475,5402,2175,36,103,-35
-475,5442,2027,37,66,-60
-519,5434,2111,10,50,-54
-539,5450,2067,6,61,-52
-515,5406,2199,11,-10,-42
-491,5486,2111,-13,-13,-31
-435,5450,2143,-78,-119,-85
-443,5474,2115,-51,-164,-75
-623,5426,2055,-21,-171,13
-587,5362,2035,-34,-115,26
-503,5434,2187,-73,-162,112
-495,5398,2119,-94,-188,132
-435,5242,1883,-84,-304,210
-499,5222,1687,17,-335,151
-447,5134,1727,88,-15,88
-499,5286,1715,101,51,48
-431,5418,2051,29,121,-38
-491,5526,2159,-5,102,12
-487,5318,1963,29,-78,23
-511,5394,1807,46,-94,-12
-479,5314,1935,73,59,-13
-491,5314,1903,68,86,-22
-559,5394,2139,-71,-17,26
-567,5394,2047,-63,-76,47
-527,5422,1799,-43,-7,18
-447,5426,1923,-16,109,17
-491,5398,2103,2,269,-20
-471,5346,2123,-14,234,-16
-395,5378,2227,-75,3,-29
-423,5406,2159,-87,8,-49
-459,5338,1895,-12,-46,-28
-523,5354,2019,10,21,-41
-603,5474,1899,67,97,-22
-567,5414,2015,32,43,-24
-467,5326,1931,-25,-22,38
-431,5314,2003,-31,-54,74
-511,5222,1883,36,97,2
-447,5218,1847,24,153,-33
-419,5366,2151,-49,167,-1
-443,5366,2287,-119,77,18
-543,5338,2203,-166,-221,119
-479,5310,2135,-146,-286,163
-583,5254,2087,-112,-231,237
-643,5146,1971,-32,-192,243
-415,4998,1451,-6,-91,32
-179,5070,1471,-15,80,-71
-207,5562,1835,-225,478,-210
-415,5534,2171,-133,428,-215
-955,5662,2487,157,64,-113
-891,5654,2363,160,-36,-16
-463,5438,2259,81,-232,127
-315,5254,2311,59,-293,142
-351,5098,1891,153,-154,70
-359,5046,1775,155,-73,-29
-615,5442,1935,24,58,-35
-643,5542,1975,45,56,-2
-695,5650,1959,97,49,153
-607,5574,2055,133,168,147
-171,5414,2063,27,380,110
-411,5386,2255,105,280,92
-451,5382,2763,-77,8,66
-435,5254,2647,-163,-191,55
-519,5178,2303,-239,-670,-9
-427,5226,2063,-220,-632,-23
-399,5298,1331,-202,-324,-39
-559,5310,1327,-173,-153,-62
-663,5482,1511,-137,172,-94
-607,5458,1619,-123,261,-55
-511,5346,1759,-44,428,27
-559,5330,1839,-11,459,28
-347,5154,2099,-71,332,0
-327,5230,2155,-96,293,14
-383,5218,2347,-80,149,-54
-427,5214,2055,-37,141,-43
-587,5246,2171,112,125,-47
-523,5330,2199,57,164,-34
-407,5334,2279,-10,38,22
-431,5254,2203,-9,-37,-5
-419,5230,1943,84,13,-47
-487,5262,1967,115,96,-55
-559,5402,2195,91,143,-21
-539,5498,2203,31,55,27
-479,5534,1995,182,17,109
-515,5514,1967,180,98,95
-431,5334,2027,141,179,72
-427,5334,2019,96,233,41
-447,5338,2203,-61,-34,101
-491,5322,2147,-65,-98,160
-547,5310,2191,44,-155,170
-459,5422,2119,91,-123,208
-415,5330,2239,11,-225,197
-447,5362,2227,19,-298,238
-487,5214,2087,160,-422,208
-499,5206,1955,149,-341,185
-435,5214,1999,40,-169,71
-411,5178,1931,0,-130,88
-391,5150,1863,88,-54,-15
-403,5194,1787,100,59,-38
-483,5378,1959,111,295,-123
-459,5386,2039,99,243,-115
-595,5350,2267,75,90,-2
-511,5366,2371,75,14,-15
-479,5162,2119,28,-221,32
-347,5182,2047,-23,-174,46
-375,5174,1947,-10,-35,82
-459,5206,1983,14,10,53
-471,5362,2087,9,-48,22
-359,5390,1939,-34,-82,45
-399,5266,2303,-37,-94,138
-475,5318,2051,-65,-221,208
-651,5122,1795,86,-459,331
-515,5042,1607,93,-293,234
-219,5326,1619,35,300,98
-211,5314,1739,52,447,86
-599,5238,2383,99,425,156
-579,5190,2491,89,327,181
-399,5062,2967,-33,-305,351
-483,5090,1867,-79,-899,215
-487,5058,1775,-18,-870,193
-499,5082,1619,-84,-756,134
-587,5250,1391,-68,-352,109
-643,5350,1419,-56,-197,69
-515,5266,1447,-64,361,-68
-427,5150,1687,-84,443,-48
-311,5138,1963,-104,572,-100
-307,5142,2139,-157,470,-51
-339,5058,2383,-191,-42,-28
-343,5110,2235,-182,-169,-67
-399,5042,1903,11,-235,-93
-499,5146,1851,87,-86,-150
-551,5222,1783,79,201,-132
-491,5286,1943,35,242,-150
-355,5186,1895,8,229,-123
-367,5162,2023,-39,234,-109
-463,5174,2115,-66,173,-103
-483,5186,2211,-55,109,-84
-499,5158,2071,-39,-31,-27
-467,5262,1903,6,-3,-32
-447,5290,1895,29,37,-29
-475,5338,1935,16,64,-26
-451,5218,2211,-113,-108,11
-415,5286,2087,-107,-166,8
-375,5130,1811,46,-58,-10
-375,5118,1715,124,27,-37
-487,5270,2187,23,315,-62
-471,5238,2271,-35,278,-43
-471,5230,2359,-69,-67,1
-383,5250,2175,-48,-122,18
-427,5202,1991,-38,6,-48
-451,5262,1947,18,-41,-14
-571,5318,2091,-28,-27,-21
-471,5330,2223,-38,-11,18
-391,5334,2079,-47,-147,85
-387,5306,2031,-139,-163,53
-363,5130,1947,-137,-178,99
-447,5182,1907,-79,-163,102
-523,5078,1819,75,-13,48
-467,5094,1831,71,101,-5
-439,5190,2047,-61,314,-106
-363,5146,2063,-88,347,-144
-419,5190,2131,-12,333,-133
-519,5342,2207,7,291,-106
-559,5246,2051,114,301,-92
-579,5222,2123,75,346,-120
-251,5302,2059,-41,358,-194
-215,5134,2399,-155,245,-171
-479,5202,2155,-116,-47,-168
-727,5210,2135,-70,-105,-165
-855,5434,2171,-172,43,75
-663,5542,2199,-208,0,56
5,5542,2359,-87,-156,-167
205,5454,2211,-25,-123,-167
-627,5286,2447,148,-132,132
-987,5338,2515,188,-296,260
-1059,5342,2279,113,-574,379
-507,5474,1983,6,-580,242
121,5190,1571,-88,-396,83
29,5030,1611,-1,-353,30
-823,5058,1635,36,-33,-148
-807,5138,1663,8,47,-138
-491,5302,1947,-163,252,-98
-379,5382,2163,-153,210,-15
-411,5350,2047,-83,-35,110
-403,5278,2007,-67,-133,74
-383,5178,2027,-81,-119,14
-339,5146,1975,-160,-47,-52
-387,5254,2075,-119,-61,-55
-511,5354,2283,-84,-107,-27
-507,5306,2027,-123,-170,-46
-523,5278,1955,-119,-262,-33
-519,5194,1719,59,-35,0
-507,5198,1655,101,168,-68
-411,5282,2075,60,579,-207
-395,5382,2199,-39,515,-237
-471,5286,2291,4,-42,-76
-531,5306,2331,108,-158,-36
-511,5334,1947,56,5,-36
-467,5414,2043,46,37,-45
-379,5354,2087,3,37,-112
-347,5326,2295,29,-35,-94
-491,5354,2071,24,-76,-57
-615,5394,2147,16,-91,-58
-543,5498,2215,-111,-183,-28
-503,5494,2223,20,-372,35
-331,5138,1759,240,-263,-59
-323,5158,1703,275,-112,-75
-503,5226,2303,53,191,-65
-475,5218,2287,-56,101,-71
-443,5426,2015,-77,-398,-142
-555,5386,1883,-60,-411,-150
-519,5154,1463,17,100,-98
-599,5182,1591,15,291,-114
-555,5314,1899,26,415,-74
-435,5394,2103,0,321,-63
-427,5434,2159,-92,58,5
-375,5358,2099,-131,-1,42
-635,5294,1915,-82,-143,110
-615,5302,1871,-63,-214,105
-359,5198,1727,86,178,29
-355,5222,1703,53,275,83
-395,5218,2039,-52,297,64
-395,5262,2019,-76,276,63
-475,5474,2111,-92,145,-67
-531,5414,2139,6,38,67
-535,5374,2143,155,280,-24
-423,5402,2111,165,300,-83
-335,5354,2363,-8,71,-133
-255,5322,2367,5,-60,-123
-583,5518,2119,47,-160,4
-759,5574,2083,31,-157,40
-799,5518,1995,15,-91,148
-615,5478,1931,-61,-12,115
-267,5282,1843,-104,0,7
-131,5246,1915,-96,6,-41
-571,5118,2199,-12,242,-70
-683,5142,2231,-22,349,-114
-575,5222,2351,-101,428,-166
-419,5422,2515,-164,186,-103
-323,5234,2291,-119,-412,90
-431,5322,2051,-103,-455,92
-531,5242,1703,65,-94,-12
-611,5330,1775,82,42,33
-523,5214,2115,65,202,-20
-419,5290,1955,42,111,-19
-319,5362,1971,-139,-143,15
-315,5314,1843,-74,-167,2
-547,5330,1715,65,-5,-7
-655,5426,1883,219,302,-118
-643,5594,2483,234,333,59
-655,5558,2563,175,181,134
-323,5278,2479,-83,-300,159
-263,5278,2279,-137,-324,107
-223,5034,1847,-41,-126,4
-319,5126,1831,28,-69,-27
-611,5266,2015,31,212,-128
-611,5346,2095,-26,194,-146
-535,5362,2275,-100,-41,-2
-571,5402,2111,-44,-133,70
-547,5334,1947,-11,-138,91
-399,5410,1815,-60,-87,55
-275,5258,1767,-46,143,-43
-367,5230,2099,3,292,-169
-675,5490,2383,161,202,-22
-767,5526,2503,142,79,44
-463,5418,2323,-65,-281,116
-311,5330,2215,-161,-365,110
-243,5114,1695,-186,-145,-72
-275,5094,1711,-150,12,-86
-815,5274,1819,-105,120,17
-807,5382,2011,28,56,145
-475,5410,1867,87,50,294
-419,5314,1855,57,48,308
-127,5262,1895,-68,97,185
-171,5046,2083,-11,375,-78
-267,5038,2199,-4,409,-148
-515,5506,2447,95,240,-148
-607,5518,2623,172,38,-84
-675,5650,2539,164,-298,150
-555,5642,2499,83,-422,188
-395,5566,2167,-34,-474,112
-307,5294,2071,-73,-456,3
-463,5042,1759,39,-163,-36
-571,5066,1763,-1,-113,-51
-531,5322,1923,-215,-44,-61
-519,5326,1823,-221,-91,-46
-367,5246,1567,-35,258,-125
-467,5318,1647,60,393,-133
-711,5274,2163,135,678,-169
-591,5254,2439,52,586,-156
121,5606,2955,-480,-174,-148
225,5662,2911,-544,-555,-7
-379,5238,2195,-32,-1329,132
-787,5078,1971,235,-1215,23
-1339,4906,1375,571,-584,-261
-967,5118,1583,585,194,-269
-279,5754,1947,146,238,169
-351,5802,1947,9,21,294
-607,5662,1575,-171,-401,479
-727,5630,1371,-127,-222,444
-423,5454,1775,400,649,-105
-455,5414,1983,444,849,-236
-515,5086,3187,533,522,-96
-431,5134,3319,433,234,64
-319,5290,2963,-202,-766,512
-295,5442,2371,-255,-1004,550
-539,5278,1175,-40,-879,511
-451,5246,831,9,-561,411
-491,5178,1019,4,330,40
-243,5262,1763,-177,532,-205
-347,5058,2083,-88,25,-164
-495,4906,2091,37,-116,-105
-895,4986,1935,42,187,-63
-695,5094,1939,-32,324,-142
-163,5350,2335,-227,251,-81
-159,5422,2311,-174,82,-98
-547,5254,1751,-116,-530,230
-723,5194,1471,-93,-453,335
-823,5466,1755,-119,206,344
-639,5518,2071,-111,271,311
-179,5274,2551,120,74,151
-111,5222,2539,173,-116,133
-215,4934,2263,198,-369,145
-659,4790,2027,140,-459,63
-599,4890,1579,172,-297,95
-527,5082,1575,157,-297,73
-255,5234,983,101,-129,44
-291,5194,1263,145,252,30
-535,5434,2311,149,588,-79
-595,5498,2495,159,493,-74
-431,5530,2735,173,58,7
-407,5490,2551,239,-160,64
-555,5182,1867,170,-343,203
-503,5142,1895,62,-280,220
-455,5206,1711,-113,-280,48
-335,5234,1603,-174,-271,-14
-267,5170,1575,-158,-182,-167
-463,5174,1579,-144,26,-287
-607,4922,1715,-187,594,-434
-475,4970,1843,-162,663,-503
-263,5138,2263,-301,665,-370
-415,5206,2511,-308,369,-137
-711,5270,2135,-69,-270,44
-707,5274,2043,17,-329,12
-419,5290,1643,-1,0,31
-411,5174,1683,-3,167,26
-359,5082,1743,4,373,-66
-351,5106,1987,-20,394,-95
-387,5222,2175,-29,274,-135
-363,5338,2351,-21,177,-103
-543,5342,2267,34,-102,-40
-571,5490,2059,79,-122,-1
-419,5414,1931,114,31,107
-407,5466,1927,119,67,129
-531,5314,2155,89,-221,252
-431,5218,2151,61,-320,227
-271,5018,1871,20,-290,104
-263,5102,1623,-14,-249,91
-531,5086,1647,-22,116,-132
-563,5202,1735,31,116,-169
-639,5362,1847,81,324,-198
-647,5514,2135,73,241,-111
-427,5318,2083,42,140,5
-355,5270,2063,-41,210,22
-307,5326,2095,-54,281,50
-383,5290,2447,-30,190,24
-439,5234,2335,-14,-212,90
-443,5234,2203,-44,-284,64
-395,5190,1919,-66,-278,15
-411,5178,1971,-37,-228,-2
-463,5278,1771,32,-119,-15
-527,5254,1787,40,-61,-47
-515,5262,1935,35,180,-29
-515,5162,1959,7,188,-66
-355,5186,2119,-22,133,-27
-251,5202,2219,-13,79,-128
-591,5222,2091,13,139,-32
-679,5238,2179,-25,126,27
-515,5490,2251,-141,-167,199
-407,5462,2347,-107,-318,195
-343,5258,2035,-25,-318,182
-327,5078,1995,45,-257,119
-399,5118,1987,71,-79,10
-443,5094,1911,62,-55,-34
-419,5226,2039,-2,-40,-61
-479,5314,2087,-45,-73,-19
-691,5254,1703,-83,-35,35
-571,5266,1683,-98,57,24
-511,5226,1675,82,285,-36
-327,5302,1831,109,384,-57
-379,5310,2275,31,390,-98
-375,5310,2511,12,242,-36
-463,5294,2483,-6,-195,52
-483,5274,2287,-53,-312,54
-311,5158,1967,17,-352,69
-467,5154,1971,43,-296,59
-539,5154,1899,14,-76,82
-487,5154,1735,32,-60,6
-447,5206,1643,5,80,-9
-407,5126,1887,11,126,-29
-359,5234,1887,26,224,-10
-451,5250,1895,55,219,10
-571,5202,2327,100,62,50
-495,5198,2231,65,25,46
-399,5294,2215,78,-110,145
-391,5234,2107,95,-196,218
-495,5066,1807,108,-290,252
-479,5102,1779,93,-358,287
-527,5122,1675,179,-115,168
-443,5334,1931,178,118,206
-463,5474,2187,-42,-3,296
-519,5390,2183,-12,-131,288
-371,5274,2159,66,-290,348
-335,5194,2167,58,-291,352
-383,5010,2515,-137,-438,364
-435,4862,2459,-114,-639,403
-367,4958,1703,151,-779,404
-367,4934,1483,161,-678,365
-315,5050,1343,239,-389,276
-503,5554,1707,13,-180,222
-483,5510,1623,-275,-518,344
-547,5346,1767,-233,-629,277
-419,4550,1395,-32,-187,116
-331,4498,1203,-57,-55,56
-303,4474,1279,-23,426,-121
-431,5242,1787,-68,709,-321
-491,5366,1987,-105,633,-322
-391,5358,2171,-136,340,-305
-359,5246,1863,-71,128,-237
-495,4894,1759,-3,217,-214
-495,4734,1895,58,378,-210
-311,4654,1803,118,512,-293
-147,4658,1859,40,492,-436
-283,4802,1883,21,553,-552
-435,4854,1947,28,583,-570
-491,4874,1847,84,717,-582
-547,4958,1783,114,838,-601
-355,5802,2107,23,1119,-651
-423,5922,2139,-60,975,-581
-627,5426,2499,-78,257,-265
-579,5218,2287,16,75,-197
-427,5126,2055,108,102,-128
-443,5074,2079,121,382,-108
-339,5290,2399,94,356,-123
-311,5322,2539,31,179,-72
-439,5462,2503,-23,-253,10
-651,5398,2035,-10,-386,104
-627,5302,1723,109,194,81
-667,5330,1735,108,419,53
-531,5614,2027,29,703,-92
-439,5558,2263,-2,575,-116
-223,4998,2511,89,352,-293
-243,4922,2431,133,305,-403
-291,5034,2667,-3,304,-576
-315,5066,2795,-48,251,-543
-347,5218,2607,-62,-21,-433
-415,5322,2227,35,-151,-309
-555,5422,2043,162,54,-221
-543,5490,2043,217,80,-207
-583,5550,2119,229,245,-169
-563,5734,2211,143,211,-155
-531,5726,2207,38,-13,-33
