acc_x,acc_y,acc_z,gyro_x,gyro_y,gyro_z
-10299,16018,2838,-129,-1095,-1099
-10171,16334,2694,-126,-370,-963
-10191,16290,2854,-168,259,-708
-10243,15914,3246,-198,348,-556
-10271,15930,3154,-160,312,-529
-10267,15930,3262,-162,322,-507
-10343,16038,3046,-132,357,-321
-10603,16006,3126,-286,602,-282
-10455,16074,3254,-227,652,-356
-10255,16130,3278,-117,429,-377
-10403,15990,3174,-78,392,-213
-10507,15978,3230,-97,588,-139
-10615,15734,3258,-165,704,-177
-10663,15722,3242,-149,693,-338
-10615,15886,3166,-85,747,-439
-10647,15982,3262,-43,984,-389
-10815,16106,3330,-64,1271,-383
-10719,16198,3486,-102,1413,-289
-10799,16334,3450,-42,1688,-276
-10983,16134,3454,-148,1967,-193
-11047,15994,3702,-258,2225,-381
-10975,15974,4014,-178,2092,-645
-10747,16006,4194,-175,1696,-782
-10679,15894,3982,-105,1173,-802
-10707,15970,3750,-66,981,-858
-10595,16278,3890,-16,1016,-923
-10479,16518,3662,40,1203,-850
-10539,16410,3566,39,1598,-554
-10839,16350,3650,-127,2086,-305
-10999,16098,3846,-178,2269,-376
-10891,15942,4070,-131,2089,-705
-10783,15842,4018,32,1624,-865
-10679,15834,4022,60,1263,-916
-10519,16002,4242,-56,826,-789
-10547,16110,4294,-86,297,-666
-10527,16266,4074,-110,-109,-449
-10711,16266,3886,-218,-211,-290
-10899,16190,3870,-157,-131,-125
-11187,16146,3890,-225,73,-236
-11131,16190,3982,-88,88,-448
-11079,16214,4146,-5,-177,-532
-11143,16238,4234,-25,-394,-502
-11339,16318,4202,-84,-713,-523
-11355,16418,3950,-58,-854,-496
-11223,16398,3918,-91,-908,-429
-11387,16498,3938,-95,-921,-382
-11275,16650,3878,-92,-994,-233
-11311,16674,3790,-49,-993,-86
-11327,16534,3778,46,-758,-16
-11431,16178,3626,181,-412,4
-11439,16046,3746,138,137,-79
-11403,15958,4002,54,490,-145
-11423,15998,4106,28,368,-197
-11359,16106,4082,95,2,-229
-11411,16178,4066,48,-418,-307
-11295,16314,3830,20,-631,-345
-11311,16394,3626,-38,-611,-336
-11347,16478,3578,-41,-439,-371
-11379,16622,3538,7,-321,-314
-11347,16574,3822,6,-333,-305
-11383,16298,3942,-36,-512,-225
-11511,16190,4050,-163,-560,-231
-11647,16214,4014,-131,-682,-263
-11643,16162,3778,-25,-801,-335
-11671,16226,3750,63,-812,-374
-11631,16270,4058,23,-901,-356
-11515,16318,4090,7,-1158,-259
-11519,16334,3870,3,-1299,-78
-11559,16278,3658,9,-1016,39
-11595,16278,3330,-118,-418,-27
-11531,16334,3306,-10,89,-121
-11547,16350,3498,112,406,-111
-11527,16390,3822,103,417,-52
-11651,16306,3810,28,228,92
-11679,16242,3842,-71,36,67
-11615,16206,3682,-5,-102,50
-11631,16210,3494,40,40,-55
-11551,16166,3626,10,340,-116
-11419,16294,3802,40,523,-79
-11371,16466,3946,28,468,32
-11455,16390,4074,-36,339,105
-11475,16450,4342,-92,-52,102
-11475,16430,4230,0,-533,181
-11499,16266,3902,56,-808,191
-11475,16174,3602,43,-680,259
-11579,16174,3422,-95,-294,285
-11595,16262,3462,-91,-15,218
-11627,16362,3458,38,169,74
-11439,16338,3630,85,347,28
-11371,16410,3862,3,384,80
-11371,16326,3902,13,129,202
-11491,16174,3782,46,-165,255
-11567,16318,3622,37,-219,139
-11415,16282,3554,27,-25,99
-11463,16290,3694,70,219,111
-11463,16194,3886,12,313,138
-11427,16258,3858,40,267,107
-11451,16190,3722,104,271,73
-11411,16294,3830,82,277,81
-11355,16374,3746,37,233,35
-11355,16378,3902,100,50,81
-11415,16234,3802,89,-109,90
-11463,16182,3774,72,-200,81
-11475,16238,3750,37,-285,71
-11451,16170,3610,30,-334,61
-11387,16214,3638,82,-338,-12
-11359,16298,3778,5,-336,49
-11303,16290,3894,-65,-415,93
-11371,16254,3706,-30,-591,26
-11391,16302,3566,67,-580,-2
-11403,16186,3462,45,-399,-13
-11411,16238,3506,-10,-105,-49
-11355,16314,3506,2,97,-91
-11467,16198,3658,43,228,-106
-11435,16262,3814,21,204,-130
-11403,16238,3854,-34,5,-46
-11367,16222,3938,-24,-309,-30
-11443,16274,3702,9,-455,-14
-11379,16254,3458,6,-245,20
-11367,16266,3426,21,103,14
-11367,16214,3722,43,265,-22
-11319,16374,3638,53,255,-101
-11387,16350,3582,52,262,-69
-11399,16430,3842,18,199,-5
-11479,16214,3966,-8,-125,43
-11519,16266,3834,0,-493,42
-11587,16142,3514,31,-486,-33
-11491,16158,3450,37,-156,-77
-11403,16234,3518,49,315,-79
-11367,16270,3658,-9,531,-24
-11335,16390,3674,46,442,-29
-11323,16358,3718,95,289,27
-11315,16342,3690,106,104,48
-11319,16350,3770,78,8,127
-11475,16222,3866,-52,143,128
-11463,16150,3930,24,67,116
-11495,16138,3922,-3,-163,79
-11483,16258,3594,26,-306,-13
-11451,16314,3498,102,-192,-67
-11375,16342,3446,83,182,-86
-11323,16366,3506,35,409,29
-11355,16358,3722,-10,448,79
-11419,16250,3814,-7,181,56
-11439,16170,3894,27,-102,33
-11451,16238,3758,-41,-160,7
-11463,16158,3706,-23,-154,-68
-11343,16286,3574,60,-26,-82
-11339,16342,3506,26,116,-63
-11363,16390,3678,-21,94,-5
-11387,16362,3766,-32,-38,78
-11523,16218,3694,17,-187,75
-11515,16146,3582,28,-20,34
-11403,16266,3594,20,180,-71
-11359,16298,3654,27,311,-73
-11319,16254,3802,57,182,-22
-11503,16174,3718,-1,-74,13
-11419,16314,3778,-44,-264,-41
-11347,16310,3614,-16,-239,-16
-11471,16246,3538,-35,-99,34
-11363,16186,3654,-34,64,14
-11455,16182,3750,-69,135,-4
-11403,16266,3786,-32,56,-13
-11359,16294,3702,23,-168,34
-11371,16274,3638,56,-212,62
-11299,16274,3610,-25,55,60
-11383,16290,3546,-4,231,32
-11451,16214,3698,59,230,34
-11447,16334,3850,36,99,37
-11371,16242,3898,-20,-26,54
-11435,16214,3690,12,-265,84
-11483,16242,3526,16,-230,61
-11439,16250,3530,-39,-90,19
-11379,16298,3570,-31,173,-11
-11415,16322,3618,-39,308,-1
-11331,16322,3762,18,238,-10
-11363,16286,3894,-47,180,5
-11447,16238,3674,-40,-7,6
-11407,16274,3786,24,-100,0
-11315,16382,3590,25,-180,4
-11335,16282,3642,-51,-105,17
-11375,16302,3646,-27,37,31
-11411,16330,3722,-2,80,-5
-11463,16286,3782,-2,-61,37
-11407,16238,3902,3,-125,63
-11507,16174,3646,3,-163,-6
-11491,16218,3426,51,-40,-35
-11407,16298,3446,27,214,-65
-11259,16338,3746,55,369,-66
-11359,16254,3834,-54,356,-35
-11391,16310,3998,-59,67,8
-11419,16266,3794,-32,-214,2
-11463,16154,3578,-6,-310,-21
-11471,16122,3494,41,-149,-94
-11307,16246,3502,-27,219,-131
-11283,16278,3650,-45,426,-107
-11343,16338,3770,-42,285,-78
-11407,16326,3846,59,-40,-29
-11351,16214,3754,50,-235,-2
-11415,16274,3590,38,-262,50
-11471,16278,3570,-18,-60,11
-11435,16306,3566,-16,17,30
-11455,16186,3678,9,80,-9
-11475,16282,3546,3,167,-7
-11359,16230,3634,14,242,-36
-11455,16310,3690,-37,275,32
-11355,16290,3778,-50,197,-4
-11347,16266,3786,37,-2,13
-11323,16242,3650,-36,-34,-15
-11327,16226,3734,-51,-69,0
-11391,16270,3674,12,30,-11
-11331,16258,3738,-22,-28,6
-11395,16266,3730,-46,-58,38
-11483,16246,3658,-53,-96,16
-11463,16350,3646,5,-119,9
-11499,16310,3550,6,-80,9
-11495,16270,3654,-1,40,24
-11483,16254,3538,-19,171,19
-11451,16226,3614,-15,236,-13
-11387,16410,3630,-46,189,-30
-11331,16302,3822,0,81,-9
-11391,16246,3906,-24,31,-12
-11347,16254,3718,-50,-1,-40
-11387,16274,3682,10,-3,-14
-11367,16226,3766,53,-11,-28
-11443,16258,3778,-12,-23,4
-11391,16262,3782,-25,-66,11
-11443,16270,3774,-43,-69,49
-11491,16174,3702,33,-77,0
-11527,16218,3694,16,-68,-71
-11339,16334,3622,-9,-94,-69
-11355,16294,3754,-40,40,2
-11407,16354,3802,-4,21,7
-11431,16290,3810,-49,13,45
-11375,16282,3598,-47,14,52
-11515,16262,3774,-92,25,78
-11491,16226,3654,4,-72,65
-11447,16238,3814,-41,-5,14
-11319,16298,3702,-29,72,16
-11403,16222,3718,-57,172,-28
-11339,16298,3818,-40,93,-9
-11443,16278,3778,-15,-53,-2
-11491,16290,3670,-41,-105,-12
-11487,16310,3790,13,-132,9
-11471,16366,3690,32,-129,6
-11411,16270,3730,-13,-35,33
-11459,16234,3850,-54,75,39
-11455,16270,3786,-80,75,-8
-11427,16250,3662,-36,16,-37
-11479,16206,3854,-44,-17,-39
-11419,16362,3758,-44,-1,-113
-11347,16290,3758,-32,23,-90
-11383,16298,3666,-52,106,-23
-11427,16266,3678,-91,101,-9
-11507,16222,3914,-35,-58,-35
-11455,16242,3754,-9,-138,-32
-11359,16210,3614,-32,-85,-28
-11515,16142,3650,-41,80,-10
-11499,16338,3770,49,176,-28
-11455,16274,3790,15,302,-51
-11403,16290,3806,-10,298,-10
-11467,16206,3842,-23,277,-14
-11495,16330,3930,41,80,-28
-11471,16322,3778,63,46,14
-11443,16286,3782,34,105,14
-11463,16366,3742,28,100,-10
-11439,16298,3726,8,240,21
-11519,16298,3694,4,294,48
-11583,16182,3914,15,215,50
-11587,16270,3986,-1,81,30
-11487,16254,3838,-5,-23,-45
-11431,16310,3766,26,51,-67
-11343,16382,3690,60,233,-23
-11387,16302,3662,-3,358,31
-11459,16262,3854,20,261,59
-11419,16318,3934,-10,80,50
-11355,16318,3898,35,-143,46
-11355,16254,3782,49,-126,80
-11551,16194,3690,-9,-55,28
-11487,16230,3678,7,-36,67
-11503,16246,3586,17,-22,27
-11451,16274,3670,75,110,-62
-11355,16338,3718,25,215,-28
-11367,16322,3822,-60,199,69
-11411,16266,3858,-56,-13,95
-11439,16342,3754,-39,-196,3
-11419,16294,3714,-28,-212,-15
-11371,16214,3630,-21,-69,-16
-11379,16214,3674,-41,92,51
-11523,16190,3818,-41,16,74
-11487,16230,3910,-50,-74,17
-11323,16262,3762,-30,-161,8
-11391,16346,3738,-23,-137,-5
-11355,16230,3674,44,-49,-19
-11387,16270,3678,4,95,-33
-11439,16346,3826,46,52,-3
-11435,16378,3922,-19,3,-15
-11391,16338,3882,-2,-204,54
-11495,16162,3630,-32,-261,70
-11427,16150,3470,-8,-41,27
-11431,16330,3618,48,190,-27
-11411,16358,3862,-12,283,-59
-11335,16294,3806,-23,101,-26
-11399,16226,3794,27,-92,-22
-11427,16214,3658,60,-58,5
-11407,16378,3766,19,97,-10
-11407,16338,3938,5,130,-5
-11419,16258,3914,-22,12,11
-11451,16186,3742,33,-89,16
-11427,16282,3598,18,-139,-10
-11391,16266,3606,41,-15,13
-11387,16274,3742,33,138,28
-11463,16214,3630,33,213,1
-11455,16230,3838,-33,262,-27
-11399,16266,3558,22,159,-31
-11423,16310,3838,9,146,-32
-11347,16370,3910,-37,72,-27
-11399,16250,3950,-60,-72,-24
-11415,16274,3790,-73,-199,-8
-11487,16210,3670,-4,-273,-21
-11483,16110,3654,49,-195,-62
-11367,16234,3518,-35,140,-32
-11403,16374,3798,-63,354,-16
-11355,16334,3818,7,320,-13
-11379,16342,4034,52,156,-13
-11411,16298,4054,-27,-8,44
-11475,16206,3774,-38,-171,40
-11567,16286,3810,15,-257,-7
-11447,16250,3706,26,-247,-28
-11363,16310,3678,27,-73,28
-11447,16306,3554,22,179,22
-11475,16318,3810,-24,298,31
-11507,16298,3854,9,250,10
-11447,16222,3834,-2,123,-24
-11395,16298,3842,12,-18,13
-11367,16306,3906,13,-60,21
-11363,16282,3802,-9,-89,20
-11407,16314,3770,-38,-29,46
-11407,16154,3858,-6,1,31
-11495,16190,3754,-38,117,-39
-11551,16318,3838,-44,29,-84
-11347,16394,3750,-17,-7,-48
-11363,16422,3762,50,-23,-13
-11439,16374,3810,71,64,43
-11407,16334,3774,50,228,62
-11475,16246,3794,-47,343,92
-11471,16202,3722,1,361,45
-11395,16174,3910,64,227,43
-11423,16258,4022,-4,94,6
-11395,16378,3798,-42,10,-17
-11339,16314,3826,-63,-97,-30
-11447,16286,3822,-48,-194,25
-11443,16158,3582,1,-233,-63
-11431,16246,3606,29,-62,-72
-11447,16286,3850,-39,159,-103
-11263,16382,3838,-35,186,-29
-11363,16334,4046,30,103,39
-11459,16310,3978,-52,-4,39
-11487,16206,3834,18,-198,38
-11487,16354,3698,85,-260,7
-11483,16330,3706,17,-159,6
-11459,16294,3626,-32,-12,-13
-11515,16258,3658,-23,14,31
-11503,16346,3782,-27,39,-7
-11495,16322,3658,3,116,-35
-11491,16274,3794,5,154,-63
-11467,16262,3802,-46,140,-56
-11455,16194,3906,-24,27,-48
-11399,16346,3850,16,-39,-35
-11375,16354,3994,54,-22,-25
-11387,16274,4038,20,6,-6
-11523,16262,3822,-27,85,45
-11571,16334,3830,-54,0,62
-11507,16330,3850,17,-144,5
-11463,16274,3542,42,-225,-9
-11443,16278,3526,46,-203,-43
-11415,16314,3534,47,49,-6
-11495,16190,3746,-14,347,-1
-11463,16186,3894,-35,346,25
-11487,16150,3926,-38,167,-37
-11391,16426,3914,72,-80,-99
-11327,16402,3846,-8,-128,-19
-11359,16290,3830,-30,-194,22
-11399,16234,3870,-74,-248,5
-11427,16246,3726,-62,-251,1
-11435,16298,3578,8,-102,-6
-11451,16222,3774,41,63,4
-11531,16242,3742,-9,61,0
-11479,16354,3782,4,179,-54
-11423,16370,3782,39,193,-15
-11479,16294,3942,-3,148,74
-11499,16186,3906,1,24,21
-11543,16258,3750,1,-87,24
-11471,16278,3818,22,-145,-44
-11475,16226,3678,61,-78,-64
-11399,16322,3734,48,59,14
-11503,16310,3738,-25,186,54
-11583,16310,3818,-9,204,61
-11559,16270,3718,8,78,-2
-11399,16274,3854,41,5,-24
-11375,16202,3806,45,-42,-10
-11383,16194,3558,-15,68,-24
-11447,16218,3806,-63,146,-45
-11379,16238,3770,-28,115,-51
-11343,16330,3818,-1,9,-52
-11343,16326,3802,-13,-46,20
-11451,16330,3714,-3,-133,63
-11463,16238,3810,16,-179,83
-11543,16306,3654,28,-109,49
-11551,16274,3694,-20,59,29
-11423,16238,3726,-6,102,14
-11443,16258,3818,7,67,42
-11391,16350,3838,42,29,39
-11395,16282,3926,47,-11,34
-11515,16226,3766,42,21,64
-11515,16262,3938,-21,61,-1
-11375,16350,3918,-48,63,-25
-11451,16258,3926,-17,31,-8
-11463,16294,3906,-28,-102,17
-11447,16314,3930,-45,-229,4
-11407,16366,3714,-47,-257,27
-11475,16278,3690,7,-85,5
-11507,16278,3686,-26,-24,0
-11463,16278,3690,17,60,-11
-11439,16274,3734,-17,202,-38
-11443,16322,3818,11,238,-4
-11355,16302,3858,1,74,27
-11479,16254,3994,24,-18,-7
-11479,16342,3742,35,-39,-7
-11455,16398,3586,12,117,12
-11431,16314,3842,30,200,16
-11483,16262,3858,-46,194,13
-11583,16110,3970,-34,24,6
-11535,16170,3702,-14,-50,-32
-11407,16222,3666,-26,19,-45
-11455,16406,3898,17,45,-52
-11335,16390,3830,2,30,-10
-11275,16426,3778,26,44,25
-11403,16322,3670,-19,65,79
-11435,16258,3786,-21,96,24
-11475,16122,3938,-6,21,6
-11487,16214,3730,-25,-5,-4
-11467,16274,3778,51,-49,-21
-11427,16218,3686,0,-22,-6
-11395,16374,3794,10,-35,36
-11351,16414,3930,5,-44,59
-11387,16258,3738,10,12,69
-11451,16230,3742,-51,137,72
-11455,16162,3726,-25,122,49
-11483,16222,3882,42,69,-32
-11459,16258,3930,0,-39,-90
-11363,16230,3746,-55,-134,-56
-11299,16370,3810,-36,-204,-27
-11395,16342,3670,-34,-130,-1
-11479,16222,3766,-54,-57,22
-11427,16346,3870,-64,-85,-53
-11487,16366,3722,-32,-202,-16
-11523,16222,3842,-57,-184,-42
-11447,16290,3758,5,-197,-1
-11403,16238,3818,13,-188,35
-11439,16270,3566,-30,-27,52
-11575,16178,3654,-67,86,-3
-11527,16274,3814,23,52,-55
-11359,16370,3762,8,-37,-73
-11347,16362,3798,47,-184,-1
-11435,16274,3874,-23,-181,19
-11435,16262,3782,29,-171,-23
-11507,16258,3754,-25,-66,-11
-11551,16230,3690,-14,19,-52
-11583,16194,3858,-3,72,-62
-11467,16274,3830,25,-72,-79
-11371,16326,3682,30,-103,-49
-11431,16334,3662,-19,14,-52
-11379,16342,3710,-6,88,-39
-11459,16254,3842,-7,74,-69
-11419,16270,3858,16,-19,-27
-11479,16258,3726,-13,-97,-40
-11435,16206,3734,6,-82,-62
-11395,16346,3726,-53,4,-20
-11399,16314,3998,-39,-22,19
-11575,16230,3858,-4,-171,-30
-11475,16222,3762,-6,-220,-22
-11495,16178,3638,-13,-14,-4
-11503,16314,3650,-14,174,-57
-11543,16322,3878,-82,230,-51
-11383,16338,3894,-12,-29,-61
-11439,16302,3650,-5,-121,18
-11487,16190,3754,-22,-67,-24
-11515,16342,3766,-48,26,-12
-11479,16210,3758,-80,89,-12
-11399,16250,3706,-66,-2,-13
-11443,16326,3830,-36,-89,-29
-11487,16334,3746,-1,-123,24
-11487,16270,3718,-92,-22,11
-11543,16266,3726,-40,32,43
-11635,16266,3738,88,-3,-7
-11475,16274,3806,3,157,-11
-11499,16354,3686,-30,192,26
-11463,16342,3830,-11,143,27
-11459,16406,3854,54,58,31
-11427,16374,3746,59,92,9
