acc_x,acc_y,acc_z,gyro_x,gyro_y,gyro_z
277,2438,1587,-616,-514,19
161,2358,1571,-721,-358,1
277,2422,1863,-836,108,-54
365,2578,1923,-830,31,-15
385,2102,1643,-765,-494,303
269,2174,1515,-804,-462,284
365,2110,1479,-721,-449,307
265,2270,1319,-604,-5,327
285,2354,1355,-567,167,342
325,2202,1703,-518,175,288
249,2198,1819,-441,-11,323
145,2030,1579,-324,-391,421
101,1970,1347,-296,-311,375
289,1842,1395,-262,313,107
305,1978,1535,-272,383,49
273,1902,2007,-218,-130,218
241,1902,1839,-152,-316,291
253,2130,1455,-166,-8,356
225,2058,1463,-257,200,339
293,1934,1935,-348,445,201
253,2058,2163,-373,286,214
325,2362,1875,-353,-263,445
413,2394,1651,-395,-253,503
301,2106,1567,-389,178,432
225,2062,1759,-379,289,316
117,2030,1935,-607,138,107
161,2162,1931,-564,-38,77
173,2118,1431,-375,-320,-5
313,2062,1091,-231,-154,0
229,2218,1523,-162,591,-8
169,2254,1731,-212,688,54
177,2186,2151,-264,169,308
217,2114,1967,-285,149,354
181,1798,1915,-177,281,202
197,1702,2023,-116,309,103
217,1682,2171,-273,213,-4
257,1770,2063,-378,142,-38
337,1982,1947,-532,144,54
237,1894,1867,-570,124,44
425,1738,1903,-476,-130,-99
513,1806,1891,-488,-153,-92
409,2290,1815,-686,-250,395
473,2094,1635,-696,-164,569
417,1958,1935,-620,8,843
249,1938,1911,-583,-92,853
13,1634,1859,-494,-498,908
-23,1562,1899,-458,-612,821
1,1674,1367,-280,-243,548
-151,1706,1627,-168,-25,500
-59,1606,2159,-265,-105,319
-99,1462,2147,-196,-421,219
-7,1602,1391,115,-925,-187
129,1730,1315,188,-810,-334
329,2414,1503,-100,205,-417
277,2578,1755,-220,372,-401
413,2226,2163,60,-127,-292
449,2038,2071,363,-261,-363
665,1886,1611,99,418,-594
621,1978,1927,-191,608,-630
449,2402,2571,-787,271,-453
309,2382,2459,-716,-63,-317
165,1762,1191,-439,231,-217
197,1622,935,-419,675,-411
225,2198,2019,-626,986,-317
5,2322,2471,-735,550,-22
-227,1822,1607,-602,-1361,654
-95,1494,1091,-378,-1496,558
93,1002,499,23,-639,-209
181,1170,731,179,-265,-367
741,2458,1843,401,385,-365
665,2798,2399,398,286,-127
365,2422,2755,134,-659,649
241,2074,2647,6,-970,694
-47,1310,2251,-197,-1310,256
-83,1310,1943,-124,-1210,-17
-3,1986,1515,219,-260,-637
113,2258,1547,123,164,-763
361,2326,2683,-283,73,-735
233,2202,2831,-209,-377,-705
149,1682,1887,167,-957,-829
325,1654,1399,262,-686,-986
645,2146,1679,-112,510,-1375
825,2386,2067,-194,525,-1315
829,2630,2271,-209,-377,-759
813,2654,1907,-162,-619,-595
585,2198,875,3,-115,-302
445,2218,779,17,348,-237
377,2222,1723,-376,906,-157
389,2398,1919,-504,580,-51
285,2422,1523,-483,-819,492
181,2398,1143,-331,-927,545
25,2170,439,-49,126,556
-27,2042,667,-90,541,464
13,2282,1891,5,616,312
117,2418,1903,62,131,347
105,2554,1219,451,-934,566
69,2474,1075,430,-780,536
21,1974,1547,110,422,-3
109,2074,1875,33,558,-214
109,2278,2511,63,-107,-344
97,2358,2439,173,-444,-264
77,2250,1271,72,-383,114
41,1994,1195,-139,-83,85
21,2190,2079,-595,-237,95
121,2282,1987,-582,-594,143
13,2230,1239,-141,-1354,239
117,2210,875,-148,-1188,224
461,2194,931,-571,-289,-7
473,2270,1131,-522,-186,-39
389,2450,1287,36,-473,20
177,2426,1299,187,-490,27
57,2426,1231,50,35,67
9,2326,1367,-209,207,56
81,2082,1727,-415,-238,-101
53,2122,1771,-282,-601,-105
121,2234,655,153,-797,-152
213,2254,363,177,-384,-231
245,2202,815,158,877,-443
149,2226,1271,178,912,-481
-163,2142,1875,266,10,-195
-223,2138,1755,272,-228,-169
61,2154,975,16,41,-464
97,2302,1107,-63,280,-559
325,2690,1607,-198,28,-376
305,2706,1595,-123,-291,-272
317,2558,767,115,-543,-10
257,2502,675,119,-217,-18
313,2294,1211,238,541,-237
313,2402,1243,335,592,-222
201,2618,1523,538,-102,96
221,2586,1431,581,-327,255
281,2366,1219,409,-217,511
141,2246,1191,380,-137,543
-135,2078,1423,631,-217,627
-79,2110,1363,750,-254,516
121,2162,955,890,154,149
185,2266,1139,882,367,36
29,2522,1931,806,54,136
-15,2458,1699,765,-228,247
-3,1890,987,624,-201,207
-63,1714,763,622,34,73
33,1758,763,1019,1235,-712
-19,2006,1131,1160,1333,-818
53,2406,1991,996,1085,-732
45,2462,2203,792,741,-623
345,2162,1815,317,-246,-605
365,2210,1823,306,-451,-668
401,2526,899,464,-631,-596
533,2550,543,590,-289,-531
437,2294,859,469,1153,-466
569,2186,1363,434,1274,-542
341,2574,1919,377,-348,12
221,2490,1807,397,-384,68
241,2438,1639,440,-401,103
173,1882,1187,269,488,14
101,1886,1343,166,671,-133
65,2318,1851,357,257,-231
73,2414,1791,435,-4,-204
617,2586,711,733,231,-278
657,2694,651,717,656,-289
293,2758,1935,393,1081,200
121,2706,2315,297,780,370
-51,1826,1995,325,-619,500
-107,1698,1639,454,-736,362
61,1862,843,722,404,-361
57,2086,915,677,781,-418
233,2742,1839,257,473,50
249,2630,1967,261,17,231
225,2202,979,557,-831,255
181,2166,791,684,-665,142
125,2590,1055,790,581,-17
105,2698,1415,734,719,7
265,2530,2147,668,333,76
329,2438,2203,695,110,20
-103,2130,1931,890,-474,-75
-187,2058,1619,921,-420,-124
1,1978,1235,616,478,-430
117,2086,1567,466,670,-549
365,2622,2235,347,-191,-323
453,2694,1975,433,-806,-132
329,2610,1007,666,-1138,70
409,2450,667,441,220,29
333,2442,943,313,606,5
353,2598,1935,208,459,170
265,2518,1895,352,154,311
97,2214,1679,513,-173,370
1,2094,1435,489,-43,339
-247,1874,1675,368,482,49
-251,1898,1663,303,510,-58
145,2258,1763,194,53,-151
193,2422,1595,322,-228,-113
205,2458,1035,607,-450,-70
213,2490,911,634,-191,-63
181,2282,1519,409,399,-102
137,2330,1791,345,443,-57
221,2154,2175,395,-160,-135
373,2202,1915,432,-398,-120
413,2366,1575,263,-634,9
393,2338,1355,171,-588,78
617,2138,1403,-370,-229,24
581,2094,1475,-427,-202,-33
457,2462,1771,-221,-654,75
625,2586,1367,-9,-807,248
769,2362,1255,-52,-161,716
597,2150,1659,-206,25,830
349,1966,2107,-771,216,1054
57,1738,2615,-940,-458,1248
-11,1694,1483,-577,-1389,1391
21,1750,1003,-499,-1261,1316
249,1986,723,-798,-355,1194
293,2018,1003,-1101,153,1095
-3,2098,1607,-753,-492,1103
-143,2054,1235,-514,-827,1132
-151,1494,623,-436,-325,599
-35,1474,459,-482,19,408
221,1994,1371,-475,482,142
349,2002,1431,-390,339,200
501,2078,1091,-157,12,363
541,2058,887,-269,260,384
429,1942,1131,-578,700,380
273,1702,1355,-533,618,199
61,1730,1171,-258,514,-182
65,1686,1271,-303,613,-222
213,1634,1479,-595,1002,-381
97,1666,2095,-750,870,-392
-31,1878,1643,-460,338,-317
-11,1814,1543,-392,437,-408
397,2306,1679,-726,1165,-726
381,2522,1959,-966,1141,-670
225,2406,2139,-883,316,-338
149,2298,2015,-746,139,-264
157,2058,1431,-819,591,-329
125,2050,1711,-904,866,-403
-95,2406,2259,-1001,827,-387
-131,2378,2371,-977,142,-250
-191,2150,1439,-917,-289,-182
-143,2062,1199,-934,-56,-252
-7,2078,1283,-1064,357,-368
41,2274,1667,-881,225,-418
277,2694,1883,-904,-597,-41
353,2678,1711,-999,-682,97
409,2374,1343,-1033,-600,428
341,2434,1291,-874,-518,440
17,2282,1503,-603,79,488
-39,2194,1639,-657,210,501
25,1922,1739,-1028,227,565
97,1886,1947,-1013,-63,601
213,1850,1599,-651,-1023,711
201,1838,1143,-491,-1065,714
269,1662,699,-197,31,653
257,1542,1047,-207,502,558
313,1594,1999,-261,682,425
249,1674,2643,-94,-185,478
209,1710,1567,484,-1192,575
229,1674,1279,514,-944,567
341,1734,1411,67,370,332
353,1690,1867,-66,461,245
209,1794,2235,36,-522,160
241,1882,1863,128,-853,185
385,2106,1083,109,-457,119
481,2126,1143,43,-136,191
441,2082,1675,-231,247,228
265,1998,2051,-267,-30,291
65,1578,1359,342,-642,81
-15,1586,1131,516,-505,-30
97,1514,911,521,236,-335
197,1798,1427,205,918,-413
193,1938,2343,23,-77,-140
225,1966,2223,114,-635,-8
441,2026,947,478,-976,124
441,1946,695,412,-572,89
357,1822,1563,98,682,-71
237,1806,2011,67,582,-91
185,1754,2007,254,-563,-7
133,1874,1707,372,-720,-58
121,1806,1199,293,-291,5
89,1582,1059,66,398,-176
277,1930,1739,190,295,-468
353,2054,1887,218,89,-440
409,2246,1415,122,-190,-115
485,2202,1259,80,10,-59
177,1770,1659,31,445,-106
161,1794,1735,109,337,-164
45,1774,1779,169,-126,-217
97,1818,1751,128,-252,-203
181,1874,1239,130,-99,-269
353,1902,1079,89,214,-304
305,1962,1563,122,379,-257
361,2002,1647,109,297,-183
249,1970,1647,78,-239,51
317,1982,1319,25,-318,74
361,1866,1123,32,6,-11
217,1866,1163,46,88,39
249,1910,1347,163,55,7
253,1854,1471,223,-15,15
341,1918,1479,170,-106,39
313,1882,1451,82,-57,105
393,1878,1531,206,138,77
421,1870,1555,277,78,126
349,1966,1503,369,-109,243
341,2034,1603,251,2,301
361,1874,1771,-157,467,260
277,1834,2003,-223,476,225
269,1854,1963,-142,-179,220
269,1766,1607,-6,-306,166
297,1990,1315,-217,529,233
325,1970,1435,-259,551,277
173,1714,1791,-354,467,324
45,1390,1651,-117,-187,98
97,1498,1331,29,-212,-22
281,1894,1147,87,214,-189
321,2202,1479,-127,721,-160
9,1902,2275,-615,88,231
-95,1758,2371,-622,-373,277
-379,1570,1643,-411,-1198,368
-487,1342,507,92,-997,165
-367,1542,663,80,838,-327
-339,1526,1251,-86,934,-378
-251,1102,1815,226,-4,-707
-99,1106,1663,540,-355,-884
581,2174,971,694,173,-965
741,2346,919,404,539,-846
525,1946,2195,116,527,-396
369,1766,2431,102,221,-303
437,1614,2051,217,-615,-157
593,1950,1343,373,-682,-129
297,2550,1187,268,-46,370
241,2498,1483,139,118,526
-239,1658,1967,-47,-223,358
-123,1290,1787,-15,-475,23
341,1542,983,558,-443,-1008
473,2046,1151,671,-120,-1132
741,2802,1815,153,219,-456
1009,2630,1887,72,179,-198
745,2018,1771,391,-199,99
505,1994,1727,520,-233,172
49,1754,1839,458,244,318
-39,1642,1907,359,406,258
-339,1518,2355,86,399,150
-335,1278,2171,-88,13,-118
285,1954,1219,102,-558,-502
377,2462,999,210,-549,-305
449,2594,599,236,222,347
577,2290,699,141,386,414
93,1602,1755,54,-16,297
109,1522,1843,139,-459,199
-19,1562,959,609,-618,-104
57,1722,743,715,-353,-162
433,2070,611,670,547,-278
609,2134,1383,507,934,-287
549,2054,2235,587,-236,-41
477,1950,2055,647,-650,24
281,1638,767,682,-178,-106
285,1638,879,591,321,-200
297,2154,1683,406,1145,-295
233,2258,1923,338,987,-220
321,2366,2091,77,-366,308
221,2322,1799,-4,-625,418
97,1878,1307,-3,-554,437
-23,1898,875,74,135,144
-95,2074,1655,258,725,-105
85,2154,2027,176,564,-52
185,2190,2435,-132,-657,353
29,2010,2055,-203,-975,420
69,1534,951,-137,-386,189
57,1670,895,-68,116,15
201,2234,1999,-105,448,-149
277,2318,2203,-180,96,-74
441,2346,1487,-133,-1205,447
361,2162,1075,-150,-1179,482
217,1590,731,-153,-110,263
181,1562,827,-121,158,131
405,1758,1367,-15,36,20
469,2130,1499,151,-450,169
349,2238,859,233,-345,553
361,2010,887,150,-96,552
181,1546,1543,100,385,330
73,1558,1679,16,218,256
273,1666,1487,216,-303,233
297,1858,1379,244,-339,198
133,1862,1151,16,218,246
193,1758,1355,-57,315,215
201,1602,1603,-85,260,68
73,1650,1619,7,-66,18
145,1846,983,182,50,-42
201,1970,1035,130,297,-78
405,2046,1427,-83,680,-73
361,2034,1619,-76,510,-7
73,1594,1651,81,-99,57
5,1450,1427,91,-91,-65
-15,1394,1335,-23,486,-417
53,1566,1563,-45,529,-461
381,1802,1631,-74,174,-409
237,1918,1567,-87,-232,-295
345,2090,1059,-179,-134,140
353,1866,1055,-237,24,153
209,1586,1347,-105,105,24
229,1486,1631,-69,-1,20
189,1590,1419,-23,-212,-62
209,1782,1323,-2,-124,-44
317,1874,1219,-92,279,102
253,1790,1371,-55,326,98
133,1686,1539,101,160,74
1,1630,1639,191,-89,1
1,1654,1343,-74,10,-70
173,1738,1331,-202,63,-120
377,1926,1619,-163,-349,-50
273,2034,1643,-102,-544,73
-27,1678,1243,66,-399,156
-107,1438,1183,34,-95,33
5,1734,1555,-261,579,-475
77,1818,1971,-346,396,-482
329,1938,1979,-269,-503,-378
353,2058,1163,85,-1163,-184
321,1954,371,95,-78,-95
365,1906,571,6,397,-104
273,1798,1771,-171,283,-40
333,1842,1843,-73,-146,37
221,2034,1083,414,-513,84
201,1930,803,357,-197,92
133,1622,1407,6,739,-122
153,1714,1667,-117,705,-250
193,1810,1951,-6,-23,-232
233,1810,1463,130,-672,-159
397,1974,599,115,-120,-31
425,1978,727,33,336,-31
365,1910,1915,-151,639,42
173,1874,2195,-145,263,103
9,1622,1803,-86,-792,282
45,1710,1431,-78,-735,201
221,1770,1131,-235,206,-75
297,1922,1263,-195,314,-129
357,2038,1627,-88,-12,-121
285,2026,1415,100,-435,-8
237,1802,955,-39,29,8
253,1790,1175,-92,252,-49
221,1874,1803,-158,-49,19
173,1794,1707,-116,-317,56
137,1638,991,-7,-367,82
205,1634,787,-40,-26,36
317,1898,1227,-112,547,-161
321,2086,1519,-59,290,-107
373,2182,1559,62,-327,52
293,2046,1067,235,-460,194
305,1938,895,56,716,112
229,1866,1271,60,874,104
229,1850,2191,129,170,125
169,1862,2023,142,-194,84
281,1950,1131,81,-325,95
257,1906,971,3,-99,136
341,1722,1251,65,410,-32
241,1822,1403,61,441,-56
313,1870,1623,-4,117,45
345,1970,1499,-38,-212,223
261,2126,1063,22,-12,465
217,1970,995,-28,216,494
29,1506,1407,35,594,160
21,1542,1751,20,532,70
-23,1766,1831,-54,-88,-68
-7,1838,1723,-52,-276,-24
313,1894,927,-70,-77,-1
337,1922,887,-61,122,9
125,1694,1359,125,300,-18
81,1746,1355,134,301,-22
109,1658,1371,182,99,-103
265,1754,1603,-8,57,-123
341,1810,1659,-72,-25,-83
377,1850,1627,-68,-153,-68
413,1882,1439,-7,-257,-11
353,1810,1147,267,31,-79
365,1830,1135,274,163,-156
289,1934,1635,115,362,-56
293,2002,1607,78,266,-41
177,1998,1367,191,-51,55
117,2066,1343,243,-24,74
-51,1974,1355,276,380,31
-107,1886,1619,225,433,12
-115,1670,1731,8,172,-91
-83,1454,1783,-15,-159,-288
-75,1606,1271,-136,-122,-566
21,1574,1219,-150,35,-676
197,1942,1415,-55,247,-795
273,2098,1571,-50,168,-717
305,2018,1575,-19,-73,-521
349,1918,1399,-57,-60,-566
381,1966,1443,-78,-46,-556
361,1930,1371,1,55,-500
345,1974,1427,125,208,-468
357,2042,1771,31,122,-382
429,2086,1659,-2,34,-353
397,2018,1515,-34,-197,-262
421,2042,1307,36,-71,-218
285,2010,1439,99,267,-211
341,2086,1459,75,278,-157
365,2190,1727,-18,-1,-31
353,2154,1595,-56,-143,31
237,2058,1511,4,-201,140
221,2090,1283,55,-106,115
257,1994,1435,24,165,25
221,1998,1455,6,164,-2
